UPTIMENANO,Ax,Ay,Az
403993433626779,5.324128599999999,7.443721000000001,0.33769777
403993443553435,4.86189,7.8532696,0.9316626
403993453480219,5.1876125,7.561077,1.1879296999999998
403993463406875,5.561235400000001,7.6975929999999995,1.5543678
403993473333659,4.584067299999999,8.873548,1.9399658
403993483260867,4.2080493,10.015972,1.5208374
403993493187523,3.7242556,10.389595,1.5208374
403993503114179,3.2763869999999997,10.827884,1.8657203000000002
403993513040836,3.3745828,10.727293,1.9375708999999999
403993522967621,3.4823585,10.032737,1.6190332
403993532894278,4.1649389999999995,9.393267,1.1112891000000003
403993542820935,4.2272096,9.426797,0.9963281999999999
403993552747592,3.9901028,9.472302,1.0035132
403993562674377,3.7218603999999997,9.386082,0.9580079
403993572601034,4.061953,9.513017999999999,0.8262818000000001
403993582522037,3.9829175,9.472302,1.096919
403993592448686,3.412903,9.77168,1.5088624
403993602375343,3.8583767,10.612332,1.5232325
403993612301998,4.3230104,10.760823,1.1759547
403993622228526,3.9445972,11.359577999999999,0.6658155
403993632155182,3.9254372,12.236155499999999,0.6586304000000001
403993642081838,4.598438,14.746135999999998,0.34727785
403993652008494,5.0415163,14.698235500000001,0.52690434
403993661935022,4.773274,9.493857,1.3723463
403993671861678,5.324128599999999,9.924961,1.0825489
403993681789148,5.352869,12.14275,1.2837305
403993691715804,3.9877076000000002,11.833791999999999,1.5591576999999999
403993701642332,3.0704152999999996,11.172767,1.3962965
403993711568988,2.9027638,10.818304,1.4106666
403993721495644,2.9794044,10.921289,1.2789403999999998
403993731422172,2.9410841,11.316467999999999,0.977168
403993741348828,1.8321900000000002,11.61824,0.91250247
403993751275356,4.9241605,7.472461,5.276228400000001
403993761202012,5.774392,9.309442,1.7555493999999998
403993771128540,5.989944,11.448194,0.32572266
403993781055196,6.6773148,9.941727,2.6225464
403993790978089,5.376819,9.82437,1.9974464
403993800904617,4.2152348,10.236314,0.38559815
403993810831273,1.5567628,8.995694,1.2310401000000002
403993820757801,-1.8489552,6.9575320000000005,2.5985963
403993830684329,-3.0919703999999997,5.757626999999999,0.9268726
403993840610858,-1.9016455,5.575606,-0.48618898
403993850537515,-0.5245093000000001,5.4175344,0.16525635
403993860464044,0.9484278,6.394702400000001,1.4130616000000003
403993870390573,3.0344898999999996,9.091495,0.033530276
403993880317102,5.561235400000001,11.120076,-1.9639161
403993890246139,6.404282599999999,10.7799835,-2.5722509999999996
403993900172668,5.527705,9.718989,-1.5783178999999998
403993910099197,4.4691067,9.455538,-0.52690434
403993920025718,3.647615,9.328602,0.16525635
403993929952375,2.9698243,8.547825,0.48139894
403993939878902,3.0129347,8.47837,0.51492923
403993949805430,3.1853762000000003,8.832832000000002,0.6777906
403993959731958,0.54366946,9.513017999999999,-1.3100758
403993969658486,-1.4082716,9.963282000000001,-4.126619
403993979585014,-1.0681788,10.485396000000001,-6.758744999999999
403993989519268,0.43589357,9.821976,-4.624783
403993999445924,2.5171657000000005,8.586145,-0.77359134
403994009372452,2.7854077999999998,8.59333,1.3915064
403994019299108,2.7351123999999998,8.8879175,2.3830445
403994029225764,3.6859352999999997,9.273516,3.9230419999999997
403994039152292,4.1338040000000005,10.736873,3.295547
403994049078948,4.1098537,11.397899,1.6932789000000001
403994059005604,3.8607717000000004,10.688972,0.6682104999999999
403994068932132,3.5973196000000005,9.616004,-0.22513184
403994078858788,3.5110989000000004,8.823253,-0.87418216
403994088791153,3.3865578000000003,8.418494,-1.3843212999999999
403994098717810,3.2069313999999998,8.389753,-2.1650977000000005
403994108644595,2.699187,8.811277,-4.045188
403994118571252,1.6597486000000001,9.319021000000001,-6.516848599999999
403994128497909,1.2645704,9.704619000000001,-6.4330225
403994138424694,1.6884888,9.81,-4.174519
403994148351351,2.1842580000000003,9.498648,-2.2082080000000004
403994158278008,2.1866529999999997,9.369317,-0.38559815
403994168204665,1.9088306000000002,9.515413,1.0681788
403994178131450,1.5376027,9.7740755,1.6980689999999998
403994188063609,1.1591895,10.159674,1.4897022
403994197990394,1.0442286,10.37283,0.4766089
403994207917179,1.0681788,10.518927,-0.55803955
403994217843836,1.0490186000000001,10.39678,-1.1831397
403994227770621,0.8909473,10.269844,-1.6022681
403994237697406,0.8047266,10.229128999999999,-1.6334034
403994247624191,0.7232959,10.181229,-1.3723463
403994257550976,0.68976563,10.099798,-1.2406201000000001
403994267477633,0.62031007,10.1189575,-1.3076807
403994277404418,0.44547364,10.099798,-1.3819263000000002
403994287335515,0.7879615,9.860296,-1.2933106
403994297262300,1.9830762,9.366921000000001,-1.1041040000000002
403994307189213,2.2201831000000003,9.299861,-0.95561284
403994317115977,1.9711011999999999,9.4507475,-0.80233157
403994327042890,1.8465601000000003,9.570497999999999,-0.7783814
403994336969675,1.7771046000000001,9.604028999999999,-0.855022
403994346896460,1.5519726999999999,9.733359,-0.96758795
403994356823373,1.6573536,9.572892999999999,-1.2166698999999999
403994366750158,1.5711329,9.520203,-1.3891114
403994376676943,1.3867163999999998,9.690249,-1.3843212999999999
403994386603232,1.214275,9.829161000000001,-1.5088624
403994396530017,1.1352394,9.862691,-1.7315991999999998
403994406456802,1.0466236,9.7812605,-1.9136206999999998
403994416383715,1.1448194,9.72857,-1.4489869
403994426310500,1.1927198,9.83874,-0.89573735
403994436237413,1.1711646,9.798025,-0.69695073
403994446164198,1.0322535,9.833950999999999,-0.7496411000000001
403994456090983,0.98195803,9.8866415,-0.88376224
403994466017896,1.1136841999999998,9.891430999999999,-0.974773
403994475944681,1.0130934,9.958491,-0.8598120000000001
403994485884020,0.9412427,10.020762,-0.80233157
403994495810933,1.0466236,10.0063925,-0.7831714
403994505737974,1.1136841999999998,10.008787,-0.87418216
403994515664887,1.1687696,9.975257000000001,-0.9364527
403994525591928,1.2430152,9.910591,-0.90771246
403994535518841,1.2573853000000002,9.884246000000001,-0.8598120000000001
403994545445882,1.2454101999999998,9.862691,-0.76880133
403994555372899,1.2286451,9.831555,-0.6849755999999999
403994565299812,1.1879296999999998,9.879456,-0.57001466
403994575226853,1.1448194,9.912986,-0.5604346
403994585157294,1.1041040000000002,9.848321,-0.57001466
403994595084335,1.0226734,9.75731,-0.5005590999999999
403994605011376,1.0538087,9.742939999999999,-0.40715334
403994614938417,0.90771246,9.855506,-0.39517823
403994624865458,1.0753639,10.003997,-0.15088624
403994634792499,1.094524,10.205178,0.15088624
403994644719540,1.1160791,10.47821,0.39996827
403994654646581,1.0825489,10.571617,0.8214916999999999
403994664573622,0.84065187,10.542876,1.2549903
403994674500663,0.42152345,10.4494705,1.3076807
403994684425520,0.16046631,10.229128999999999,0.98195803
403994694352561,0.021555176000000002,9.941727,0.63707525
403994704279602,-0.16765137,9.704619000000001,0.46463382
403994714206643,-0.26105714,9.486672,0.07424561
403994724133684,-0.14849122,9.14658,-0.31135255
403994734060725,-0.122146,8.897497999999999,-0.53169435
403994743987766,-0.18920656,8.768167,-0.6394701999999999
403994753914807,0.035925295,8.737032000000001,-0.38799320000000004
403994763841848,0.5221143,8.871153,0.09101075
403994773768761,0.8286768,9.110655,0.4382886
403994783692734,0.8334668,9.1849,0.43349856
403994793619751,0.8861573,8.950189,0.33769777
403994803546664,0.63707525,8.5502205,-0.1460962
403994813473705,0.54366946,8.121511,-0.7783814
403994823400746,0.65384036,7.975414999999999,-1.0370435
403994833327659,0.63707525,8.710687,-0.9651929
403994843254695,0.80712163,9.551338000000001,-0.81909674
403994853181735,1.094524,10.023157000000001,-0.488584
403994863108775,1.4801221000000002,10.847044,0.2778223
403994873035687,1.8920655,11.488909,1.6070582
403994882958179,1.22625,11.309282000000001,2.9458742
403994892885091,-0.023950197000000003,10.827884,3.6548
403994902812003,-0.7831714,10.825489,2.9506642999999997
403994912739043,-0.92926764,10.899734500000001,1.3771361999999998
403994922665955,-0.77359134,10.526112,-0.050295413
403994932592867,-0.29698244,9.982442,-1.1424243
403994942519907,0.8885523000000001,9.479486999999999,-1.9902613
403994952446819,1.4394068000000002,9.333391,-2.1435425
403994962373731,1.1304493,9.460327000000001,-1.6022681
403994972300771,1.0370435,9.513017999999999,-0.62989014
403994982227364,0.9148975,9.635164,-0.18441652
403994992154276,0.62749517,9.783655,-0.023950197000000003
403995002081188,0.49337405,9.81958,0.2706372
403995012008100,0.7448511,9.692644,0.13891114
403995021935140,0.9532178,9.616004,-0.21076173
403995031862052,1.0274634,9.745335,-0.5221143
403995041788965,1.0609937,9.941727,-0.6730005
403995051715878,1.0154883,10.092611999999999,-0.732876
403995061642791,0.87418216,10.164463,-0.92926764
403995071569832,0.60354495,10.114168,-1.2645704
403995081492865,0.23710695,9.970467,-1.4968873
403995091419778,-0.100590825,9.795630000000001,-1.4489869
403995101346691,-0.119750984,9.699829,-1.1951148999999999
403995111273597,0.16286133,9.742939999999999,-0.974773
403995121200509,0.49816409999999994,9.869876,-0.75203615
403995131127549,0.7065308000000001,9.982442,-0.55324954
403995141054461,0.76161623,9.929751,-0.6179150999999999
403995150981373,0.852627,9.740545,-0.9029224
403995160908285,1.1807446000000001,9.529783,-1.1807446000000001
403995170838454,1.585503,9.378897,-1.4298267
403995180761567,1.81782,9.414823,-1.5591576999999999
403995190688351,1.9806811999999998,9.671089,-1.4705421
403995200615263,2.0549269,9.927357,-1.1879296999999998
403995210542175,1.9806811999999998,9.975257000000001,-0.8765772
403995220468959,1.8705102999999998,9.915381,-0.71371585
403995230395871,1.8321900000000002,9.841136,-0.57959473
403995240322656,1.8369801,9.7740755,-0.48139894
403995250249569,1.8321900000000002,9.807606,-0.5676197
403995260176482,1.8274,9.845925,-0.60354495
403995270103267,1.7651293999999997,9.920172,-0.5604346
403995280020262,1.6573536,10.003997,-0.6346801999999999
403995289947047,1.5447876,9.992022,-0.7711963000000001
403995299873832,1.3196558,9.867481,-0.728086
403995309800617,1.0657837,9.793235000000001,-0.62749517
403995319727402,0.9484278,9.80521,-0.51732427
403995329654059,0.91250247,9.82437,-0.4023633
403995339580844,0.98195803,9.881851,-0.38080812
403995349507629,1.1280543,9.924961,-0.37122804
403995359434414,1.1951148999999999,9.984836999999999,-0.34009278
403995369361199,1.2645704,10.051897,-0.2682422
403995379283214,1.453777,10.039923,-0.20118165
403995389209999,1.4513819,9.927357,-0.22992188
403995399136656,1.3891114,9.7740755,-0.3544629
403995409063313,1.463357,9.699829,-0.3903882
403995418989970,1.4920973,9.704619000000001,-0.28740236
403995428916627,1.4441968,9.7621,-0.20357667
403995438843412,1.4418018,9.7812605,-0.27303225
403995448770069,1.4058765,9.798025,-0.25866213
403995458696726,1.3028906999999998,9.881851,-0.17483643
403995468623360,1.2525953,9.960887,-0.119750984
403995478550017,1.3388159,9.891430999999999,-0.23950197
403995488481290,1.331631,9.707015,-0.40715334
403995498407947,1.096919,9.855506,-0.44786867
403995508334732,0.93405765,10.051897,-0.44068359999999995
403995518261389,0.8669971,9.857901,-0.5508545
403995528188174,0.91729254,9.663903999999999,-0.64186525
403995538114831,1.0777588,9.800421,-0.72569096
403995548041616,1.2334352,10.044711999999999,-0.855022
403995557968273,1.2981006000000002,10.083033,-0.95561284
403995567894930,1.4465919,9.929751,-1.0777588
403995577821715,1.5926881000000002,9.697434,-1.2549903
403995587748912,1.6357985000000002,9.606423,-1.4394068000000002
403995597675569,1.5519726999999999,9.635164,-1.4489869
403995607602354,1.1999048,9.795630000000001,-1.3172607
403995617529139,0.8310718,9.889036,-1.0514137
403995627455796,0.613125,9.77647,-0.84544194
403995637382581,0.48618898,9.630374,-0.852627
403995647309238,0.42391850000000003,9.570497999999999,-0.9388476999999998
403995657236023,0.38080812,9.503438000000001,-1.0609937
403995667162680,0.41194338,9.479486999999999,-1.1424243
403995677089465,0.51971924,9.639954,-1.1591895
403995687018942,0.58198977,9.7621,-1.1424243
403995696945727,0.63707525,9.77647,-1.2310401000000002
403995706872491,0.7232959,9.7812605,-1.214275
403995716799148,0.81191164,9.826766000000001,-1.1160791
403995726725933,0.8047266,9.862691,-1.0466236
403995736652718,0.7879615,9.884246000000001,-0.87897223
403995746579375,0.77359134,9.939331,-0.7232959
403995756506160,0.7544312,9.948912,-0.7161109
403995766432817,0.79993653,9.924961,-0.8143066999999999
403995776359602,0.9148975,9.939331,-0.80233157
403995786282175,0.9484278,9.879456,-0.7544312
403995796208832,0.91729254,9.795630000000001,-0.73048097
403995806135617,0.92208254,9.812395,-0.7185059
403995816062274,0.9508228000000001,9.817185,-0.6394701999999999
403995825988931,0.92926764,9.848321,-0.5939649
403995835915716,0.98195803,9.821976,-0.5364844
403995845842373,1.0298585,9.759705,-0.5221143
403995855769030,1.0178833,9.704619000000001,-0.5412744
403995865695671,0.98435307,9.711803999999999,-0.51732427
403995875622455,1.0490186000000001,9.759705,-0.47181886
403995885552311,1.1472143999999997,9.769285,-0.48139894
403995895478967,1.22146,9.766891000000001,-0.5364844
403995905405751,1.2789403999999998,9.7740755,-0.53169435
403995915332407,1.3627661,9.726174,-0.48379397
403995925259063,1.3124708,9.6686945,-0.5412744
403995935185847,1.1448194,9.697434,-0.5939649
403995945112503,1.0562036,9.795630000000001,-0.5628295999999999
403995955039287,1.0178833,9.81958,-0.5364844
403995964965943,0.974773,9.922566,-0.5388794
403995974892727,0.9963281999999999,9.901011,-0.59156984
403995984818170,0.9651929,9.78605,-0.613125
403995994744826,0.9436377,9.687855,-0.57959473
403996004671610,1.0106983,9.692644,-0.50534916
403996014598266,1.1160791,9.79084,-0.44068359999999995
403996024524922,1.1639795,9.850716,-0.44786867
403996034451578,1.1520045,9.80521,-0.46702883
403996044378234,1.1711646,9.659114,-0.59156984
403996054305018,1.1951148999999999,9.656719,-0.6682104999999999
403996064231675,1.2118799999999998,9.745335,-0.53169435
403996074158332,1.219065,9.872271000000001,-0.38320315
403996084092601,1.1831397,9.951306,-0.31374758
403996094019386,1.1927198,9.953702,-0.3161426
403996103946171,1.1927198,9.987232,-0.33769777
403996113872956,1.1328443000000001,9.922566,-0.37362307
403996123799613,1.0178833,9.793235000000001,-0.42152345
403996133726398,0.9627979,9.75731,-0.4023633
403996143653183,0.974773,9.884246000000001,-0.2802173
403996153579968,0.977168,9.972861,-0.20357667
403996163506753,0.9268726,9.898616,-0.31374758
403996173433538,0.9532178,9.77647,-0.4143384
403996183370379,0.9867481,9.730965,-0.46463382
403996193297280,0.9915381,9.795630000000001,-0.4766089
403996203224193,0.9580079,9.841136,-0.47181886
403996213151104,0.9196875,9.833950999999999,-0.53169435
403996223078016,0.92926764,9.82437,-0.58198977
403996233004928,0.9627979,9.833950999999999,-0.57959473
403996242931840,0.9484278,9.857901,-0.5484595
403996252858752,0.94603276,9.826766000000001,-0.5245093000000001
403996262785664,0.91250247,9.778865,-0.49576905
403996272712448,0.91729254,9.793235000000001,-0.40954837
403996282638543,0.89573735,9.831555,-0.44547364
403996292565455,0.8430469,9.891430999999999,-0.4526587
403996302492367,0.7951465,9.898616,-0.4766089
403996312419151,0.7448511,9.867481,-0.5604346
403996322346063,0.7711963000000001,9.862691,-0.60354495
403996332272975,0.7592211999999999,9.853110000000001,-0.6059399999999999
403996342199887,0.7209009,9.783655,-0.62749517
403996352126799,0.728086,9.721385,-0.5843848
403996362053711,0.76401126,9.7740755,-0.57959473
403996371980623,0.7927515,9.932146000000001,-0.5340894
403996381909696,0.79993653,10.018367,-0.48379397
403996391836608,0.7927515,9.929751,-0.49816409999999994
403996401763520,0.8310718,9.78605,-0.53169435
403996411690432,0.8933423,9.7740755,-0.43349856
403996421617344,0.8861573,9.929751,-0.33769777
403996431544256,0.84065187,9.996812,-0.37362307
403996441471296,0.79035646,9.865086,-0.5125342
403996451398208,0.79993653,9.735755000000001,-0.62510014
403996461325120,0.8310718,9.692644,-0.6777906
403996471252032,0.84065187,9.7812605,-0.6466553
403996481182135,0.81191164,9.831555,-0.57959473
403996491109176,0.7544312,9.778865,-0.5364844
403996501036089,0.7711963000000001,9.793235000000001,-0.5628295999999999
403996510963130,0.81191164,9.889036,-0.5245093000000001
403996520890043,0.7831714,9.877061,-0.5388794
403996530817084,0.80233157,9.745335,-0.63707525
403996540743997,0.8143066999999999,9.70941,-0.6227050999999999
403996550671038,0.8286768,9.814791,-0.5508545
403996560597943,0.8430469,9.898616,-0.5724097
403996570524855,0.8430469,9.862691,-0.65384036
403996580453772,0.852627,9.764495,-0.6706055000000001
403996590380812,0.8813671999999999,9.812395,-0.6610254
403996600307852,0.8861573,9.8938265,-0.6490503000000001
403996610234764,0.86220706,9.910591,-0.6059399999999999
403996620161804,0.85023195,9.860296,-0.5484595
403996630088844,0.84544194,9.833950999999999,-0.5245093000000001
403996640015884,0.8765772,9.879456,-0.5029541000000001
403996649942924,0.88376224,9.901011,-0.47181886
403996659869964,0.8813671999999999,9.896221,-0.5388794
403996669796876,0.9029224,9.860296,-0.5987549
403996679727279,0.9053174,9.83874,-0.5843848
403996689654319,0.86939216,9.848321,-0.60833496
403996699581359,0.79754156,9.867481,-0.5748047
403996709508400,0.7448511,9.915381,-0.5604346
403996719435441,0.72569096,10.018367,-0.55324954
403996729362482,0.7041358,10.049502,-0.60833496
403996739289523,0.7232959,9.944121,-0.6849755999999999
403996749216564,0.77359134,9.72857,-0.6658155
403996759143605,0.7927515,9.618399,-0.6825806
403996769070646,0.7831714,9.687855,-0.57719976
403996778992481,0.71371585,9.912986,-0.45026368
403996788919522,0.6658155,10.054293,-0.44068359999999995
403996798846563,0.62510014,10.099798,-0.5460645000000001
403996808773604,0.5963599,9.984836999999999,-0.6490503000000001
403996818700505,0.55324954,9.793235000000001,-0.7783814
403996828627545,0.61073,9.539363,-0.5987549
403996838554585,0.6610254,9.7142,-0.5843848
403996848481625,0.6394701999999999,9.944121,-0.38320315
403996858408665,0.60833496,10.059082,-0.32332766
403996868335705,0.54366946,10.044711999999999,-0.3520679
403996878258393,0.5748047,9.912986,-0.38080812
403996888185305,0.5748047,9.764495,-0.39278322
403996898112217,0.58198977,9.75252,-0.41912845
403996908039129,0.5963599,9.848321,-0.34727785
403996917966169,0.62749517,9.956097,-0.27303225
403996927893081,0.60354495,9.833950999999999,-0.29698244
403996937819993,0.6442603,9.666299,-0.4047583
403996947746905,0.68737066,9.678274,-0.32332766
403996957673945,0.728086,9.788445,-0.19160157
403996967600857,0.73527104,9.879456,-0.1580713
403996977526264,0.72569096,9.956097,-0.21555176
403996987453304,0.7592211999999999,9.862691,-0.21555176
403996997380216,0.8382569,9.80521,-0.22034179999999998
403997007307129,0.92208254,9.836346,-0.21794678
403997017234042,0.96758795,9.910591,-0.19399660000000002
403997027160955,0.95561284,9.910591,-0.119750984
403997037087864,0.9316626,9.82437,-0.100590825
403997047014776,0.9364527,9.81958,-0.014370117
403997056941688,0.98435307,9.901011,0.016765138
403997066868600,0.96040285,9.948912,0.117355965
403997076786640,0.91010743,9.898616,0.07424561
403997086713424,0.8669971,9.896221,-0.047900394000000006
403997096640336,0.8047266,9.896221,-0.09101075
403997106567120,0.8262818000000001,9.802814999999999,-0.06945557
403997116494032,0.8382569,9.769285,-0.07664063
403997126420816,0.85023195,9.83874,-0.019160157
403997136347728,0.87418216,9.896221,0.0071850587
403997146274512,0.91010743,9.872271000000001,-0.0047900393
403997156201424,0.9316626,9.798025,0.026345216
403997166134805,0.91729254,9.783655,0.045505375
403997176060638,0.8430469,9.814791,0.023950197000000003
403997185987423,0.7759864000000001,9.778865,-0.0071850587
403997195914336,0.79993653,9.740545,-0.023950197000000003
403997205841121,0.7424561,9.77168,-0.05269043
403997215767906,0.62510014,9.821976,-0.100590825
403997225694819,0.5748047,9.750125,-0.100590825
403997235621604,0.6562354,9.635164,-0.047900394000000006
403997245548389,0.7807764,9.64714,0.0
403997255475302,0.80712163,9.81958,0.043110352000000005
403997265402087,0.7544312,9.948912,-0.0071850587
403997275323818,0.74724615,9.812395,-0.11256592
403997285250603,0.84065187,9.613608000000001,-0.18441652
403997295177388,0.90052736,9.611214,-0.22752686
403997305104173,0.81909674,9.730965,-0.18920656
403997315030958,0.8143066999999999,9.83874,-0.16765137
403997324957743,0.85023195,9.879456,-0.22992188
403997334884656,0.852627,9.992022,-0.3161426
403997344811441,0.7711963000000001,9.994417,-0.34009278
403997354738226,0.7879615,9.754914999999999,-0.31374758
403997364665011,0.79754156,9.687855,-0.24189699
403997374589790,0.81909674,9.793235000000001,-0.1820215
403997384516575,0.8143066999999999,9.951306,-0.15328126
403997394443232,0.7783814,9.968072,-0.2083667
403997404369995,0.81909674,9.850716,-0.32572266
403997414296652,0.84544194,9.798025,-0.33290774
403997424223437,0.8885523000000001,9.7812605,-0.2778223
403997434150222,0.8909473,9.798025,-0.22992188
403997444076879,0.82388675,9.843531,-0.12933107
403997454003664,0.76880133,9.869876,-0.09580079
403997463930321,0.728086,9.831555,-0.14130616
403997473857106,0.79035646,9.75731,-0.1580713
403997483785273,0.7568262,9.79084,-0.13891114
403997493711930,0.7209009,9.867481,-0.12693603
403997503638715,0.7185059,9.898616,-0.11256592
403997513565500,0.69695073,9.929751,-0.10538086
403997523492157,0.7424561,9.944121,-0.11256592
403997533418942,0.75203615,9.915381,-0.17244141
403997543345727,0.75203615,9.869876,-0.19878663
403997553272384,0.7568262,9.766891000000001,-0.23710695
403997563199169,0.7831714,9.77647,-0.21794678
403997573125954,0.81191164,9.891430999999999,-0.19639161
403997583050007,0.70174074,10.013577,-0.23710695
403997592976792,0.6442603,10.023157000000001,-0.27303225
403997602903449,0.62749517,9.929751,-0.32572266
403997612830106,0.61552006,9.841136,-0.40715334
403997622756763,0.62749517,9.764495,-0.39757326
403997632683548,0.71371585,9.788445,-0.3784131
403997642610182,0.6346801999999999,9.877061,-0.30177248
403997652536839,0.5939649,9.975257000000001,-0.31853762
403997662463496,0.5724097,9.977652,-0.37362307
403997672390281,0.5484595,9.881851,-0.44068359999999995
403997682318546,0.5724097,9.75731,-0.44068359999999995
403997692245203,0.6394701999999999,9.70941,-0.4382886
403997702171860,0.6777906,9.814791,-0.39757326
403997712098517,0.6490503000000001,10.001602,-0.32332766
403997722025302,0.6011499,10.056687,-0.32572266
403997731951959,0.6011499,9.912986,-0.3520679
403997741878616,0.6610254,9.766891000000001,-0.37362307
403997751805401,0.69695073,9.77168,-0.3520679
403997761732058,0.7161109,9.889036,-0.34967285
403997771658715,0.6825806,10.008787,-0.31853762
403997781581158,0.62749517,10.087823,-0.24908204
403997791507815,0.62989014,10.042317,-0.2706372
403997801434600,0.61073,9.951306,-0.25147706
403997811361257,0.61552006,9.826766000000001,-0.25147706
403997821287914,0.6466553,9.829161000000001,-0.24189699
403997831214571,0.60833496,9.877061,-0.17004639
403997841141209,0.5891748,9.965676,-0.13651612
403997851067865,0.5963599,9.932146000000001,-0.122146
403997860994521,0.5987549,9.8938265,-0.10538086
403997870921177,0.6179150999999999,9.867481,-0.12454102
403997880845264,0.6490503000000001,9.836346,-0.13651612
403997890771920,0.6179150999999999,9.81,-0.16046631
403997900698576,0.65384036,9.766891000000001,-0.1820215
403997910625232,0.6227050999999999,9.778865,-0.15567628
403997920551888,0.61073,9.83874,-0.13651612
403997930478416,0.58677983,9.843531,-0.119750984
403997940405072,0.61073,9.817185,-0.122146
403997950331728,0.62031007,9.788445,-0.11496094
403997960258384,0.6442603,9.800421,-0.07664063
403997970184912,0.61552006,9.82437,-0.059875492
403997980116529,0.60833496,9.833950999999999,-0.038320314
403997990043185,0.62510014,9.848321,-0.05748047
403997999969970,0.6059399999999999,9.793235000000001,-0.06945557
403998009896627,0.613125,9.75252,-0.09101075
403998019823284,0.613125,9.75731,-0.117355965
403998029749941,0.59156984,9.812395,-0.117355965
403998039676598,0.5748047,9.836346,-0.09101075
403998049603249,0.55803955,9.841136,-0.07903565
403998059529906,0.57001466,9.831555,-0.05508545
403998069456561,0.61552006,9.80521,-0.023950197000000003
403998079381820,0.6179150999999999,9.77647,-0.043110352000000005
403998089308476,0.62989014,9.798025,-0.035925295
403998099235132,0.6562354,9.817185,-0.035925295
403998109161788,0.6706055000000001,9.81958,-0.05269043
403998119088444,0.7161109,9.769285,-0.09340577
403998129015100,0.6993457,9.788445,-0.12933107
403998138941756,0.69695073,9.812395,-0.07903565
403998148868412,0.728086,9.77647,-0.06227051
403998158795068,0.75203615,9.81,-0.047900394000000006
403998168721724,0.72569096,9.853110000000001,-0.040715333
403998178649044,0.68737066,9.855506,-0.083825685
403998188575700,0.7209009,9.7812605,-0.11496094
403998198502356,0.76880133,9.74773,-0.15328126
403998208429012,0.7879615,9.79084,-0.17723145
403998218355669,0.7783814,9.848321,-0.17244141
403998228282326,0.74724615,9.891430999999999,-0.19160157
403998238208983,0.7232959,9.891430999999999,-0.19878663
403998248135640,0.73048097,9.853110000000001,-0.22273682
403998258062297,0.72569096,9.793235000000001,-0.24668702
403998267988954,0.7496411000000001,9.79084,-0.29937744
403998277923369,0.77359134,9.857901,-0.2802173
403998287850154,0.7496411000000001,9.891430999999999,-0.23710695
403998297776811,0.74724615,9.862691,-0.21794678
403998307703596,0.7496411000000001,9.814791,-0.24668702
403998317630381,0.79754156,9.798025,-0.26345217
403998327557166,0.8214916999999999,9.83874,-0.2562671
403998337483951,0.8286768,9.874666,-0.24189699
403998347410736,0.8286768,9.903406,-0.19399660000000002
403998357337521,0.79035646,9.917776,-0.17004639
403998367264306,0.80233157,9.908196,-0.19878663
403998377192465,0.84544194,9.874666,-0.24908204
403998387119250,0.8167017,9.850716,-0.23710695
403998397046035,0.80712163,9.855506,-0.18920656
403998406972692,0.8310718,9.898616,-0.18441652
403998416899477,0.8286768,9.996812,-0.16765137
403998426826262,0.77359134,9.970467,-0.14370118
403998436753047,0.79035646,9.850716,-0.12693603
403998446679810,0.8646021,9.860296,-0.09340577
403998456606595,0.8981324,10.003997,-0.043110352000000005
403998466533380,0.8334668,9.996812,-0.021555176000000002
403998476469031,0.79993653,9.869876,-0.05748047
403998486395944,0.8478370000000001,9.826766000000001,-0.117355965
403998496322857,0.85023195,9.881851,-0.098195806
403998506249770,0.7951465,9.968072,-0.083825685
403998516176555,0.7232959,9.989627,-0.14370118
403998526103468,0.71371585,9.898616,-0.17004639
403998536030381,0.7711963000000001,9.81958,-0.1460962
403998545957166,0.8143066999999999,9.814791,-0.10538086
403998555884079,0.7807764,9.884246000000001,-0.031135255
403998565810992,0.7496411000000001,9.927357,0.023950197000000003
403998575735687,0.75203615,9.934542,-0.011975098
403998585662600,0.77359134,9.946517,-0.07424561
403998595589513,0.7568262,9.860296,-0.11496094
403998605516298,0.7568262,9.802814999999999,-0.16286133
403998615443211,0.7592211999999999,9.814791,-0.2083667
403998625370124,0.7568262,9.8938265,-0.17723145
403998635297037,0.7448511,9.920172,-0.17244141
403998645223822,0.6993457,9.869876,-0.18441652
403998655150735,0.68976563,9.82437,-0.23471193
403998665077648,0.70174074,9.759705,-0.22034179999999998
403998675003951,0.76880133,9.807606,-0.20118165
403998684930712,0.7592211999999999,9.901011,-0.15567628
403998694857625,0.7161109,10.003997,-0.1341211
403998704784410,0.6658155,9.958491,-0.21076173
403998714711323,0.68737066,9.77647,-0.2802173
403998724638108,0.74006104,9.692644,-0.31135255
403998734565021,0.7664063,9.7621,-0.2706372
403998744491806,0.73527104,9.915381,-0.17962648
403998754418719,0.68737066,9.992022,-0.17483643
403998764345504,0.6346801999999999,9.939331,-0.25866213
403998774279335,0.63707525,9.77647,-0.3305127
403998784206248,0.7232959,9.6615095,-0.364043
403998794133161,0.7759864000000001,9.699829,-0.27542725
403998804060074,0.72569096,9.845925,-0.16525635
403998813986987,0.68976563,9.867481,-0.11017089999999999
403998823914028,0.7161109,9.836346,-0.14130616
403998833840941,0.71371585,9.845925,-0.24668702
403998843767854,0.70174074,9.793235000000001,-0.33290774
403998853694750,0.68737066,9.778865,-0.32093263
403998863621662,0.69695073,9.807606,-0.24908204
403998873546282,0.7041358,9.905801,-0.22752686
403998883473194,0.7185059,9.972861,-0.23950197
403998893400106,0.68737066,9.932146000000001,-0.28740236
403998903327018,0.6777906,9.79084,-0.31135255
403998913253930,0.732876,9.692644,-0.3305127
403998923180842,0.76880133,9.793235000000001,-0.2682422
403998933107754,0.72569096,9.927357,-0.19399660000000002
403998943034538,0.68976563,9.944121,-0.18441652
403998952961450,0.69695073,9.891430999999999,-0.23231691
403998962888362,0.7065308000000001,9.853110000000001,-0.28979737
403998972816847,0.6682104999999999,9.889036,-0.30177248
403998982743759,0.62510014,9.927357,-0.26345217
403998992670671,0.61552006,9.884246000000001,-0.22513184
403999002597583,0.68018556,9.793235000000001,-0.20357667
403999012524623,0.7041358,9.831555,-0.2083667
403999022451535,0.75203615,9.8938265,-0.20357667
403999032378448,0.73527104,9.936936,-0.19639161
403999042305361,0.73527104,9.905801,-0.18441652
403999052232274,0.76401126,9.884246000000001,-0.16046631
403999062159187,0.7711963000000001,9.83874,-0.1820215
403999072076308,0.74724615,9.831555,-0.18441652
403999082003221,0.7592211999999999,9.896221,-0.13891114
403999091930000,0.7711963000000001,9.972861,-0.102985844
403999101856912,0.79035646,10.008787,-0.10538086
403999111783696,0.7711963000000001,10.037527,-0.12693603
403999121710608,0.77359134,10.030342,-0.12454102
403999131637520,0.74724615,9.939331,-0.15328126
403999141564304,0.7951465,9.845925,-0.15567628
403999151491216,0.8286768,9.867481,-0.1341211
403999161418000,0.8334668,9.920172,-0.081430666
403999171345735,0.8430469,9.881851,-0.07185059
403999181272647,0.85741705,9.821976,-0.102985844
403999191199431,0.8813671999999999,9.841136,-0.06945557
403999201126343,0.8646021,9.927357,-0.05508545
403999211053255,0.8334668,9.956097,-0.07424561
403999220983832,0.79993653,9.891430999999999,-0.07903565
403999230910745,0.82388675,9.841136,-0.09101075
403999240837530,0.90052736,9.812395,-0.09101075
403999250764443,0.855022,9.896221,-0.06945557
403999260691356,0.82388675,9.881851,-0.07903565
403999270621919,0.8214916999999999,9.826766000000001,-0.1341211
403999280548832,0.8430469,9.855506,-0.119750984
403999290475745,0.8598120000000001,9.841136,-0.07424561
403999300402658,0.8167017,9.833950999999999,-0.098195806
403999310329571,0.81191164,9.862691,-0.083825685
403999320256484,0.8669971,9.939331,-0.08861572
403999330183397,0.80233157,9.956097,-0.100590825
403999340110310,0.7544312,9.8938265,-0.12693603
403999350037223,0.76161623,9.831555,-0.16046631
403999359964136,0.7759864000000001,9.79084,-0.17483643
403999369885357,0.76880133,9.77168,-0.16765137
403999379812270,0.7831714,9.769285,-0.1580713
403999389739055,0.71371585,9.798025,-0.17723145
403999399665840,0.72569096,9.798025,-0.19160157
403999409592753,0.69695073,9.812395,-0.16525635
403999419519538,0.6514453,9.865086,-0.16525635
403999429446451,0.61073,9.896221,-0.13651612
403999439373236,0.6466553,9.7740755,-0.17483643
403999449300021,0.69695073,9.766891000000001,-0.20118165
403999459226912,0.72569096,9.769285,-0.1580713
403999469153697,0.75203615,9.77168,-0.18681154
403999479080804,0.7209009,9.802814999999999,-0.20597169
403999489007717,0.7065308000000001,9.814791,-0.21076173
403999498934502,0.68976563,9.831555,-0.20357667
403999508861287,0.74006104,9.829161000000001,-0.19639161
403999518788200,0.7041358,9.845925,-0.12454102
403999528714985,0.6682104999999999,9.841136,-0.1341211
403999538641770,0.62031007,9.812395,-0.16525635
403999548568683,0.5987549,9.817185,-0.16286133
403999558495468,0.5556446,9.81,-0.11017089999999999
403999568422253,0.54366946,9.821976,-0.119750984
403999578350798,0.5843848,9.845925,-0.1341211
403999588277711,0.61073,9.829161000000001,-0.14370118
403999598204496,0.6394701999999999,9.807606,-0.13651612
403999608131409,0.66342044,9.79084,-0.15567628
403999618058194,0.7041358,9.843531,-0.14130616
403999627985107,0.6586304000000001,9.8866415,-0.07903565
403999637912020,0.6346801999999999,9.884246000000001,-0.10538086
403999647838805,0.6682104999999999,9.891430999999999,-0.17004639
403999657765718,0.72569096,9.929751,-0.19399660000000002
403999667692503,0.74724615,9.989627,-0.19639161
403999677617928,0.76161623,9.994417,-0.20357667
403999687544713,0.74006104,10.027947,-0.13891114
403999697471602,0.6825806,10.018367,-0.07424561
403999707398387,0.6562354,9.975257000000001,-0.10777588
403999717325172,0.6179150999999999,9.865086,-0.13891114
403999727251957,0.6442603,9.79084,-0.14849122
403999737178870,0.69216067,9.783655,-0.12933107
403999747105655,0.8334668,9.78605,-0.102985844
403999757032440,0.6658155,9.898616,-0.031135255
403999766959225,0.57719976,9.898616,-0.06466553
403999776884508,0.6011499,9.826766000000001,-0.122146
403999786811293,0.62749517,9.874666,-0.17483643
403999796738078,0.58677983,9.872271000000001,-0.22752686
403999806664863,0.55803955,9.81958,-0.24908204
403999816591648,0.5676197,9.788445,-0.22752686
403999826518433,0.57959473,9.764495,-0.17483643
403999836445205,0.5891748,9.766891000000001,-0.1460962
403999846371989,0.59156984,9.829161000000001,-0.1460962
403999856298773,0.5245093000000001,9.903406,-0.102985844
403999866225557,0.5005590999999999,9.951306,-0.07903565
403999876153188,0.51492923,9.920172,-0.13172609
403999886079972,0.51732427,9.7740755,-0.15567628
403999896006756,0.5556446,9.687855,-0.15088624
403999905933540,0.5891748,9.733359,-0.08861572
403999915860324,0.5556446,9.843531,-0.07903565
403999925787108,0.48139894,9.905801,-0.083825685
403999935713892,0.4382886,9.853110000000001,-0.08861572
403999945640676,0.3903882,9.7812605,-0.11256592
403999955567460,0.40715334,9.745335,-0.10777588
403999965494244,0.46463382,9.759705,-0.09580079
403999975431469,0.4263135,9.726174,-0.07664063
403999985358381,0.4047583,9.759705,-0.045505375
403999995285166,0.43349856,9.869876,-0.043110352000000005
404000005212079,0.43110353,9.901011,-0.05269043
404000015138992,0.3784131,9.81958,-0.07903565
404000025065905,0.4263135,9.742939999999999,-0.08861572
404000034992818,0.46702883,9.740545,-0.016765138
404000044919603,0.49816409999999994,9.872271000000001,0.0023950195999999997
404000054846516,0.49097902,9.946517,0.033530276
404000064773421,0.42870852,9.879456,-0.019160157
404000074696572,0.4526587,9.750125,-0.09101075
404000084623356,0.49337405,9.721385,-0.15567628
404000094550268,0.5029541000000001,9.77168,-0.083825685
404000104477180,0.46942386,9.831555,-0.019160157
404000114404092,0.40715334,9.865086,0.016765138
404000124330876,0.39278322,9.836346,-0.031135255
404000134257788,0.39757326,9.7812605,-0.08622070400000001
404000144184700,0.39517823,9.78605,-0.06945557
404000154111612,0.41194338,9.860296,-0.021555176000000002
404000164038524,0.44786867,9.968072,-0.0023950195999999997
404000173962888,0.45026368,9.970467,0.014370117
404000183889672,0.47900394,9.956097,-0.019160157
404000193816457,0.5340894,10.008787,-0.040715333
404000203743370,0.55324954,10.080638,-0.07903565
404000213670155,0.5556446,10.087823,-0.12933107
404000223597068,0.48618898,9.975257000000001,-0.1820215
404000233523853,0.46942386,9.742939999999999,-0.19639161
404000243450766,0.57001466,9.666299,-0.18441652
404000253377551,0.58677983,9.75731,-0.05748047
404000263304336,0.47900394,9.869876,0.028740235
404000273236581,0.4526587,9.905801,0.019160157
404000283163494,0.5005590999999999,10.018367,0.045505375
404000293090407,0.5388794,10.133328,0.047900394000000006
404000303017320,0.57719976,10.121353,-0.038320314
404000312944233,0.6322852,10.037527,-0.06706055
404000322871146,0.6442603,10.018367,-0.019160157
404000332798059,0.6514453,9.956097,-0.040715333
404000342724972,0.62989014,9.843531,-0.19639161
404000352651885,0.5676197,9.769285,-0.38080812
404000362578798,0.55803955,9.73815,-0.41912845
404000372505483,0.6011499,9.798025,-0.26345217
404000382432524,0.6586304000000001,9.843531,0.023950197000000003
404000392359437,0.6658155,9.869876,0.22992188
404000402286350,0.68018556,9.915381,0.2778223
404000412213263,0.6394701999999999,9.992022,0.20357667
404000422140153,0.6179150999999999,10.003997,0.07424561
404000432067066,0.5987549,9.958491,-0.08861572
404000441994107,0.6610254,9.896221,-0.17483643
404000451921020,0.70174074,9.896221,-0.17004639
404000461847933,0.728086,9.891430999999999,-0.14849122
404000471773972,0.74006104,9.867481,-0.117355965
404000481700885,0.7424561,9.865086,-0.05748047
404000491627798,0.6777906,9.817185,-0.021555176000000002
404000501554839,0.6394701999999999,9.7740755,0.011975098
404000511481752,0.6514453,9.7812605,0.043110352000000005
404000521408665,0.6777906,9.855506,0.05269043
404000531335578,0.63707525,9.879456,0.014370117
404000541262491,0.6442603,9.862691,-0.031135255
404000551189532,0.6849755999999999,9.879456,-0.05748047
404000561116445,0.6993457,9.872271000000001,-0.11017089999999999
404000571043704,0.66342044,9.78605,-0.1460962
404000580970617,0.6849755999999999,9.718989,-0.17483643
404000590897530,0.7783814,9.70941,-0.14849122
404000600824571,0.7759864000000001,9.759705,-0.083825685
404000610751484,0.7568262,9.788445,-0.06945557
404000620678397,0.7496411000000001,9.783655,-0.083825685
404000630605438,0.7424561,9.788445,-0.07664063
404000640532351,0.7496411000000001,9.836346,-0.033530276
404000650459264,0.7544312,9.903406,-0.05508545
404000660386282,0.76161623,9.912986,-0.047900394000000006
404000670307195,0.7424561,9.908196,-0.102985844
404000680234108,0.7209009,9.920172,-0.1460962
404000690161021,0.71371585,9.850716,-0.20357667
404000700087806,0.728086,9.766891000000001,-0.22752686
404000710014719,0.7807764,9.750125,-0.22513184
404000719941504,0.7951465,9.750125,-0.16525635
404000729868417,0.80712163,9.829161000000001,-0.10538086
404000739795202,0.76401126,9.8866415,-0.09340577
404000749722115,0.7592211999999999,9.884246000000001,-0.122146
404000759648900,0.79754156,9.860296,-0.13172609
404000769576165,0.8143066999999999,9.83874,-0.12933107
404000779503078,0.81191164,9.872271000000001,-0.1341211
404000789429991,0.8286768,9.963282000000001,-0.11017089999999999
404000799356776,0.7879615,9.989627,-0.06706055
404000809283689,0.7568262,9.934542,-0.13651612
404000819210474,0.7807764,9.83874,-0.23710695
404000829137387,0.7807764,9.742939999999999,-0.23231691
404000839064172,0.8095166,9.7621,-0.13891114
404000848991068,0.8167017,9.853110000000001,-0.07185059
404000858917852,0.76880133,9.987232,-0.019160157
404000868851237,0.75203615,10.025552000000001,-0.043110352000000005
404000878778149,0.76880133,9.970467,-0.100590825
404000888705061,0.79035646,9.960887,-0.16286133
404000898631973,0.7664063,9.910591,-0.1820215
404000908558885,0.76161623,9.795630000000001,-0.15088624
404000918485797,0.8095166,9.74773,-0.100590825
404000928412709,0.79993653,9.821976,-0.045505375
404000938339621,0.76401126,9.908196,-0.031135255
404000948266533,0.7568262,9.927357,-0.08861572
404000958193445,0.73527104,9.908196,-0.117355965
404000968114343,0.7185059,9.891430999999999,-0.119750984
404000978041127,0.76161623,9.896221,-0.06466553
404000987968039,0.77359134,9.915381,-0.014370117
404000997894951,0.7376661,9.999207,0.011975098
404001007821735,0.73527104,10.0063925,-0.033530276
404001017748647,0.71371585,9.929751,-0.117355965
404001027675431,0.69695073,9.862691,-0.17004639
404001037602344,0.7232959,9.74773,-0.18441652
404001047529129,0.73527104,9.735755000000001,-0.09340577
404001057456042,0.7544312,9.845925,0.009580079
404001067382827,0.7161109,9.929751,0.098195806
404001077309186,0.6706055000000001,9.944121,0.023950197000000003
404001087236099,0.6442603,9.915381,-0.102985844
404001097162884,0.64186525,9.867481,-0.16286133
404001107089789,0.6825806,9.769285,-0.16046631
404001117016573,0.7232959,9.798025,-0.13651612
404001126943485,0.6993457,9.929751,-0.059875492
404001136870269,0.68018556,9.922566,-0.028740235
404001146797181,0.6490503000000001,9.865086,-0.102985844
404001156723965,0.66342044,9.81,-0.17483643
404001166650877,0.6945557,9.798025,-0.16525635
404001176578112,0.6658155,9.81,-0.122146
404001186505024,0.6514453,9.877061,-0.050295413
404001196431808,0.6562354,9.939331,-0.035925295
404001206358720,0.68737066,9.992022,-0.050295413
404001216285504,0.7185059,9.936936,-0.12693603
404001226212416,0.6562354,9.82437,-0.17483643
404001236139200,0.6466553,9.754914999999999,-0.1460962
404001246066112,0.6490503000000001,9.788445,-0.122146
404001255992896,0.6730005,9.879456,-0.07424561
404001265919808,0.6849755999999999,9.972861,-0.045505375
404001275841984,0.6682104999999999,10.035132,-0.07185059
404001285768768,0.6562354,9.984836999999999,-0.17004639
404001295695552,0.6849755999999999,9.853110000000001,-0.2083667
404001305622464,0.7209009,9.845925,-0.16525635
404001315549248,0.6945557,9.922566,-0.07664063
404001325476032,0.6442603,9.865086,-0.06706055
404001335402816,0.6610254,9.79084,-0.08861572
404001345329600,0.67539555,9.82437,-0.117355965
404001355256385,0.6466553,9.879456,-0.10777588
404001365183298,0.6179150999999999,9.934542,-0.11256592
404001375105027,0.61073,9.917776,-0.119750984
404001385031684,0.6011499,9.853110000000001,-0.083825685
404001394958469,0.6514453,9.81958,-0.07424561
404001404885254,0.66342044,9.867481,-0.100590825
404001414811911,0.6346801999999999,9.915381,-0.06945557
404001424738696,0.5963599,9.8866415,-0.045505375
404001434665472,0.5676197,9.814791,-0.083825685
404001444592256,0.6322852,9.831555,-0.12693603
404001454518912,0.6227050999999999,9.953702,-0.08622070400000001
404001464445696,0.5676197,9.992022,-0.06227051
404001474375919,0.58198977,9.910591,-0.05269043
404001484302703,0.57959473,9.853110000000001,-0.07903565
404001494229487,0.5891748,9.934542,-0.12933107
404001504156271,0.5724097,9.936936,-0.14130616
404001514083055,0.5508545,9.82437,-0.16765137
404001524009711,0.6059399999999999,9.718989,-0.17723145
404001533936495,0.6466553,9.697434,-0.1341211
404001543863279,0.6466553,9.764495,-0.12693603
404001553790063,0.5939649,9.7621,-0.098195806
404001563719349,0.54366946,9.704619000000001,-0.081430666
404001573649596,0.55324954,9.730965,-0.08622070400000001
404001583576381,0.5484595,9.826766000000001,-0.047900394000000006
404001593503166,0.53169435,9.879456,-0.026345216
404001603430079,0.5628295999999999,9.833950999999999,-0.05269043
404001613356864,0.61073,9.826766000000001,-0.09340577
404001623283777,0.6179150999999999,9.874666,-0.07664063
404001633210562,0.57959473,9.881851,-0.11017089999999999
404001643137475,0.52690434,9.795630000000001,-0.12693603
404001653064260,0.5556446,9.726174,-0.13172609
404001662991173,0.57719976,9.77647,-0.119750984
404001672917420,0.5724097,9.920172,-0.081430666
404001682844205,0.50534916,9.989627,-0.023950197000000003
404001692771118,0.46463382,9.848321,-0.05269043
404001702697903,0.57959473,9.72378,-0.11017089999999999
404001712624688,0.61552006,9.783655,-0.07903565
404001722551473,0.51492923,9.8866415,-0.011975098
404001732478258,0.45505372,9.910591,-0.0071850587
404001742405043,0.49816409999999994,9.872271000000001,-0.07664063
404001752331956,0.50774413,9.841136,-0.09101075
404001762258741,0.51492923,9.80521,-0.09101075
404001772186110,0.54366946,9.783655,-0.09580079
404001782112895,0.58198977,9.83874,-0.021555176000000002
404001792039808,0.54366946,9.848321,0.07903565
404001801966571,0.51492923,9.915381,0.07664063
404001811893356,0.4766089,9.965676,0.033530276
404001821820141,0.4382886,9.901011,-0.0071850587
404001831746926,0.44307864,9.807606,-0.023950197000000003
404001841673707,0.4622388,9.759705,0.035925295
404001851600619,0.46463382,9.877061,0.06227051
404001861527403,0.46463382,9.999207,0.102985844
404001871457649,0.49337405,10.044711999999999,0.07664063
404001881384561,0.4766089,10.078242,-0.033530276
404001891311345,0.488584,9.915381,-0.12933107
404001901238257,0.51492923,9.745335,-0.1460962
404001911165041,0.60354495,9.75731,-0.09580079
404001921091953,0.6179150999999999,9.922566,-0.0071850587
404001931018865,0.488584,10.027947,0.06466553
404001940945649,0.39996827,9.968072,0.014370117
404001950872561,0.40954837,9.81958,-0.07903565
404001960799345,0.5292993,9.77647,-0.07903565
404001970724483,0.5939649,9.857901,-0.035925295
404001980651267,0.5508545,10.0063925,0.026345216
404001990578051,0.44307864,10.020762,0.014370117
404002000504963,0.45505372,9.836346,-0.11496094
404002010431747,0.5508545,9.707015,-0.2083667
404002020358532,0.58677983,9.826766000000001,-0.19878663
404002030285445,0.4766089,9.968072,-0.045505375
404002040212230,0.4047583,9.924961,-0.023950197000000003
404002050139143,0.47900394,9.821976,-0.05269043
404002060065928,0.5221143,9.857901,-0.038320314
404002069987483,0.54366946,9.881851,-0.047900394000000006
404002079914261,0.5724097,9.917776,-0.083825685
404002089841045,0.55803955,9.944121,-0.059875492
404002099767829,0.5676197,9.905801,-0.05508545
404002109694613,0.59156984,9.812395,-0.11256592
404002119621397,0.58677983,9.77647,-0.12933107
404002129548181,0.5556446,9.726174,-0.05748047
404002139474965,0.5843848,9.7621,-0.0023950195999999997
404002149401749,0.59156984,9.860296,0.06706055
404002159328533,0.5388794,9.970467,0.16286133
404002169235683,0.5125342,9.936936,0.117355965
404002179162339,0.60833496,9.742939999999999,-0.028740235
404002189088867,0.68737066,9.683064,-0.06706055
404002199015523,0.6777906,9.721385,0.0023950195999999997
404002208942051,0.62989014,9.867481,0.11017089999999999
404002218868707,0.5508545,9.941727,0.09580079
404002228795235,0.54366946,9.872271000000001,-0.016765138
404002238721891,0.613125,9.7142,-0.11496094
404002248648419,0.68018556,9.683064,-0.117355965
404002258574947,0.6730005,9.800421,0.05269043
404002268512502,0.6227050999999999,9.884246000000001,0.15328126
404002278439159,0.58677983,9.891430999999999,0.10777588
404002288365816,0.58198977,9.829161000000001,-0.028740235
404002298292473,0.61552006,9.721385,-0.119750984
404002308219130,0.6682104999999999,9.637559,-0.12933107
404002318145787,0.70174074,9.659114,-0.06227051
404002328072444,0.70174074,9.742939999999999,0.098195806
404002337999101,0.6658155,9.860296,0.1580713
404002347925886,0.6346801999999999,9.898616,0.021555176000000002
404002357852543,0.6394701999999999,9.831555,-0.12933107
404002367782936,0.6514453,9.754914999999999,-0.20118165
404002377709721,0.6777906,9.77647,-0.13651612
404002387636378,0.6610254,9.881851,-0.011975098
404002397563163,0.6227050999999999,9.853110000000001,0.05508545
404002407489820,0.62031007,9.733359,-0.040715333
404002417416477,0.6466553,9.697434,-0.083825685
404002427343262,0.68976563,9.766891000000001,-0.05269043
404002437269919,0.6777906,9.862691,-0.019160157
404002447196576,0.6514453,9.924961,0.0023950195999999997
404002457123361,0.6514453,9.932146000000001,0.0047900393
404002467054056,0.68018556,9.891430999999999,-0.07424561
404002476980713,0.6993457,9.77647,-0.16525635
404002486907498,0.7568262,9.735755000000001,-0.17483643
404002496834260,0.728086,9.850716,-0.07664063
404002506761045,0.6466553,9.872271000000001,0.0071850587
404002516687830,0.6466553,9.872271000000001,-0.009580079
404002526614615,0.6825806,9.848321,-0.026345216
404002536541400,0.71371585,9.8866415,-0.021555176000000002
404002546468185,0.72569096,9.963282000000001,-0.019160157
404002556394970,0.6945557,10.044711999999999,-0.0047900393
404002566321755,0.6849755999999999,10.099798,-0.009580079
404002576247310,0.69216067,9.999207,-0.06706055
404002586174095,0.7089258,9.800421,-0.20118165
404002596100880,0.7424561,9.800421,-0.17723145
404002606027665,0.7424561,9.912986,0.05508545
404002615954322,0.68737066,10.025552000000001,0.15328126
404002625881107,0.6586304000000001,10.075847999999999,0.119750984
404002635807892,0.64186525,10.068663,0.07185059
404002645734549,0.7185059,9.948912,0.011975098
404002655661334,0.8143066999999999,9.889036,0.014370117
404002665588119,0.82388675,9.951306,0.047900394000000006
404002675516946,0.75203615,9.994417,0.122146
404002685443731,0.68018556,9.980047,0.11017089999999999
404002695370516,0.732876,9.836346,-0.0047900393
404002705297301,0.75203615,9.898616,-0.031135255
404002715224086,0.7041358,10.030342,0.07424561
404002725150871,0.67539555,10.066267999999999,0.11256592
404002735077634,0.73048097,10.008787,0.098195806
404002745004291,0.74724615,9.960887,0.07903565
404002754931076,0.68976563,9.915381,0.016765138
404002764857861,0.6777906,9.766891000000001,-0.07903565
404002774793600,0.72569096,9.73815,-0.09101075
404002784720513,0.68737066,9.857901,-0.0023950195999999997
404002794647426,0.5987549,9.972861,0.08622070400000001
404002804574211,0.60354495,9.927357,0.033530276
404002814501124,0.6059399999999999,9.841136,-0.0071850587
404002824427909,0.6586304000000001,9.862691,-0.019160157
404002834354812,0.7065308000000001,9.946517,-0.023950197000000003
404002844281724,0.65384036,9.982442,-0.009580079
404002854208508,0.62031007,9.836346,-0.040715333
404002864135420,0.6466553,9.70941,-0.12454102
404002874065140,0.6945557,9.718989,-0.13651612
404002883992052,0.7041358,9.829161000000001,-0.06706055
404002893918964,0.6442603,9.915381,0.038320314
404002903845748,0.62749517,9.903406,0.059875492
404002913772660,0.6658155,9.924961,0.011975098
404002923699572,0.65384036,9.850716,-0.035925295
404002933626484,0.6993457,9.75252,-0.081430666
404002943553268,0.7376661,9.73815,-0.122146
404002953480180,0.7424561,9.795630000000001,-0.06227051
404002963407092,0.68018556,9.7812605,-0.028740235
404002973332212,0.6586304000000001,9.745335,-0.038320314
404002983259124,0.6322852,9.788445,-0.038320314
404002993185908,0.6490503000000001,9.817185,0.009580079
404003003112820,0.69216067,9.845925,0.011975098
404003013039605,0.7592211999999999,9.83874,0.050295413
404003022966518,0.76161623,9.800421,0.021555176000000002
404003032893303,0.76401126,9.788445,0.0023950195999999997
404003042820216,0.84065187,9.726174,-0.045505375
404003052747129,0.8478370000000001,9.788445,-0.023950197000000003
404003062673914,0.728086,9.881851,0.035925295
404003072598559,0.69695073,9.833950999999999,0.026345216
404003082525472,0.7424561,9.802814999999999,0.023950197000000003
404003092452248,0.7831714,9.872271000000001,0.083825685
404003102379160,0.76880133,9.905801,0.1341211
404003112306072,0.7161109,9.915381,0.09101075
404003122232856,0.68018556,9.908196,0.045505375
404003132159768,0.72569096,9.783655,0.06706055
404003142086552,0.76880133,9.77168,0.026345216
404003152013464,0.69216067,9.8866415,0.043110352000000005
404003161940248,0.62510014,9.8866415,0.081430666
404003171863442,0.6706055000000001,9.78605,0.0071850587
404003181790354,0.7041358,9.831555,0.0071850587
404003191717139,0.6394701999999999,9.924961,0.059875492
404003201643924,0.62989014,9.788445,0.023950197000000003
404003211570709,0.6706055000000001,9.683064,-0.009580079
404003221497618,0.7089258,9.733359,0.05269043
404003231424402,0.67539555,9.800421,0.06466553
404003241351186,0.6011499,9.845925,0.043110352000000005
404003251278098,0.61073,9.793235000000001,0.045505375
404003261204882,0.62510014,9.814791,0.06945557
404003271135890,0.6490503000000001,9.917776,0.11496094
404003281062802,0.62510014,9.996812,0.13651612
404003290989586,0.613125,9.932146000000001,0.11256592
404003300916499,0.613125,9.905801,0.045505375
404003310843412,0.56522465,9.874666,0.07185059
404003320770197,0.52690434,9.78605,0.023950197000000003
404003330697110,0.51971924,9.769285,0.031135255
404003340624023,0.52690434,9.82437,0.102985844
404003350550936,0.47900394,9.879456,0.1341211
404003360477721,0.488584,9.920172,0.10538086
404003370407088,0.55324954,9.877061,0.09580079
404003380334001,0.58677983,9.843531,0.038320314
404003390260914,0.5963599,9.802814999999999,-0.033530276
404003400187827,0.55803955,9.74773,-0.05508545
404003410114740,0.5460645000000001,9.742939999999999,-0.040715333
404003420041653,0.5340894,9.869876,-0.016765138
404003429968566,0.5340894,9.965676,0.043110352000000005
404003439895479,0.488584,9.999207,0.031135255
404003449822392,0.51732427,9.980047,0.019160157
404003459749305,0.58677983,9.903406,0.033530276
404003469679756,0.62031007,9.836346,0.028740235
404003479606669,0.62031007,9.83874,0.038320314
404003489533710,0.5843848,9.807606,0.05269043
404003499460623,0.5604346,9.826766000000001,0.05508545
404003509387664,0.5484595,9.972861,0.05748047
404003519314577,0.5292993,10.063872,0.12933107
404003529243449,0.57001466,9.992022,0.17244141
404003539170362,0.66342044,9.917776,0.19399660000000002
404003549097403,0.7089258,9.891430999999999,0.244292
404003559024316,0.68976563,9.83874,0.2778223
404003568946053,0.6346801999999999,9.793235000000001,0.21315674
404003578872966,0.613125,9.7812605,0.11256592
404003588799879,0.59156984,9.853110000000001,0.081430666
404003598726792,0.57719976,9.960887,0.09580079
404003608653833,0.5891748,10.011182000000002,0.13891114
404003618580746,0.6322852,9.929751,0.1341211
404003628507659,0.728086,9.848321,0.10538086
404003638434572,0.7879615,9.831555,0.09340577
404003648361613,0.69695073,9.81958,0.06227051
404003658288526,0.58198977,9.750125,-0.06466553
404003668214937,0.57959473,9.651928999999999,-0.07664063
404003678141850,0.5987549,9.68067,-0.05748047
404003688068763,0.6179150999999999,9.836346,0.0071850587
404003697995676,0.57001466,9.953702,0.08622070400000001
404003707922589,0.59156984,9.951306,0.119750984
404003717849502,0.61073,9.879456,0.1341211
404003727776543,0.65384036,9.75731,0.031135255
404003737703456,0.66342044,9.663903999999999,-0.019160157
404003747630369,0.64186525,9.692644,0.021555176000000002
404003757557282,0.62749517,9.81,0.011975098
404003767475321,0.57959473,9.917776,0.040715333
404003777401978,0.5245093000000001,9.891430999999999,0.10538086
404003787328763,0.5412744,9.841136,0.09580079
404003797255548,0.58677983,9.778865,0.119750984
404003807182205,0.6227050999999999,9.783655,0.13172609
404003817108990,0.61552006,9.759705,0.16046631
404003827035775,0.60354495,9.745335,0.16765137
404003836962553,0.62031007,9.740545,0.09340577
404003846889209,0.60354495,9.807606,0.014370117
404003856815993,0.5843848,9.869876,0.0047900393
404003866746495,0.62031007,9.869876,0.07424561
404003876673407,0.6514453,9.800421,0.081430666
404003886600191,0.6777906,9.764495,0.10777588
404003896526975,0.6825806,9.769285,0.12454102
404003906453759,0.68737066,9.843531,0.122146
404003916380671,0.60833496,9.927357,0.06466553
404003926307455,0.5963599,9.924961,0.028740235
404003936234239,0.6562354,9.903406,0.023950197000000003
404003946161023,0.6706055000000001,9.915381,0.045505375
404003956087935,0.70174074,9.857901,0.028740235
404003966020107,0.7089258,9.853110000000001,0.07185059
404003975947019,0.6825806,9.901011,0.10538086
404003985873803,0.6466553,9.8938265,0.12933107
404003995800715,0.6562354,9.877061,0.050295413
404004005727627,0.6825806,9.915381,0.009580079
404004015654411,0.6730005,9.934542,0.07424561
404004025581323,0.7041358,9.879456,0.102985844
404004035508235,0.73048097,9.833950999999999,0.07664063
404004045435019,0.68976563,9.867481,0.11256592
404004055361931,0.6658155,9.898616,0.117355965
404004065288240,0.6610254,9.853110000000001,0.06227051
404004075215152,0.6562354,9.800421,0.038320314
404004085141936,0.6610254,9.814791,0.05269043
404004095068849,0.69695073,9.879456,0.13172609
404004104995634,0.7041358,9.970467,0.20357667
404004114922544,0.68018556,10.059082,0.20597169
404004124849456,0.65384036,10.011182000000002,0.09340577
404004134776240,0.6825806,9.807606,-0.009580079
404004144703152,0.76161623,9.6758795,-0.009580079
404004154629936,0.76880133,9.754914999999999,0.045505375
404004164555672,0.7089258,9.877061,0.1341211
404004174482456,0.60354495,9.934542,0.19160157
404004184409240,0.57959473,9.898616,0.12933107
404004194336152,0.65384036,9.857901,0.07424561
404004204262936,0.76401126,9.826766000000001,0.07424561
404004214189848,0.7568262,9.872271000000001,0.10538086
404004224116632,0.7496411000000001,9.829161000000001,0.12693603
404004234043544,0.732876,9.778865,0.11017089999999999
404004243970328,0.7448511,9.817185,0.07185059
404004253897112,0.74006104,9.845925,0.035925295
404004263811364,0.72569096,9.898616,-0.011975098
404004273738020,0.6849755999999999,9.915381,0.009580079
404004283664804,0.64186525,9.81958,0.07185059
404004293591460,0.7544312,9.685459,0.06706055
404004303518244,0.7783814,9.730965,0.11017089999999999
404004313444900,0.7065308000000001,9.857901,0.16286133
404004323371684,0.6945557,9.908196,0.100590825
404004333298340,0.69216067,9.867481,0.028740235
404004343224996,0.6730005,9.75731,-0.023950197000000003
404004353151780,0.7065308000000001,9.70941,-0.021555176000000002
404004363084584,0.7496411000000001,9.7740755,0.026345216
404004373011368,0.7544312,9.845925,0.07424561
404004382938152,0.728086,9.896221,0.07424561
404004392864936,0.7113208000000001,9.889036,0.09101075
404004402791720,0.7041358,9.862691,0.028740235
404004412718504,0.73527104,9.800421,-0.016765138
404004422645288,0.7664063,9.800421,-0.014370117
404004432572072,0.7568262,9.879456,0.05508545
404004442498856,0.76880133,9.872271000000001,0.12693603
404004452425768,0.79035646,9.845925,0.081430666
404004462360121,0.7831714,9.81958,0.040715333
404004472287034,0.6658155,9.807606,0.08622070400000001
404004482213947,0.69695073,9.704619000000001,0.06466553
404004492140860,0.8095166,9.72857,0.10777588
404004502067773,0.7807764,9.855506,0.17962648
404004511994558,0.7089258,9.845925,0.19878663
404004521921471,0.7424561,9.73815,0.13891114
404004531848384,0.76880133,9.75731,0.07664063
404004541775297,0.80233157,9.77168,0.06945557
404004551702072,0.7759864000000001,9.80521,0.081430666
404004561629407,0.7424561,9.879456,0.12693603
404004571556319,0.77359134,9.965676,0.16765137
404004581483231,0.7783814,9.956097,0.098195806
404004591410143,0.75203615,9.992022,0.09340577
404004601337055,0.7185059,9.901011,0.05508545
404004611263967,0.7089258,9.75252,0.05269043
404004621190879,0.7664063,9.793235000000001,0.06945557
404004631117791,0.70174074,9.853110000000001,0.15567628
404004641044575,0.6514453,9.845925,0.20357667
404004650971487,0.6945557,9.81,0.15567628
404004660905676,0.69695073,9.778865,0.09101075
404004670832588,0.69695073,9.769285,0.050295413
404004680759500,0.7161109,9.836346,0.10777588
404004690686412,0.67539555,9.939331,0.1820215
404004700613452,0.67539555,10.001602,0.18681154
404004710540364,0.6059399999999999,10.138117999999999,0.16525635
404004720467276,0.6706055000000001,10.042317,0.10777588
404004730394316,0.73048097,9.946517,0.07424561
404004740321228,0.6825806,10.013577,0.081430666
404004750248140,0.6658155,10.054293,0.14849122
404004760175180,0.6562354,9.975257000000001,0.22752686
404004770106212,0.60354495,9.865086,0.22992188
404004780033252,0.60833496,9.812395,0.14130616
404004789960165,0.63707525,9.936936,0.17962648
404004799887206,0.57001466,10.061478,0.2921924
404004809814119,0.5484595,9.965676,0.2706372
404004819741160,0.58677983,9.836346,0.20118165
404004829668073,0.63707525,9.934542,0.23231691
404004839595114,0.60833496,9.932146000000001,0.26345217
404004849522027,0.60354495,9.848321,0.17004639
404004859449068,0.60354495,9.936936,0.16286133
404004869383227,0.5388794,10.0063925,0.20597169
404004879310396,0.5364844,9.862691,0.122146
404004889237437,0.60354495,9.798025,0.06227051
404004899164467,0.61552006,9.881851,0.1580713
404004909091507,0.6322852,9.956097,0.20118165
404004919018547,0.62989014,9.975257000000001,0.17723145
404004928945587,0.5724097,9.853110000000001,0.07664063
404004938872755,0.55324954,9.73815,0.021555176000000002
404004948799795,0.64186525,9.75731,0.019160157
404004958726835,0.68737066,9.848321,0.098195806
404004968652996,0.6442603,9.912986,0.13651612
404004978580036,0.60833496,9.793235000000001,0.122146
404004988507076,0.62031007,9.745335,0.05748047
404004998434116,0.6849755999999999,9.72378,0.043110352000000005
404005008361284,0.6825806,9.718989,0.016765138
404005018288324,0.68018556,9.695039999999999,-0.026345216
404005028215364,0.66342044,9.6758795,0.021555176000000002
404005038142404,0.69216067,9.702225,0.011975098
404005048069572,0.76880133,9.795630000000001,0.0047900393
404005057996612,0.7376661,9.889036,0.0
404005067903318,0.65384036,9.795630000000001,-0.019160157
404005077830230,0.68976563,9.651928999999999,-0.047900394000000006
404005087757142,0.7496411000000001,9.625584,0.0071850587
404005097684054,0.81191164,9.711803999999999,0.119750984
404005107610967,0.76401126,9.855506,0.14130616
404005117537880,0.66342044,9.901011,0.098195806
404005127464793,0.6945557,9.795630000000001,0.028740235
404005137391706,0.78556645,9.692644,0.0
404005147318619,0.79035646,9.707015,0.05508545
404005157245532,0.72569096,9.793235000000001,0.16046631
404005167162473,0.6682104999999999,9.788445,0.21555176
404005177089258,0.73527104,9.78605,0.19399660000000002
404005187016043,0.7496411000000001,9.857901,0.17723145
404005196942690,0.71371585,9.917776,0.1341211
404005206869474,0.69216067,9.903406,0.13172609
404005216796258,0.7089258,9.73815,0.1820215
404005226723042,0.732876,9.635164,0.22992188
404005236649826,0.72569096,9.627979,0.24189699
404005246576610,0.6993457,9.730965,0.25387207
404005256503394,0.62031007,9.874666,0.2562671
404005266434341,0.57001466,9.879456,0.23710695
404005276361125,0.5748047,9.848321,0.16286133
404005286287909,0.6179150999999999,9.860296,0.19878663
404005296214821,0.7185059,9.869876,0.22992188
404005306141605,0.7209009,9.922566,0.23231691
404005316068389,0.62031007,9.922566,0.23710695
404005325995173,0.5364844,9.77168,0.15567628
404005335921957,0.55324954,9.72857,0.059875492
404005345848869,0.5891748,9.836346,0.07903565
404005355775653,0.52690434,9.922566,0.1820215
404005365700898,0.5005590999999999,9.812395,0.21794678
404005375627682,0.5987549,9.75252,0.23710695
404005385554466,0.65384036,9.814791,0.24908204
404005395481250,0.57719976,9.901011,0.19639161
404005405408035,0.51492923,9.884246000000001,0.06466553
404005415334948,0.5292993,9.901011,0.06227051
404005425261733,0.5987549,9.901011,0.17004639
404005435188518,0.6490503000000001,9.817185,0.15567628
404005445115303,0.6777906,9.769285,0.12454102
404005455042088,0.6442603,9.793235000000001,0.21555176
404005464967443,0.66342044,9.896221,0.30416748
404005474894221,0.6993457,10.068663,0.28979737
404005484821005,0.60833496,10.152488,0.2083667
404005494747789,0.56522465,10.003997,0.119750984
404005504674573,0.6514453,9.740545,0.07185059
404005514601229,0.81909674,9.671089,0.11256592
404005524528013,0.8813671999999999,9.841136,0.26584718
404005534454797,0.74724615,10.073453,0.35925296
404005544381581,0.60354495,10.085427000000001,0.2945874
404005554308365,0.5891748,9.927357,0.16286133
404005564237213,0.6945557,9.78605,0.083825685
404005574163997,0.79035646,9.867481,0.15088624
404005584090781,0.7544312,9.941727,0.27542725
404005594017565,0.68018556,9.920172,0.31135255
404005603944477,0.7232959,9.795630000000001,0.2706372
404005613871261,0.7807764,9.812395,0.18920656
404005623798045,0.7448511,9.934542,0.12933107
404005633724829,0.613125,9.968072,0.16046631
404005643651613,0.5987549,9.82437,0.18681154
404005653578397,0.6825806,9.75252,0.244292
404005663503886,0.69216067,9.879456,0.27303225
404005673430670,0.6849755999999999,10.008787,0.19399660000000002
404005683357454,0.6586304000000001,10.063872,0.08861572
404005693284238,0.5987549,9.956097,-0.0071850587
404005703211022,0.65384036,9.685459,-0.043110352000000005
404005713137806,0.69695073,9.644744000000001,0.043110352000000005
404005723064590,0.69216067,9.7142,0.23471193
404005732991374,0.6346801999999999,9.821976,0.28979737
404005742918158,0.56522465,9.915381,0.26345217
404005752844942,0.56522465,10.008787,0.22034179999999998
404005762770974,0.61073,10.025552000000001,0.15328126
404005772697758,0.6682104999999999,9.879456,0.05748047
404005782624542,0.73048097,9.75731,0.06945557
404005792551326,0.6993457,9.690249,0.17723145
404005802477982,0.6777906,9.685459,0.244292
404005812404766,0.6322852,9.812395,0.17723145
404005822334590,0.57001466,10.018367,0.13651612
404005832261374,0.49097902,10.032737,0.1341211
404005842188158,0.61073,9.841136,0.05508545
404005852114942,0.732876,9.77647,0.083825685
404005862034714,0.8167017,9.800421,0.19399660000000002
404005871961370,0.80233157,9.766891000000001,0.22273682
404005881888026,0.728086,9.754914999999999,0.11496094
404005891814682,0.6706055000000001,9.7621,-0.035925295
404005901741338,0.66342044,9.711803999999999,-0.083825685
404005911667994,0.7113208000000001,9.711803999999999,-0.098195806
404005921594650,0.7783814,9.735755000000001,-0.0047900393
404005931521306,0.76401126,9.877061,0.244292
404005941447834,0.76161623,9.924961,0.34248779999999995
404005951374490,0.7711963000000001,9.788445,0.22752686
404005961305967,0.73527104,9.673484,0.043110352000000005
404005971232623,0.7209009,9.759705,-0.0023950195999999997
404005981159279,0.728086,9.821976,0.035925295
404005991085935,0.7711963000000001,9.778865,0.09580079
404006001012591,0.82388675,9.80521,0.19399660000000002
404006010939247,0.8598120000000001,9.8938265,0.26584718
404006020865903,0.8382569,9.903406,0.28261232
404006030792559,0.7711963000000001,9.821976,0.17004639
404006040719215,0.73048097,9.6686945,0.10538086
404006050645999,0.7568262,9.620794,0.16286133
404006060572694,0.77359134,9.740545,0.22034179999999998
404006070499478,0.7185059,9.946517,0.27303225
404006080426134,0.69216067,10.027947,0.28979737
404006090352790,0.7113208000000001,9.965676,0.23471193
404006100279446,0.732876,9.860296,0.20357667
404006110206102,0.7951465,9.769285,0.19399660000000002
404006120132758,0.7568262,9.79084,0.26584718
404006130059542,0.68976563,9.788445,0.34727785
404006139986198,0.6562354,9.7812605,0.32332766
404006149912854,0.5939649,9.862691,0.25866213
404006159842521,0.55324954,9.994417,0.21555176
404006169769177,0.51492923,9.958491,0.28261232
404006179695833,0.6059399999999999,9.850716,0.28261232
404006189622489,0.67539555,9.821976,0.27303225
404006199549146,0.6179150999999999,9.800421,0.30416748
404006209475931,0.6227050999999999,9.745335,0.31853762
404006219402588,0.5388794,9.881851,0.34009278
404006229329245,0.51013917,10.054293,0.30895755
404006239255902,0.46942386,10.116563000000001,0.20597169
404006249182687,0.45744875,10.008787,0.1460962
404006259122768,0.5125342,9.766891000000001,0.17723145
404006269049545,0.63707525,9.632769,0.2562671
404006278976457,0.6730005,9.730965,0.38080812
404006288903241,0.5292993,9.963282000000001,0.39517823
404006298830153,0.31853762,10.059082,0.34488282
404006308756937,0.364043,9.934542,0.20118165
404006318683849,0.49576905,9.862691,0.14370118
404006328610633,0.6466553,9.81958,0.20118165
404006338537545,0.6706055000000001,9.845925,0.28261232
404006348464329,0.57001466,9.860296,0.35925296
404006358398773,0.5125342,9.788445,0.28500733
404006368325685,0.48139894,9.735755000000001,0.16286133
404006378252597,0.51732427,9.778865,0.06466553
404006388179637,0.52690434,9.884246000000001,0.11017089999999999
404006398106549,0.57719976,9.932146000000001,0.22034179999999998
404006408033589,0.6825806,9.898616,0.3161426
404006417960502,0.6993457,9.941727,0.30895755
404006427887415,0.6610254,9.81958,0.20118165
404006437814456,0.5963599,9.685459,0.083825685
404006447741369,0.60833496,9.599238,0.040715333
404006457674514,0.69216067,9.75731,0.09340577
404006467601683,0.68976563,10.044711999999999,0.20357667
404006477528724,0.62510014,10.116563000000001,0.21794678
404006487455765,0.60833496,9.845925,0.09340577
404006497382934,0.76161623,9.544153,-0.047900394000000006
404006507309975,0.91010743,9.527389,-0.016765138
404006517237016,0.8334668,9.733359,0.16525635
404006527164174,0.69216067,9.927357,0.22034179999999998
404006537091214,0.5748047,10.035132,0.16765137
404006547018382,0.57959473,10.030342,0.07185059
404006556944865,0.72569096,9.972861,-0.019160157
404006566871905,0.80233157,9.881851,-0.05748047
404006576799073,0.7424561,9.70941,0.06227051
404006586726241,0.7879615,9.544153,0.12454102
404006596653281,0.8430469,9.6686945,0.20357667
404006606580449,0.7065308000000001,10.054293,0.2802173
404006616507617,0.59156984,10.186019,0.23231691
404006626434657,0.58677983,10.032737,0.09340577
404006636361825,0.76401126,9.77647,0.045505375
404006646288993,0.9388476999999998,9.704619000000001,0.16286133
404006656204568,0.84065187,9.78605,0.37362307
404006666131480,0.7496411000000001,9.666299,0.34248779999999995
404006676058392,0.7185059,9.64714,0.25866213
404006685985432,0.70174074,9.829161000000001,0.23231691
404006695912344,0.6490503000000001,10.039923,0.21315674
404006705839256,0.60833496,10.066267999999999,0.18920656
404006715766296,0.6490503000000001,9.874666,0.13172609
404006725693208,0.7544312,9.654325,0.2706372
404006735620120,0.87897223,9.673484,0.35925296
404006745547032,0.7544312,9.867481,0.38320315
404006755476270,0.5484595,9.932146000000001,0.3544629
404006765403310,0.47900394,9.843531,0.19160157
404006775330222,0.5628295999999999,9.788445,0.098195806
404006785257134,0.6059399999999999,9.831555,0.12693603
404006795184174,0.5963599,9.70941,0.22992188
404006805111086,0.62510014,9.541758999999999,0.26105714
404006815037998,0.68737066,9.596844,0.3281177
404006824965038,0.5676197,9.829161000000001,0.4023633
404006834891950,0.44307864,9.881851,0.26345217
404006844818862,0.44068359999999995,9.817185,0.08622070400000001
404006854747515,0.49576905,9.754914999999999,0.026345216
404006864674427,0.6227050999999999,9.726174,0.10538086
404006874601467,0.7232959,9.740545,0.23231691
404006884528507,0.68737066,9.850716,0.3161426
404006894455419,0.60354495,9.874666,0.30177248
404006904382459,0.5364844,9.798025,0.21076173
404006914309371,0.52690434,9.74773,0.098195806
404006924236411,0.5221143,9.7621,0.14130616
404006934163451,0.6011499,9.721385,0.21315674
404006944090363,0.6993457,9.788445,0.30895755
404006954014910,0.71371585,9.932146000000001,0.39996827
404006963941822,0.6490503000000001,9.958491,0.34009278
404006973868862,0.6011499,9.857901,0.2083667
404006983795774,0.5963599,9.671089,0.12933107
404006993722814,0.68976563,9.601633999999999,0.16765137
404007003649726,0.77359134,9.730965,0.30177248
404007013576638,0.7927515,9.960887,0.38799320000000004
404007023503678,0.7065308000000001,9.975257000000001,0.37122804
404007033430590,0.7496411000000001,9.843531,0.23950197
404007043357630,0.8143066999999999,9.850716,0.16046631
404007053274027,0.74006104,9.958491,0.22273682
404007063200939,0.732876,9.941727,0.28740236
404007073127723,0.7496411000000001,9.860296,0.2778223
404007083054635,0.7927515,9.853110000000001,0.2682422
404007092981547,0.8214916999999999,9.924961,0.2083667
404007102908331,0.8286768,9.987232,0.16286133
404007112835243,0.73048097,10.0063925,0.16286133
404007122762155,0.62749517,9.898616,0.17244141
404007132688939,0.69695073,9.7621,0.19639161
404007142615851,0.7209009,9.872271000000001,0.24908204
404007152536190,0.6610254,9.936936,0.31853762
404007162463102,0.7089258,9.829161000000001,0.19878663
404007172389886,0.7927515,9.891430999999999,0.11017089999999999
404007182316670,0.8047266,10.071057000000001,0.119750984
404007192243454,0.74006104,10.099798,0.14370118
404007202170238,0.68018556,9.953702,0.17244141
404007212097022,0.7185059,9.74773,0.19639161
404007222023806,0.7544312,9.754914999999999,0.19160157
404007231950718,0.7209009,9.8938265,0.25866213
404007241877502,0.62749517,10.037527,0.30895755
404007251803540,0.60354495,10.011182000000002,0.26345217
404007261730324,0.6825806,9.956097,0.17483643
404007271657108,0.7448511,9.982442,0.1460962
404007281583892,0.6682104999999999,9.996812,0.23231691
404007291510676,0.6442603,9.879456,0.20357667
404007301437460,0.70174074,9.7812605,0.1460962
404007311364244,0.6849755999999999,9.821976,0.122146
404007321291028,0.6490503000000001,9.865086,0.098195806
404007331217812,0.6346801999999999,9.843531,0.102985844
404007341144596,0.6658155,9.869876,0.1580713
404007351068074,0.68976563,9.884246000000001,0.20357667
404007360994858,0.6945557,9.836346,0.22273682
404007370921514,0.6394701999999999,9.7740755,0.20118165
404007380848298,0.62749517,9.663903999999999,0.17723145
404007390774954,0.74006104,9.711803999999999,0.14130616
404007400701738,0.75203615,9.920172,0.1580713
404007410628395,0.6682104999999999,10.095008,0.18441652
404007420555180,0.6825806,10.051897,0.19160157
404007430481837,0.732876,9.843531,0.21555176
404007440408622,0.7664063,9.613608000000001,0.22513184
404007450336033,0.7209009,9.572892999999999,0.1820215
404007460262818,0.7041358,9.716595,0.2778223
404007470189475,0.72569096,9.903406,0.364043
404007480116260,0.73527104,9.929751,0.32093263
404007490042917,0.7568262,9.968072,0.20597169
404007499969702,0.7089258,9.992022,0.17483643
404007509896359,0.6825806,9.769285,0.20357667
404007519823016,0.78556645,9.517808,0.19639161
404007529749801,0.7711963000000001,9.635164,0.21076173
404007539676458,0.70174074,9.812395,0.31374758
404007549605545,0.67539555,9.939331,0.2945874
404007559532202,0.6777906,10.011182000000002,0.24908204
404007569458987,0.7544312,9.924961,0.2083667
404007579385772,0.7448511,9.833950999999999,0.23471193
404007589312429,0.7209009,9.735755000000001,0.31135255
404007599239214,0.69216067,9.671089,0.3161426
404007609165871,0.7113208000000001,9.666299,0.28261232
404007619092656,0.71371585,9.862691,0.25387207
404007629019441,0.63707525,10.121353,0.21555176
404007638948128,0.62031007,10.162068,0.1580713
404007648874913,0.66342044,9.987232,0.17962648
404007658799372,0.69695073,9.635164,0.32572266
404007668726029,0.73527104,9.472302,0.2706372
404007678652686,0.66342044,9.644744000000001,0.33769777
404007688579343,0.5963599,9.951306,0.40715334
404007698506000,0.5388794,10.071057000000001,0.31853762
404007708432785,0.57959473,10.037527,0.06945557
404007718359442,0.60354495,9.965676,0.021555176000000002
404007728286099,0.62749517,9.6686945,0.19399660000000002
404007738212756,0.74006104,9.438772,0.23710695
404007748139541,0.7232959,9.484278,0.31374758
404007758069936,0.5939649,9.79084,0.3903882
404007767996593,0.5292993,9.948912,0.3065625
404007777923378,0.53169435,10.018367,0.21076173
404007787850035,0.63707525,9.924961,0.09101075
404007797776820,0.76161623,9.740545,0.12454102
404007807703477,0.7424561,9.6615095,0.26584718
404007817630262,0.7185059,9.6615095,0.34248779999999995
404007827556902,0.6610254,9.642349000000001,0.29698244
404007837483558,0.5724097,9.77168,0.18681154
404007847410342,0.5005590999999999,9.960887,0.13891114
404007857326782,0.5340894,10.003997,0.102985844
404007867253438,0.73048097,9.867481,0.11256592
404007877180094,0.7568262,9.78605,0.22513184
404007887106622,0.7496411000000001,9.620794,0.25866213
404007897033278,0.7376661,9.580078,0.23471193
404007906959934,0.6825806,9.759705,0.22034179999999998
404007916886590,0.613125,9.908196,0.13651612
404007926813246,0.62031007,9.956097,0.05269043
404007936739902,0.6682104999999999,9.936936,0.05508545
404007946666558,0.7232959,9.848321,0.18920656
404007956605287,0.8095166,9.623189,0.26345217
404007966531943,0.80712163,9.601633999999999,0.2682422
404007976458727,0.7089258,9.83874,0.30416748
404007986385511,0.6442603,10.078242,0.2778223
404007996312296,0.65384036,10.150093,0.117355965
404008006238953,0.7161109,10.042317,0.043110352000000005
404008016165738,0.7879615,9.874666,0.050295413
404008026092523,0.8334668,9.721385,0.13891114
404008036019308,0.8598120000000001,9.690249,0.2682422
404008045946093,0.7879615,9.75252,0.34488282
404008055877796,0.6442603,9.927357,0.28261232
404008065804701,0.5724097,10.092611999999999,0.21794678
404008075731485,0.6442603,10.102193,0.16286133
404008085658269,0.7879615,10.018367,0.100590825
404008095585053,0.8143066999999999,9.836346,0.16525635
404008105511837,0.79993653,9.77168,0.23231691
404008115438749,0.75203615,9.79084,0.34009278
404008125365533,0.68737066,9.877061,0.3161426
404008135292317,0.6682104999999999,9.994417,0.23471193
404008145219101,0.65384036,10.066267999999999,0.22034179999999998
404008155150989,0.68976563,10.032737,0.22752686
404008165077901,0.76161623,9.841136,0.25387207
404008175004685,0.80233157,9.72378,0.34009278
404008184931597,0.76161623,9.766891000000001,0.36883304
404008194858381,0.62510014,9.927357,0.34009278
404008204785293,0.57001466,9.996812,0.25387207
404008214712077,0.62989014,9.936936,0.2083667
404008224638989,0.6945557,9.872271000000001,0.18681154
404008234565901,0.68737066,9.857901,0.2706372
404008244492685,0.69216067,9.826766000000001,0.35685793
404008254425647,0.70174074,9.81958,0.42152345
404008264352559,0.6825806,9.83874,0.36883304
404008274279471,0.51013917,9.814791,0.2682422
404008284206383,0.47900394,9.795630000000001,0.24908204
404008294133295,0.6227050999999999,9.884246000000001,0.2802173
404008304060207,0.7424561,10.008787,0.33530274
404008313987119,0.64186525,10.001602,0.32093263
404008323914031,0.58677983,9.793235000000001,0.30416748
404008333840943,0.6011499,9.568104,0.31374758
404008343767855,0.6610254,9.5633135,0.25387207
404008353704780,0.6059399999999999,9.855506,0.26105714
404008363631948,0.48139894,10.061478,0.32093263
404008373558989,0.4766089,9.987232,0.31374758
404008383486030,0.62510014,9.750125,0.20357667
404008393413071,0.6945557,9.651928999999999,0.16765137
404008403340112,0.6179150999999999,9.68067,0.23710695
404008413267153,0.5340894,9.637559,0.28261232
404008423194194,0.60833496,9.644744000000001,0.22034179999999998
404008433121235,0.64186525,9.843531,0.20118165
404008443048268,0.5460645000000001,9.936936,0.19878663
404008452975308,0.613125,9.754914999999999,0.10777588
404008462907332,0.7448511,9.651928999999999,0.09101075
404008472834500,0.7089258,9.695039999999999,0.19878663
404008482761668,0.65384036,9.735755000000001,0.28261232
404008492688708,0.6658155,9.79084,0.30177248
404008502615876,0.70174074,9.850716,0.23471193
404008512543044,0.68976563,9.896221,0.13651612
404008522470084,0.6993457,9.81958,0.06706055
404008532397252,0.78556645,9.692644,0.09101075
404008542324420,0.84544194,9.575289,0.16525635
404008552251460,0.8214916999999999,9.580078,0.2921924
404008562183898,0.8143066999999999,9.79084,0.3161426
404008572111066,0.7448511,9.989627,0.34967285
404008582038362,0.7041358,10.023157000000001,0.28979737
404008591965530,0.7927515,9.924961,0.12933107
404008601892698,0.84065187,9.81,0.11496094
404008611819994,0.87178713,9.70941,0.23231691
404008621747162,0.8933423,9.642349000000001,0.30177248
404008631674330,0.8885523000000001,9.73815,0.34727785
404008641601626,0.76161623,9.917776,0.32332766
404008651528794,0.6179150999999999,10.001602,0.30416748
404008661453363,0.6514453,9.867481,0.21315674
404008671380531,0.7879615,9.769285,0.17004639
404008681307699,0.7927515,9.740545,0.25147706
404008691234867,0.7544312,9.735755000000001,0.34967285
404008701162035,0.7376661,9.764495,0.35925296
404008711089203,0.7209009,9.891430999999999,0.29937744
404008721016371,0.6849755999999999,9.994417,0.22992188
404008730943539,0.58198977,9.970467,0.17483643
404008740870707,0.5292993,9.75731,0.15567628
404008750797875,0.6730005,9.589659,0.27303225
404008760725786,0.8047266,9.704619000000001,0.4167334
404008770653082,0.7089258,10.051897,0.5125342
404008780580250,0.5292993,10.157278,0.46942386
404008790507418,0.48139894,10.044711999999999,0.23710695
404008800434586,0.5508545,9.798025,0.13172609
404008810361754,0.6227050999999999,9.596844,0.20118165
404008820288922,0.6730005,9.64714,0.34488282
404008830216090,0.5843848,9.944121,0.52690434
404008840143258,0.50534916,10.097403,0.6011499
404008850070426,0.46463382,10.035132,0.39517823
404008859995855,0.45984375,9.853110000000001,0.17244141
404008869923024,0.51492923,9.656719,0.22034179999999998
404008879850193,0.60833496,9.671089,0.33530274
404008889777362,0.61073,9.862691,0.4622388
404008899704659,0.52690434,10.013577,0.52690434
404008909631828,0.5005590999999999,9.996812,0.35925296
404008919558997,0.5748047,9.929751,0.18441652
404008929486166,0.64186525,9.879456,0.17483643
404008939413335,0.64186525,9.855506,0.22513184
404008949340495,0.6011499,9.82437,0.37362307
404008959260196,0.63707525,9.855506,0.51013917
404008969187364,0.7113208000000001,9.982442,0.49097902
404008979114532,0.6442603,10.138117999999999,0.34488282
404008989041572,0.5939649,10.037527,0.23231691
404008998968740,0.6490503000000001,9.742939999999999,0.16046631
404009008895780,0.78556645,9.692644,0.17244141
404009018822948,0.87418216,9.855506,0.33769777
404009028749988,0.8310718,10.0063925,0.46942386
404009038677156,0.7089258,10.032737,0.32093263
404009048604196,0.6945557,9.922566,0.16286133
404009058521971,0.7879615,9.8938265,0.09101075
404009068449011,0.8334668,9.920172,0.12693603
404009078376051,0.8095166,9.932146000000001,0.19878663
404009088302963,0.81909674,9.920172,0.244292
404009098228244,0.8334668,9.857901,0.2562671
404009108155285,0.84544194,9.857901,0.21794678
404009118082326,0.8047266,9.912986,0.12454102
404009128009367,0.73527104,9.980047,0.07424561
404009137936408,0.74724615,9.929751,0.17723145
404009147863449,0.83586186,9.833950999999999,0.25387207
404009157781152,0.8813671999999999,9.7812605,0.28500733
404009167708193,0.84544194,9.821976,0.27542725
404009177635106,0.79993653,9.860296,0.28979737
404009187562019,0.76161623,9.877061,0.28261232
404009197488932,0.6993457,9.944121,0.23710695
404009207415973,0.6730005,9.944121,0.21315674
404009217342886,0.75203615,9.841136,0.25387207
404009227269799,0.8167017,9.764495,0.30177248
404009237196712,0.7568262,9.821976,0.34967285
404009247123753,0.66342044,9.843531,0.34488282
404009257049302,0.62510014,9.795630000000001,0.27303225
404009266976215,0.62989014,9.73815,0.2778223
404009276903256,0.61552006,9.73815,0.25147706
404009286830169,0.5939649,9.745335,0.23950197
404009296757082,0.65384036,9.721385,0.2945874
404009306683995,0.6179150999999999,9.745335,0.32572266
404009316610908,0.5748047,9.7621,0.35685793
404009326537821,0.49816409999999994,9.740545,0.29698244
404009336464711,0.4742139,9.726174,0.2802173
404009346391624,0.49576905,9.74773,0.30416748
404009356308611,0.56522465,9.821976,0.30177248
404009366235396,0.5388794,9.860296,0.2945874
404009376162181,0.5221143,9.841136,0.28979737
404009386089094,0.51732427,9.812395,0.34488282
404009396015879,0.5676197,9.817185,0.43110353
404009405942664,0.5604346,9.872271000000001,0.4143384
404009415869577,0.51971924,9.908196,0.40954837
404009425796362,0.46463382,9.951306,0.38799320000000004
404009435723147,0.5005590999999999,9.958491,0.38320315
404009445650060,0.5388794,9.881851,0.43589357
404009455568985,0.48618898,9.845925,0.45505372
404009465495642,0.45984375,9.915381,0.49337405
404009475422299,0.4742139,9.865086,0.5556446
404009485348956,0.4742139,9.7812605,0.51492923
404009495275613,0.51013917,9.769285,0.4263135
404009505202270,0.5292993,9.865086,0.44547364
404009515128927,0.5412744,9.970467,0.4766089
404009525055584,0.5891748,9.905801,0.37362307
404009534982241,0.58198977,9.843531,0.3065625
404009544908898,0.5628295999999999,9.905801,0.37122804
404009554829449,0.5556446,9.939331,0.4023633
404009564755978,0.5748047,9.845925,0.2921924
404009574682614,0.5556446,9.821976,0.23950197
404009584609143,0.51971924,9.867481,0.27542725
404009594535800,0.5508545,9.80521,0.32572266
404009604462329,0.6322852,9.7142,0.28500733
404009614388986,0.6394701999999999,9.683064,0.26345217
404009624315515,0.60833496,9.64714,0.22992188
404009634242044,0.613125,9.587264,0.2083667
404009644168701,0.6849755999999999,9.685459,0.28261232
404009654094644,0.68018556,9.891430999999999,0.2921924
404009664021173,0.6586304000000001,9.881851,0.17483643
404009673947702,0.63707525,9.83874,0.06706055
404009683874231,0.6442603,9.829161000000001,0.11017089999999999
404009693800888,0.8167017,9.912986,0.17004639
404009703727417,0.8813671999999999,10.104588,0.24908204
404009713653946,0.8143066999999999,10.245894,0.17723145
404009723580475,0.69216067,10.073453,0.12454102
404009733507004,0.69216067,9.72857,0.023950197000000003
404009743433661,0.84065187,9.671089,0.07424561
404009753363694,0.92208254,9.802814999999999,0.32332766
404009763290223,0.87178713,10.044711999999999,0.39278322
404009773216752,0.74724615,10.121353,0.37122804
404009783143409,0.7089258,9.927357,0.32572266
404009793069938,0.8143066999999999,9.733359,0.15567628
404009802996467,0.84065187,9.951306,0.2921924
404009812923101,0.852627,10.157278,0.5125342
404009822849630,0.8167017,10.221944,0.47900394
404009832776159,0.73527104,10.233919,0.34488282
404009842702688,0.7113208000000001,10.128538,0.20357667
404009852625985,0.76880133,9.982442,0.23710695
404009862552514,0.86939216,10.116563000000001,0.38080812
404009872479037,0.78556645,10.296189,0.5292993
404009882405565,0.6825806,10.236314,0.53169435
404009892332093,0.60833496,10.020762,0.46463382
404009902258621,0.6394701999999999,9.730965,0.43349856
404009912185149,0.732876,9.637559,0.39996827
404009922111677,0.68018556,9.881851,0.43349856
404009932038205,0.4766089,9.989627,0.50774413
404009941964733,0.43349856,9.850716,0.42152345
404009951895368,0.57001466,9.7142,0.28979737
404009961821896,0.5748047,9.77647,0.31374758
404009971748424,0.46463382,9.80521,0.31135255
404009981674952,0.4526587,9.865086,0.29937744
404009991601608,0.49097902,9.994417,0.30416748
404010001528136,0.54366946,9.972861,0.24908204
404010011454664,0.5364844,9.922566,0.11256592
404010021381192,0.53169435,9.814791,0.083825685
404010031307848,0.5412744,9.730965,0.083825685
404010041234376,0.5245093000000001,9.7812605,0.12933107
404010051164671,0.51732427,9.833950999999999,0.22273682
404010061091199,0.44547364,9.862691,0.22273682
404010071017856,0.4742139,9.865086,0.13891114
404010080944385,0.60354495,9.833950999999999,0.009580079
404010090871042,0.6658155,9.857901,0.18920656
404010100797571,0.72569096,9.903406,0.35685793
404010110724228,0.7232959,9.936936,0.34009278
404010120650751,0.728086,9.927357,0.2706372
404010130577407,0.7161109,9.927357,0.2945874
404010140503935,0.72569096,9.948912,0.31853762
404010150447570,0.7759864000000001,9.929751,0.3305127
404010160374354,0.7831714,9.994417,0.36164796
404010170301138,0.8095166,10.039923,0.5005590999999999
404010180227794,0.8095166,9.932146000000001,0.5364844
404010190154578,0.86220706,9.79084,0.44068359999999995
404010200081362,0.87178713,9.865086,0.3520679
404010210008146,0.81191164,9.944121,0.38080812
404010219934930,0.7592211999999999,9.867481,0.4167334
404010229861714,0.7664063,9.754914999999999,0.4143384
404010239788498,0.80233157,9.783655,0.39996827
404010249715283,0.77359134,9.865086,0.44786867
404010259654866,0.7496411000000001,9.766891000000001,0.46942386
404010269581779,0.732876,9.623189,0.4143384
404010279508692,0.6993457,9.594449000000001,0.364043
404010289435605,0.6562354,9.625584,0.364043
404010299362518,0.62510014,9.532178,0.32572266
404010309289431,0.5412744,9.532178,0.30177248
404010319216344,0.5987549,9.6615095,0.31853762
404010329143257,0.6825806,9.862691,0.36164796
404010339070170,0.52690434,9.903406,0.34727785
404010348997083,0.28979737,9.74773,0.22992188
404010358929310,0.488584,9.568104,0.18681154
404010368856351,0.6610254,9.8938265,0.33769777
404010378783392,0.51013917,10.188414,0.34488282
404010388710305,0.2083667,10.140513,0.14849122
404010398637346,0.098195806,9.639954,-0.021555176000000002
404010408564387,0.36883304,9.218430499999998,0.031135255
404010418491428,0.5843848,9.321417,0.18681154
404010428418341,0.5245093000000001,9.855506,0.33769777
404010438345382,0.21315674,10.126142999999999,0.3305127
404010448272423,0.119750984,10.011182000000002,0.17004639
404010458206400,0.2778223,9.984836999999999,-0.08861572
404010468133569,0.5125342,10.183622999999999,0.09580079
404010478060586,0.5628295999999999,10.36325,0.34488282
404010487987755,0.5412744,10.202784,0.1820215
404010497914796,0.5005590999999999,10.030342,-0.1341211
404010507841965,0.5484595,10.015972,-0.10777588
404010517769134,0.72569096,10.061478,0.028740235
404010527696175,0.85741705,10.375225,0.122146
404010537623344,0.73527104,10.720108,0.15328126
404010547550385,0.5364844,10.538086,0.16525635
404010557475058,0.5724097,9.972861,0.22513184
404010567402099,0.8598120000000001,9.546548,0.24668702
404010577329268,1.1831397,9.769285,0.49576905
404010587256309,1.22625,10.5692215,0.6586304000000001
404010597183478,0.9053174,11.050621000000001,0.62989014
404010607110647,0.6849755999999999,10.856624,0.37601808
404010617037688,0.70174074,10.205178,0.119750984
404010626964857,0.974773,9.78605,0.13651612
404010636891898,1.2621753,9.843531,0.45026368
404010646819067,1.2382251,10.152488,0.7185059
404010656746314,1.1472143999999997,10.612332,0.68737066
404010666673483,0.9699829,10.708133,0.613125
404010676600524,0.90052736,10.380015,0.34727785
404010686527693,0.9651929,9.843531,0.1341211
404010696454862,1.1208692,9.79084,0.3305127
404010706381903,1.1759547,9.956097,0.7711963000000001
404010716309050,1.094524,10.241104,0.80712163
404010726236219,0.9388476999999998,10.432706,0.60354495
404010736163260,0.7879615,10.4638405,0.34488282
404010746090429,0.732876,10.1189575,0.047900394000000006
404010756020670,0.77359134,9.788445,-0.14370118
404010765947839,0.80233157,9.611214,-0.040715333
404010775875008,0.81191164,9.524992999999998,0.2945874
404010785802177,0.8813671999999999,9.580078,0.5412744
404010795729346,0.7711963000000001,9.812395,0.51732427
404010805656515,0.5556446,9.867481,0.40715334
404010815583556,0.42870852,9.618399,0.21076173
404010825510725,0.60354495,9.374106,-0.045505375
404010835437894,0.7496411000000001,9.467513,0.09340577
404010845365050,0.7807764,9.584868,0.2706372
404010855275706,0.69216067,9.520203,0.28740236
404010865202746,0.6562354,9.378897,0.13891114
404010875129786,0.6179150999999999,9.350157000000001,0.014370117
404010885056826,0.50774413,9.328602,-0.05508545
404010894983866,0.45026368,9.235196,-0.05748047
404010904910906,0.54366946,9.17053,0.059875492
404010914837946,0.61552006,9.302257,0.23950197
404010924764858,0.64186525,9.489068,0.28261232
404010934691898,0.5364844,9.5633135,0.244292
404010944618938,0.46942386,9.520203,0.09580079
404010954536189,0.46702883,9.546548,0.0047900393
404010964463101,0.5388794,9.541758999999999,-0.014370117
404010974390013,0.5843848,9.560919,-0.0071850587
404010984316797,0.5987549,9.620794,0.045505375
404010994243709,0.59156984,9.718989,0.09580079
404011004170621,0.5724097,9.754914999999999,0.102985844
404011014097533,0.53169435,9.750125,0.06706055
404011024024446,0.48618898,9.6758795,0.040715333
404011033951359,0.5245093000000001,9.577683,0.12693603
404011043878272,0.62749517,9.616004,0.24189699
404011053799425,0.69216067,9.829161000000001,0.3161426
404011063726210,0.62749517,10.044711999999999,0.35925296
404011073653123,0.5676197,10.162068,0.22752686
404011083580036,0.5460645000000001,10.099798,0.100590825
404011093506821,0.5604346,10.027947,0.07185059
404011103433725,0.6179150999999999,10.018367,0.1341211
404011113360638,0.6730005,9.958491,0.27303225
404011123287421,0.6394701999999999,10.015972,0.3520679
404011133214333,0.5987549,10.063872,0.42152345
404011143141245,0.59156984,10.106983,0.4047583
404011153066761,0.52690434,10.123747999999999,0.34248779999999995
404011162993673,0.6011499,10.018367,0.2682422
404011172920457,0.6658155,9.869876,0.366438
404011182847241,0.70174074,9.814791,0.52690434
404011192774025,0.7927515,9.970467,0.5891748
404011202700809,0.66342044,10.305769999999999,0.7065308000000001
404011212627721,0.46702883,10.406361,0.7041358
404011222554505,0.4143384,10.248289,0.46942386
404011232481289,0.5963599,9.958491,0.28500733
404011242408073,0.7544312,10.037527,0.51492923
404011252335631,0.74724615,10.071057000000001,0.6825806
404011262262543,0.6394701999999999,9.865086,0.64186525
404011272189327,0.61073,9.532178,0.5292993
404011282116111,0.5676197,9.436378,0.46463382
404011292042895,0.5724097,9.544153,0.3520679
404011301969679,0.49097902,9.673484,0.29937744
404011311896463,0.42391850000000003,9.620794,0.3305127
404011321823375,0.51732427,9.491463000000001,0.33530274
404011331750159,0.6706055000000001,9.469908,0.2921924
404011341676943,0.6442603,9.659114,0.28740236
404011351598075,0.5508545,9.649534,0.22752686
404011361524859,0.57719976,9.369317,0.09101075
404011371451643,0.5987549,9.204061,0.019160157
404011381378300,0.7448511,9.16095,0.06706055
404011391305085,0.9268726,9.484278,0.23950197
404011401231870,0.66342044,9.879456,0.30895755
404011411158527,0.28740236,9.795630000000001,0.19399660000000002
404011421085312,0.37122804,9.477093,0.06706055
404011431012097,0.76880133,9.592053,0.18441652
404011440938882,0.7592211999999999,10.296189,0.31135255
404011450867851,0.54366946,10.653048,0.22273682
404011460794636,0.52690434,10.186019,-0.05269043
404011470721293,0.6514453,9.481883,-0.16525635
404011480648078,0.7424561,9.244776,-0.05748047
404011490574735,0.69216067,9.347761,0.098195806
404011500501520,0.5963599,9.759705,0.17962648
404011510428177,0.16525635,10.011182000000002,0.47900394
404011520354948,0.12933107,10.145303,0.488584
404011530281604,0.6394701999999999,10.494976,0.366438
404011540208388,0.8262818000000001,10.808722999999999,0.11017089999999999
404011550134859,0.1820215,10.578802,-0.17004639
404011560061515,0.12933107,9.19927,0.0023950195999999997
404011569988171,1.0562036,9.002879,0.30177248
404011579914827,1.1927198,10.791959,0.70174074
404011589841611,0.2921924,11.426639,0.5987549
404011599768267,-0.17483643,10.722503,-0.22752686
404011609694923,-0.038320314,9.891430999999999,-0.728086
404011619621579,0.37362307,9.242381,0.08622070400000001
404011629548363,0.9580079,9.6615095,1.0585986
404011639475019,0.90771246,11.215877,1.2454101999999998
404011649402494,-0.043110352000000005,11.541599,1.1831397
404011659329150,-0.3065625,10.545272,0.2921924
404011669255807,0.28979737,9.347761,-0.364043
404011679182462,0.7664063,9.182506,0.32332766
404011689109118,0.613125,9.496253,1.0035132
404011699035774,0.5460645000000001,9.630374,0.8765772
404011708962430,0.33530274,10.262659,0.7831714
404011718889086,0.009580079,10.617122,0.80233157
404011728815742,0.2562671,10.212363,0.38320315
404011738742398,0.5891748,9.798025,0.15567628
404011748681812,0.54366946,9.64714,0.4143384
404011758608596,0.5221143,9.496253,0.5939649
404011768535380,0.8143066999999999,9.352551,0.6179150999999999
404011778462164,0.9364527,9.833950999999999,0.5963599
404011788389966,0.5221143,10.166859,0.32572266
404011798316879,0.3520679,9.726174,-0.1341211
404011808243664,0.5556446,9.275911,-0.3281177
404011818170449,0.68018556,9.237591,-0.17004639
404011828097234,0.69216067,9.412427000000001,0.10777588
404011838024014,0.7232959,9.431587,0.32572266
404011847957686,0.7185059,9.287886,0.366438
404011857884598,0.7544312,9.345366499999999,0.22513184
404011867811510,0.8430469,9.599238,0.047900394000000006
404011877738422,0.7376661,9.651928999999999,-0.06945557
404011887665334,0.5556446,9.474698,-0.11496094
404011897592246,0.6442603,9.398057000000001,-0.045505375
404011907519158,0.93405765,9.618399,0.11256592
404011917446198,0.9651929,9.80521,0.2921924
404011927373110,0.80233157,9.898616,0.23471193
404011937300022,0.6706055000000001,9.814791,0.05508545
404011947228927,0.6730005,9.663903999999999,-0.019160157
404011957155839,0.7711963000000001,9.505833,0.045505375
404011967082879,0.7927515,9.489068,0.25387207
404011977009791,0.79993653,9.618399,0.5388794
404011986936703,0.7544312,9.754914999999999,0.6993457
404011996863615,0.7568262,9.912986,0.6682104999999999
404012006790655,0.6682104999999999,10.097403,0.6466553
404012016717568,0.5556446,10.075847999999999,0.62989014
404012026644481,0.50774413,9.855506,0.5340894
404012036571394,0.6059399999999999,9.81958,0.57719976
404012046498435,0.7496411000000001,10.071057000000001,0.71371585
404012056425610,0.65384036,10.300980000000001,0.85741705
404012066352523,0.51013917,10.253079,0.77359134
404012076279564,0.4143384,10.102193,0.6490503000000001
404012086206477,0.38799320000000004,9.996812,0.57959473
404012096133509,0.34488282,9.970467,0.60833496
404012106060422,0.26584718,10.018367,0.58198977
404012115987461,0.1341211,9.984836999999999,0.5556446
404012125914373,0.17483643,9.874666,0.49097902
404012135841413,0.16765137,9.924961,0.43110353
404012145768325,0.16765137,9.924961,0.33769777
404012155699997,0.083825685,9.857901,0.23950197
404012165627037,0.045505375,9.78605,0.16525635
404012175554077,0.07185059,9.702225,0.23710695
404012185480989,0.17483643,9.869876,0.31135255
404012195408029,0.08622070400000001,10.116563000000001,0.28740236
404012205335069,-0.083825685,10.013577,0.16525635
404012215262109,-0.10777588,9.6615095,-0.014370117
404012225189149,0.05269043,9.472302,-0.019160157
404012235116189,0.25147706,9.575289,0.16286133
404012245043229,0.29698244,9.924961,0.33530274
404012254975590,0.1580713,10.154883,0.27542725
404012264902758,0.11017089999999999,10.114168,0.15328126
404012274829798,0.22513184,9.968072,0.083825685
404012284756966,0.37362307,9.980047,0.033530276
404012294684006,0.47900394,9.843531,0.16525635
404012304611175,0.5460645000000001,9.659114,0.23231691
404012314538344,0.6514453,9.637559,0.24908204
404012324465385,0.69695073,9.7812605,0.25147706
404012334392554,0.6682104999999999,9.901011,0.17962648
404012344319595,0.57959473,9.848321,0.09340577
404012354246024,0.50774413,9.72378,0.040715333
404012364173193,0.5604346,9.70941,0.016765138
404012374100362,0.77359134,9.956097,0.07185059
404012384027531,0.8143066999999999,10.188414,0.19160157
404012393954828,0.6514453,9.903406,0.23950197
404012403881986,0.66342044,9.522598,0.10777588
404012413809154,1.0777588,9.580078,0.08861572
404012423736322,1.2837305,10.027947,0.12693603
404012433663490,0.90771246,10.205178,0.098195806
404012443590658,0.61552006,9.831555,0.028740235
404012453516007,0.71371585,9.465117,0.06706055
404012463443047,0.98195803,9.433982,0.098195806
404012473370215,0.9388476999999998,9.850716,0.21315674
404012483297255,0.71371585,9.968072,0.33769777
404012493224423,0.7065308000000001,9.7621,0.366438
404012503151463,0.82388675,9.592053,0.22273682
404012513078631,0.8909473,9.479486999999999,0.17483643
404012523005671,0.90052736,9.479486999999999,0.36164796
404012532932839,0.9508228000000001,9.580078,0.49816409999999994
404012542860007,0.85741705,9.764495,0.59156984
404012552772169,0.6993457,9.948912,0.5748047
404012562699209,0.64186525,9.915381,0.5388794
404012572626121,0.6227050999999999,9.73815,0.48379397
404012582553033,0.5388794,9.592053,0.40954837
404012592480073,0.58198977,9.553733,0.43110353
404012602406985,0.6466553,9.627979,0.5556446
404012612333897,0.6682104999999999,9.73815,0.6514453
404012622260937,0.62510014,9.764495,0.6586304000000001
404012632187849,0.57001466,9.750125,0.5460645000000001
404012642114889,0.488584,9.735755000000001,0.43349856
404012652039358,0.4143384,9.798025,0.47181886
404012661966271,0.28740236,9.855506,0.54366946
404012671893184,0.14849122,9.77647,0.5843848
404012681820097,0.21315674,9.663903999999999,0.57959473
404012691747005,0.24908204,9.68067,0.4766089
404012701673917,0.16765137,9.769285,0.4047583
404012711600829,0.11017089999999999,9.884246000000001,0.4047583
404012721527613,0.08622070400000001,9.996812,0.39517823
404012731454525,0.07424561,9.965676,0.34248779999999995
404012741381437,0.09580079,9.845925,0.25147706
404012751308726,0.16765137,9.817185,0.21315674
404012761235638,0.2083667,10.027947,0.28979737
404012771162550,0.043110352000000005,10.279425,0.35925296
404012781089462,-0.1341211,10.2315235,0.28740236
404012791016374,-0.07185059,9.932146000000001,0.18681154
404012800943286,-0.035925295,9.924961,0.32093263
404012810870198,0.028740235,10.068663,0.39278322
404012820797110,0.14370118,10.289003999999998,0.3520679
404012830724022,0.045505375,10.590776,0.4382886
404012840650934,0.021555176000000002,10.585987,0.32093263
404012850582257,0.11256592,10.286610000000001,0.17244141
404012860509169,0.28261232,10.308164999999999,0.15328126
404012870436081,0.32332766,10.41115,0.25866213
404012880363121,0.29937744,10.274633999999999,0.19399660000000002
404012890290033,0.32093263,10.085427000000001,0.08622070400000001
404012900216945,0.41194338,10.001602,0.17244141
404012910143985,0.53169435,9.980047,0.25147706
404012920070897,0.62031007,10.099798,0.27542725
404012929997809,0.56522465,10.114168,0.32572266
404012939924850,0.45026368,9.929751,0.3520679
404012949842809,0.5484595,9.759705,0.3520679
404012959769594,0.7759864000000001,9.872271000000001,0.32572266
404012969696507,0.8430469,10.145303,0.27303225
404012979623292,0.7664063,10.291399,0.14130616
404012989550071,0.62989014,10.066267999999999,0.06945557
404012999476983,0.6682104999999999,9.685459,0.011975098
404013009403767,0.8262818000000001,9.594449000000001,-0.0047900393
404013019330551,0.91250247,9.726174,0.119750984
404013029257463,0.89573735,9.850716,0.24668702
404013039184247,0.76880133,9.685459,0.26345217
404013049101290,0.7185059,9.347761,0.23710695
404013059027946,0.85741705,9.067544,0.22752686
404013068954730,0.9627979,9.093889,0.3281177
404013078881514,0.977168,9.570497999999999,0.47181886
404013088808170,0.7664063,10.059082,0.55803955
404013098734954,0.61073,10.171648,0.488584
404013108661738,0.6993457,9.903406,0.31135255
404013118588394,0.85741705,9.75731,0.12933107
404013128515178,0.86220706,9.941727,0.19639161
404013138441962,0.852627,9.963282000000001,0.39757326
404013148368165,0.8334668,9.800421,0.33769777
404013158294949,0.84544194,9.733359,0.22034179999999998
404013168221605,0.77359134,9.78605,0.19399660000000002
404013178148389,0.6945557,9.81,0.17962648
404013188075045,0.62510014,9.915381,0.19399660000000002
404013198001829,0.55324954,9.975257000000001,0.28261232
404013207928485,0.57001466,9.982442,0.34248779999999995
404013217855269,0.55324954,10.121353,0.25866213
404013227781925,0.51732427,10.123747999999999,0.244292
404013237708581,0.5388794,10.035132,0.117355965
404013247635212,0.64186525,10.015972,0.040715333
404013257561869,0.5939649,10.015972,0.12454102
404013267488654,0.5604346,9.948912,0.21555176
404013277415311,0.62989014,9.922566,0.22034179999999998
404013287341968,0.6706055000000001,10.044711999999999,0.32093263
404013297268753,0.5987549,10.162068,0.4382886
404013307195410,0.53169435,10.114168,0.44307864
404013317122067,0.49337405,10.092611999999999,0.4143384
404013327048852,0.4143384,10.1189575,0.39996827
404013336975509,0.5005590999999999,10.085427000000001,0.43349856
404013346909568,0.57719976,10.128538,0.42152345
404013356836353,0.4526587,10.221944,0.3544629
404013366763138,0.28500733,10.063872,0.37601808
404013376689910,0.42391850000000003,9.637559,0.30416748
404013386616695,0.59156984,9.592053,0.36164796
404013396543478,0.4742139,9.884246000000001,0.47181886
404013406470262,0.27303225,9.922566,0.5388794
404013416397046,0.28500733,9.575289,0.50534916
404013426323830,0.41194338,9.383687,0.45984375
404013436250614,0.5221143,9.505833,0.43110353
404013446174879,0.5029541000000001,9.915381,0.4766089
404013456101663,0.26345217,10.106983,0.5364844
404013466028319,0.13891114,9.800421,0.35925296
404013475955103,0.3305127,9.319021000000001,0.09580079
404013485881887,0.48379397,9.263936,0.035925295
404013495808671,0.34967285,9.505833,0.22273682
404013505735455,0.19399660000000002,9.510622999999999,0.31853762
404013515662111,0.21794678,9.307046000000001,0.17483643
404013525588895,0.25866213,9.254355,0.10538086
404013535515679,0.2778223,9.235196,0.12933107
404013545442453,0.3161426,9.163345,0.17244141
404013555369237,0.34488282,9.177715,0.22752686
404013565295893,0.38559815,9.410032000000001,0.28500733
404013575222677,0.364043,9.589659,0.2945874
404013585149461,0.33769777,9.565708,0.16286133
404013595076245,0.34248779999999995,9.398057000000001,-0.059875492
404013605002901,0.49337405,9.1849,-0.18920656
404013614929685,0.5676197,9.175321,-0.16525635
404013624856469,0.613125,9.407638,-0.021555176000000002
404013634783253,0.6059399999999999,9.546548,0.045505375
404013644709227,0.6658155,9.498648,-0.047900394000000006
404013654636011,0.6466553,9.620794,-0.07903565
404013664562795,0.69216067,9.697434,-0.098195806
404013674489451,0.66342044,9.8866415,-0.083825685
404013684416235,0.55324954,10.030342,-0.035925295
404013694342892,0.50774413,10.008787,0.011975098
404013704269677,0.5388794,9.865086,-0.019160157
404013714196334,0.6730005,9.80521,-0.038320314
404013724123119,0.7759864000000001,9.982442,0.0023950195999999997
404013734049776,0.8095166,9.975257000000001,0.06945557
404013743986793,0.7807764,9.850716,0.05748047
404013753913578,0.7496411000000001,9.944121,0.05508545
404013763840491,0.92926764,10.229128999999999,0.22752686
404013773767276,0.99393314,10.691367999999999,0.27303225
404013783694189,0.80712163,10.921289,0.1820215
404013793620974,0.57719976,10.511742,0.1580713
404013803547887,0.7568262,9.939331,0.06706055
404013813474672,1.1567944,10.095008,0.102985844
404013823400686,1.0753639,10.554852,0.5556446
404013833327471,0.8909473,10.636282000000001,0.6179150999999999
404013843255168,0.74724615,10.351274499999999,0.41194338
404013853181953,0.76880133,9.920172,0.3520679
404013863108863,0.94603276,9.711803999999999,0.42152345
404013873035775,0.98914313,10.145303,0.63707525
404013882962559,0.69216067,10.624307,0.92926764
404013892889471,0.43110353,10.545272,0.92208254
404013902816383,0.51013917,10.181229,0.57001466
404013912743167,0.68737066,10.092611999999999,0.38080812
404013922670079,0.68737066,10.169253,0.42391850000000003
404013932596991,0.6227050999999999,10.150093,0.51732427
404013942527065,0.5891748,10.111773,0.52690434
404013952453849,0.5676197,10.023157000000001,0.48139894
404013962380761,0.5676197,9.872271000000001,0.34727785
404013972307673,0.50774413,9.74773,0.22273682
404013982234585,0.39996827,9.671089,0.2802173
404013992161497,0.36164796,9.697434,0.32572266
404014002088281,0.3784131,9.850716,0.37362307
404014012015193,0.33530274,10.003997,0.39278322
404014021942105,0.29698244,10.099798,0.23471193
404014031869017,0.33290774,10.114168,0.019160157
404014041799956,0.33530274,9.999207,-0.07185059
404014051726996,0.34727785,9.778865,-0.12693603
404014061653908,0.3784131,9.690249,-0.09101075
404014071580948,0.37601808,9.663903999999999,0.06706055
404014081507860,0.43110353,9.627979,0.11017089999999999
404014091434900,0.45026368,9.673484,0.083825685
404014101361812,0.38080812,9.80521,0.11017089999999999
404014111288852,0.43589357,9.874666,0.17244141
404014121215764,0.58677983,9.891430999999999,0.20357667
404014131142804,0.6179150999999999,9.980047,0.15328126
404014141072530,0.49816409999999994,10.138117999999999,0.1580713
404014150999442,0.488584,10.104588,0.23231691
404014160926482,0.61552006,9.948912,0.19399660000000002
404014170853394,0.5460645000000001,9.800421,0.047900394000000006
404014180780307,0.49097902,9.637559,0.0
404014190707348,0.51492923,9.572892999999999,0.17962648
404014200634261,0.5963599,9.77647,0.44307864
404014210561302,0.6059399999999999,10.049502,0.57001466
404014220488215,0.4742139,10.162068,0.50534916
404014230415128,0.45026368,9.944121,0.35925296
404014240342169,0.44786867,9.544153,0.26345217
404014250274284,0.68018556,9.283096,0.2706372
404014260201325,0.7759864000000001,9.656719,0.39517823
404014270128366,0.49816409999999994,10.269844,0.5987549
404014280055407,0.22273682,10.147698,0.5460645000000001
404014289982437,0.24189699,9.472302,0.06706055
404014299909477,0.47900394,9.18011,-0.098195806
404014309836517,0.79754156,9.381292,0.2682422
404014319763557,0.70174074,9.901011,0.55324954
404014329690597,0.28740236,10.011182000000002,0.4742139
404014339617637,0.17723145,9.505833,0.12933107
404014349544878,0.58677983,8.978928999999999,-0.122146
404014359472046,0.8909473,9.050778999999999,-0.1460962
404014369399086,0.5843848,9.836346,0.12693603
404014379326126,0.32572266,10.013577,0.4143384
404014389253166,0.3065625,9.589659,0.34488282
404014399180206,0.6562354,9.053174,0.09340577
404014409107246,0.9915381,8.986114,-0.016765138
404014419034286,1.0657837,9.436378,0.19639161
404014428961326,0.8334668,9.917776,0.34488282
404014438888366,0.55803955,9.77647,0.244292
404014448821866,0.6466553,9.472302,-0.045505375
404014458749035,0.87418216,9.5633135,-0.20118165
404014468676204,0.8286768,9.532178,-0.07903565
404014478603373,0.7496411000000001,9.335787,0.11017089999999999
404014488530542,0.8909473,9.455538,0.34009278
404014498457711,1.0681788,9.984836999999999,0.50534916
404014508384880,0.92208254,10.142908,0.43349856
404014518312049,0.72569096,9.7621,0.06466553
404014528239218,0.87178713,9.508227999999999,-0.17962648
404014538166387,1.0370435,9.7740755,-0.081430666
404014548084910,0.94603276,9.970467,0.119750984
404014558011951,0.7879615,10.123747999999999,0.12933107
404014567939120,0.5987549,10.176438000000001,0.11496094
404014577866161,0.68018556,10.087823,0.11017089999999999
404014587793330,0.82388675,10.138117999999999,0.07185059
404014597720371,0.80712163,10.360855,0.09580079
404014607647412,0.69695073,10.40157,0.17483643
404014617574581,0.7041358,10.037527,0.098195806
404014627501622,0.9029224,9.678274,-0.06706055
404014637428791,0.94603276,9.788445,-0.06466553
404014647350052,0.74724615,10.140513,0.11017089999999999
404014657276965,0.6011499,10.31535,0.12454102
404014667204006,0.57719976,10.212363,-0.028740235
404014677131047,0.6490503000000001,10.073453,-0.033530276
404014687057938,0.7185059,10.1189575,0.14370118
404014696984979,0.7209009,10.080638,0.28740236
404014706912020,0.6945557,10.035132,0.3520679
404014716838933,0.68976563,10.152488,0.2778223
404014726765974,0.6706055000000001,10.205178,0.1820215
404014736693015,0.68737066,10.090218,0.07664063
404014746627038,0.6730005,9.924961,0.05748047
404014756554207,0.6610254,9.826766000000001,0.09580079
404014766481248,0.7185059,9.735755000000001,0.14849122
404014776408289,0.79035646,9.798025,0.24189699
404014786335330,0.7951465,9.987232,0.3520679
404014796262371,0.7664063,9.929751,0.30416748
404014806189540,0.7927515,9.73815,0.20597169
404014816116581,0.9436377,9.616004,0.19878663
404014826043622,0.9244776,9.79084,0.18441652
404014835970649,0.8861573,9.948912,0.14130616
404014845898914,0.83586186,9.865086,0.08861572
404014855825954,0.84065187,9.666299,0.045505375
404014865752994,0.86939216,9.5561285,-0.0071850587
404014875680034,0.85741705,9.6686945,-0.0047900393
404014885607202,0.8646021,9.865086,0.059875492
404014895534242,0.8047266,9.924961,0.13891114
404014905461282,0.7544312,9.843531,0.09580079
404014915388450,0.78556645,9.798025,0.0023950195999999997
404014925315490,0.8478370000000001,9.857901,-0.023950197000000003
404014935242530,0.80712163,9.8938265,-0.0023950195999999997
404014945167660,0.7783814,9.996812,-0.016765138
404014955094700,0.7711963000000001,10.145303,-0.035925295
404014965021740,0.7376661,10.176438000000001,-0.10777588
404014974948908,0.6730005,9.865086,-0.13172609
404014984875948,0.68737066,9.498648,-0.18681154
404014994802988,0.81909674,9.544153,-0.18681154
404015004730156,0.9196875,9.905801,-0.102985844
404015014657196,0.8382569,10.164463,0.0047900393
404015024584236,0.732876,10.197992999999999,0.035925295
404015034511404,0.7711963000000001,10.095008,-0.047900394000000006
404015044427747,0.8646021,10.032737,-0.059875492
404015054354659,0.98195803,10.018367,-0.031135255
404015064281699,1.0226734,9.987232,-0.035925295
404015074208611,1.0059083,9.83874,-0.043110352000000005
404015084135523,0.98435307,9.539363,-0.1460962
404015094062563,1.0442286,9.364527,-0.23471193
404015103989475,1.1711646,9.422008,-0.21555176
404015113916387,1.1663746000000002,9.505833,-0.0047900393
404015123843427,1.1927198,9.491463000000001,0.05269043
404015133770339,1.3100758,9.613608000000001,0.031135255
404015143693343,1.3531861,9.934542,0.16525635
404015153620255,1.3795313,10.032737,0.1580713
404015163547167,1.4753321000000001,9.678274,-0.011975098
404015173474079,1.5783178999999998,9.244776,-0.24668702
404015183400991,1.6669337,9.105865,-0.42870852
404015193327903,1.6046631000000002,9.177715,-0.39757326
404015203254815,1.4920973,9.326205999999999,-0.31374758
404015213181727,1.3962965,9.582474000000001,-0.2802173
404015223108639,1.3723463,9.903406,-0.23950197
404015233035551,1.4825171,10.154883,-0.22513184
404015242963543,1.5256275,10.27224,-0.19639161
404015252890455,1.5040723,10.123747999999999,-0.10777588
404015262817367,1.5232325,9.908196,-0.16286133
404015272744151,1.5807129,9.977652,-0.26345217
404015282671063,1.5974781999999998,10.135722999999999,-0.3161426
404015292597975,1.5519726999999999,10.039923,-0.37601808
404015302524887,1.5950831,9.874666,-0.50534916
404015312451799,1.585503,9.817185,-0.47900394
404015322378711,1.5687379,9.956097,-0.45744875
404015332305623,1.4154567,10.090218,-0.4047583
404015342228167,1.3196558,10.40157,-0.25387207
404015352154951,1.2406201000000001,10.803933,-0.14849122
404015362081863,1.1328443000000001,10.94524,-0.2562671
404015372008775,1.0059083,10.547667,-0.47181886
404015381935559,0.9364527,9.568104,-0.6514453
404015391862471,1.1208692,9.175321,-0.61552006
404015401789383,1.1472143999999997,9.817185,-0.37362307
404015411716168,0.96758795,10.435101,-0.12454102
404015421643081,0.9532178,10.358459,-0.18441652
404015431569994,1.0490186000000001,10.049502,-0.39996827
404015441490135,1.1543995,9.884246000000001,-0.44786867
404015451416920,1.2406201000000001,10.063872,-0.28261232
404015461343705,1.1543995,10.310559,-0.028740235
404015471270490,0.96040285,10.181229,0.047900394000000006
404015481197275,0.95561284,9.683064,-0.07903565
404015491124051,1.1184741000000002,9.620794,-0.22992188
404015501050836,1.0130934,9.989627,-0.23231691
404015510977619,0.7376661,9.996812,-0.08622070400000001
404015520904403,0.732876,9.836346,-0.021555176000000002
404015530831187,0.87418216,10.023157000000001,-0.0023950195999999997
404015540759614,0.8214916999999999,10.305769999999999,0.009580079
404015550686398,0.79035646,10.33451,-0.023950197000000003
404015560613182,0.78556645,10.121353,-0.07424561
404015570539966,0.84544194,9.6758795,-0.24668702
404015580466750,0.977168,9.309442,-0.27303225
404015590393534,1.0011181999999998,9.433982,-0.17483643
404015600320318,0.8885523000000001,9.683064,-0.05508545
404015610247102,0.7376661,9.635164,0.023950197000000003
404015620173886,0.852627,9.493857,-0.07664063
404015630100670,0.92926764,9.685459,-0.06466553
404015640024416,0.87418216,9.845925,0.081430666
404015649951073,0.80233157,9.75731,0.0
404015659877858,0.87418216,9.592053,-0.1580713
404015669804515,0.96758795,9.5561285,-0.28261232
404015679731300,1.0130934,9.553733,-0.26584718
404015689658085,1.0418334999999999,9.5489435,-0.2083667
404015699584742,0.9963281999999999,9.606423,-0.17483643
404015709511527,0.9412427,9.707015,-0.15088624
404015719438184,0.9484278,9.81958,-0.098195806
404015729364969,0.96040285,9.901011,-0.081430666
404015739291754,0.9412427,9.874666,-0.102985844
404015749222145,0.8885523000000001,9.81958,-0.14370118
404015759148930,0.8334668,9.841136,-0.18441652
404015769075715,0.84544194,9.915381,-0.19878663
404015779002500,0.8310718,9.910591,-0.21076173
404015788929285,0.8430469,9.750125,-0.2945874
404015798856070,0.89573735,9.596844,-0.32093263
404015808782855,0.9364527,9.666299,-0.18681154
404015818709640,1.0011181999999998,9.908196,-0.050295413
404015828636425,0.9699829,10.097403,0.016765138
404015838564517,0.9148975,10.030342,-0.016765138
404015848494998,0.9364527,9.855506,-0.14130616
404015858421782,0.94603276,9.798025,-0.25866213
404015868348694,0.9580079,9.82437,-0.22034179999999998
404015878275478,0.96758795,9.889036,-0.17004639
404015888202262,0.91010743,9.972861,-0.12933107
404015898129174,0.84065187,9.879456,-0.19878663
404015908055958,0.9029224,9.678274,-0.2706372
404015917982742,0.93405765,9.5489435,-0.19639161
404015927909654,0.9029224,9.481883,-0.08622070400000001
404015937836438,0.85741705,9.524992999999998,-0.045505375
404015947762098,0.87897223,9.695039999999999,0.07664063
404015957689010,0.8646021,9.754914999999999,0.07185059
404015967615794,0.85741705,9.517808,-0.06945557
404015977542578,0.92208254,9.201666000000001,-0.12454102
404015987469362,1.0035132,9.113049499999999,0.0
404015997396146,1.0274634,9.2328005,0.15088624
404016007322930,1.0202783000000002,9.546548,0.20597169
404016017249842,0.86939216,9.836346,0.28500733
404016027176626,0.7496411000000001,9.8938265,0.25387207
404016037103410,0.6825806,9.750125,0.09340577
404016047027841,0.7831714,9.730965,-0.07424561
404016056954625,0.80233157,9.78605,-0.06706055
404016066881538,0.77359134,9.673484,-0.040715333
404016076808323,0.81191164,9.465117,-0.11496094
404016086735108,0.79035646,9.297466,-0.13891114
404016096661893,0.7592211999999999,9.21364,-0.18681154
404016106588678,0.72569096,9.192085,-0.19399660000000002
404016116515463,0.7376661,9.493857,-0.050295413
404016126442248,0.58198977,10.066267999999999,0.17004639
404016136369033,0.30177248,10.214758999999999,0.33290774
404016146295818,0.39517823,10.039923,0.098195806
404016156225175,0.5556446,9.965676,-0.18681154
404016166151960,0.613125,9.879456,-0.25387207
404016176078733,0.7592211999999999,9.6686945,-0.44068359999999995
404016186005517,0.87418216,9.565708,-0.50534916
404016195932301,0.7951465,9.627979,-0.366438
404016205859085,0.728086,9.7621,-0.19878663
404016215785869,0.66342044,10.035132,-0.083825685
404016225712653,0.4766089,10.169253,0.13651612
404016235639437,0.33290774,10.154883,0.31853762
404016245566221,0.40954837,9.968072,0.21555176
404016255500508,0.61073,9.896221,0.12454102
404016265427292,0.6322852,9.939331,0.11496094
404016275354204,0.63707525,9.754914999999999,0.0047900393
404016285280988,0.65384036,9.560919,-0.083825685
404016295207900,0.66342044,9.663903999999999,-0.07424561
404016305134684,0.6322852,10.001602,0.045505375
404016315061596,0.4742139,10.33451,0.25147706
404016324988380,0.3520679,10.36325,0.41194338
404016334915165,0.4382886,10.214758999999999,0.39996827
404016344842076,0.56522465,10.121353,0.3520679
404016354764189,0.57001466,10.044711999999999,0.30177248
404016364690973,0.6322852,9.910591,0.27303225
404016374617885,0.67539555,9.879456,0.22752686
404016384544669,0.6442603,9.951306,0.1580713
404016394471581,0.6227050999999999,10.003997,0.08622070400000001
404016404398365,0.5604346,10.0063925,0.117355965
404016414325277,0.48618898,9.977652,0.28979737
404016424252061,0.4622388,9.965676,0.45984375
404016434178973,0.45984375,10.001602,0.49576905
404016444105757,0.38080812,10.092611999999999,0.49097902
404016454037008,0.3520679,10.193204,0.40954837
404016463963920,0.29937744,10.243499,0.27542725
404016473890832,0.26345217,10.202784,0.1341211
404016483817744,0.32093263,10.030342,-0.016765138
404016493744656,0.39996827,9.922566,-0.011975098
404016503671568,0.44068359999999995,9.901011,0.11017089999999999
404016513598480,0.36883304,9.927357,0.14849122
404016523525392,0.28979737,10.044711999999999,0.17723145
404016533452304,0.16286133,10.140513,0.25866213
404016543379217,0.06227051,10.073453,0.28500733
404016553307438,0.08861572,9.879456,0.19878663
404016563234479,0.15088624,9.77647,0.13651612
404016573161392,0.17244141,9.742939999999999,0.18920656
404016583088305,0.17962648,9.843531,0.18681154
404016593015218,0.16765137,9.953702,0.17244141
404016602942131,0.07664063,10.035132,0.17962648
404016612869044,0.019160157,9.953702,0.17723145
404016622795957,0.040715333,9.7740755,0.23471193
404016632722998,0.14849122,9.64714,0.2921924
404016642649911,0.20597169,9.764495,0.36164796
404016652577058,0.12933107,10.013577,0.41912845
404016662503971,-0.026345216,10.114168,0.50534916
404016672430870,-0.08861572,10.1189575,0.5364844
404016682357782,-0.10538086,9.972861,0.5005590999999999
404016692284694,-0.1341211,9.707015,0.40715334
404016702211606,-0.050295413,9.541758999999999,0.34967285
404016712138518,-0.035925295,9.553733,0.34727785
404016722065430,-0.08622070400000001,9.589659,0.39278322
404016731992342,-0.19639161,9.551338000000001,0.47181886
404016741919254,-0.2562671,9.508227999999999,0.51732427
404016751853185,-0.244292,9.553733,0.45744875
404016761780097,-0.28261232,9.592053,0.43349856
404016771707137,-0.32332766,9.589659,0.45026368
404016781634049,-0.35685793,9.560919,0.45744875
404016791561089,-0.37362307,9.553733,0.46702883
404016801488001,-0.35685793,9.472302,0.38320315
404016811415041,-0.31853762,9.477093,0.36164796
404016821341953,-0.29937744,9.536968,0.3903882
404016831268993,-0.30177248,9.639954,0.43589357
404016841195905,-0.34248779999999995,9.77168,0.45026368
404016851129879,-0.44786867,9.807606,0.46942386
404016861056919,-0.5125342,9.72857,0.45505372
404016870983959,-0.45026368,9.718989,0.45744875
404016880911127,-0.3903882,9.860296,0.5340894
