UPTIMENANO,Ax,Ay,Az
403989383485650,0.5404682,-0.008519455,9.886086
403989393412306,0.5342469,0.035968333,9.935146
403989403339090,0.46155706,0.086517826,9.865308
403989413272357,0.4120777,0.035655815,9.719876
403989423199141,0.29575172,-0.0070489016,9.623181
403989433125925,0.25867802,-0.011187303,9.678979
403989443052709,0.31988627,0.022235818,9.782264
403989452979493,0.3829718,0.06927379,9.808601
403989462906277,0.36182785,0.090430014,9.7168045
403989472832933,0.40982148,0.082866095,9.748398
403989482759717,0.30017826,0.2093647,9.796689
403989492686501,0.27467072,0.29460377,9.8714285
403989502613285,0.4342008,0.26504898,9.979311
403989512557798,0.6018507,0.17447615,10.070387
403989522484710,0.6757014,0.16865624,10.150692
403989532411750,0.7418243,0.21448879,10.270024
403989542338790,0.75559443,0.33095503,10.282968
403989552265702,0.6945149,0.3871018,10.289315
403989562192742,0.6176478,0.31767994,10.236637
403989572119782,0.55172974,0.16019277,10.113008
403989582046694,0.43259072,0.1570681,10.004893
403989591973734,0.30931896,0.21975438,9.97841
403989601900774,0.18319722,0.2299909,9.891569
403989611794599,0.1725551,0.41614905,9.754156
403989621721127,0.1436951,0.4648481,9.704242
403989631647527,0.28615913,0.23055987,9.476283
403989641574055,0.3860803,0.001100096,9.277605
403989651500583,-0.07164121,0.490455,9.751643
403989661426983,-0.22107989,0.8669724,10.051416
403989671353511,0.17728893,1.2314748,10.217155
403989681280039,0.7073308,1.4726666,10.716731
403989691206439,1.0875345,1.271104,11.015708
403989701132967,1.7533722,0.9233369,10.474287
403989711066107,1.7445153,0.02556662,11.407951
403989720992635,1.4389025,0.32775888,10.73576
403989730919291,1.0499473,0.14898074,10.0562525
403989740845819,-0.070948996,0.058599055,9.623247
403989750772475,-0.5863081,-0.3815361,8.484798
403989760699003,-0.86765873,-0.3476539,8.168929
403989770625531,-0.593396,-0.1627485,8.357589
403989780552187,-0.4438931,0.007944647,8.529513
403989790478715,0.0554831,0.14663981,8.908609
403989800405243,0.25957683,0.44310296,9.213925
403989810333707,1.5872053,1.7800125,9.612805
403989820260363,2.820424,3.6631272,9.837326
403989830187019,2.002937,0.90442204,10.776106
403989840113675,1.2469089,-0.8475443,11.014136
403989850040203,1.3574332,-0.64400744,10.714115
403989859966859,1.2505697,-0.8259418,10.423698
403989869893515,0.87174374,-1.1419729,10.309376
403989879820043,0.3599962,-1.1572958,10.305515
403989889746699,0.061606117,-0.5865061,10.209578
403989899673355,-0.039717276,-0.043249976,10.090654
403989909602319,0.054716326,0.5647364,9.787206
403989919528975,0.27490005,1.0007409,9.473676
403989929455503,0.19390842,1.0785903,9.269443
403989939382159,-0.16357915,1.1601069,9.011012
403989949308815,-0.38627213,0.6540893,8.862896
403989959235343,-0.42582625,0.054791734,9.159568
403989969161999,-0.20827718,-0.45469844,9.655311
403989979088655,0.008831193,-1.5096856,10.263185
403989989015183,0.40735814,-1.7231022,10.54374
403989998941839,1.1416371,-0.36166975,10.323926
403990008887083,1.3119401,0.214899,10.175677
403990018813995,0.83578545,0.09343982,9.885566
403990028740779,0.29311448,-0.21077947,9.596073
403990038667691,0.02993426,-0.14093736,9.597974
403990048594475,0.26892877,0.38149145,10.003953
403990058521387,0.14074853,0.013332129,10.024166
403990068448171,-2.2169153E-4,-0.75046885,9.791041
403990078375083,0.5147966,-0.27171934,9.931214
403990088301867,0.6057974,-0.282909,9.956694
403990098228779,0.102589704,-0.3649919,9.6280775
403990108162052,-0.05956576,-0.5871207,9.156983
403990118089092,0.08643231,-0.8251338,9.056822
403990128016004,0.29841647,-0.65192235,9.188216
403990137942916,0.34813282,-0.43263286,9.477675
403990147869956,0.60653204,-0.07045694,9.810779
403990157796868,0.6891753,-0.25121036,9.870726
403990167723780,0.77288574,-0.6452288,9.8493
403990177650820,0.8597728,-0.679397,9.649918
403990187577732,0.3005167,-0.3565907,9.4249525
403990197504644,0.036438,-0.12632075,9.476794
403990207435680,0.0066043134,0.002680222,9.548432
403990217362720,-0.23803456,0.2553193,9.514791
403990227289760,-0.32358646,0.22937752,9.538242
403990237216800,-0.0868924,-0.06112559,9.6560545
403990247143840,0.43783143,-0.669508,9.833849
403990257070880,0.7056177,-0.98061764,9.806437
403990266997920,1.8544316,-0.33128014,11.035938
403990276924960,1.4183595,0.14646223,10.817594
403990286851872,0.52723235,0.4148387,10.051889
403990296778912,0.44948485,0.5100077,9.888462
403990306705913,1.1163939,0.023633055,10.311778
403990316632953,1.4946524,-0.5058574,10.655053
403990326560121,1.0760906,-0.47053236,10.551294
403990336487161,0.8145401,0.064604945,10.464716
403990346414201,0.39510244,0.2859307,10.034428
403990356341369,-0.16711888,0.19754393,9.646927
403990366268409,-0.23270543,0.43800172,9.498767
403990376195449,-0.5184529,0.59282327,9.7107315
403990386122617,-0.63251036,0.45124748,9.64667
403990396049657,-0.6535087,0.2497831,9.379186
403990405983230,-0.5710173,0.051363382,9.20831
403990415910398,-0.7556647,0.16753663,9.205574
403990425837694,0.116581164,2.621818,9.316269
403990435764862,-0.44901422,0.2157367,9.901803
403990445692158,-0.59788907,0.12799114,7.7921524
403990455619326,-0.33784404,2.794439,5.5678067
403990465546622,-1.1460947,0.5518469,7.446402
403990475473790,-1.1570551,0.2048754,8.059882
403990485400958,-1.3455725,-0.20474455,8.299643
403990495328254,-0.7362125,0.15654705,8.073706
403990505235903,-0.039358955,1.5638529,8.037035
403990515162815,0.07653648,1.1499664,9.028097
403990525089599,0.37063023,-0.2324776,9.956078
403990535016511,0.9285632,-2.183607,10.164867
403990544943423,1.1165429,-4.3190017,11.00267
403990554870335,1.0872295,-3.4227417,10.910352
403990564797119,1.2178891,-3.8790162,11.471978
403990574724031,1.799128,-3.3880467,10.66665
403990584650943,1.6045276,-2.102316,9.904456
403990594577727,1.4883319,-1.622705,9.935661
403990604506563,0.9175191,-1.036269,10.185751
403990614433475,0.5240893,0.028150026,10.75089
403990624360387,0.4957545,1.9012548,11.514107
403990634287299,0.72042376,3.9789045,11.797831
403990644214211,0.652154,5.0884385,11.707558
403990654141123,0.34554365,5.7194085,11.360606
403990664068035,-0.09594135,4.609066,10.64838
403990673994947,-0.575331,2.7545452,9.644983
403990683921859,-0.8325404,1.2729632,8.641012
403990693848771,-0.89810246,0.49376658,7.9251003
403990703777369,-0.8498088,0.07011097,7.6332426
403990713704281,-0.5397752,0.0075251316,7.5230713
403990723631193,-0.09216711,-0.023320911,6.9511304
403990733558105,-0.3292544,0.4427737,5.214158
403990743485017,0.2764521,-1.8498018,5.2150335
403990753411929,-0.1608517,-2.4320333,5.6745543
403990763338841,0.73872703,-1.10365,6.621955
403990773265753,2.9358616,-0.18867372,6.8807893
403990783192665,4.9960456,-0.39081964,4.620648
403990793119577,4.5860868,-0.7724914,4.3094926
403990803047018,2.9535909,1.158772,6.0449944
403990812973930,2.3680272,2.558435,6.842729
403990822900842,1.8034136,2.153624,6.373035
403990832827754,1.1987437,0.983654,5.020618
403990842754666,0.55728173,1.0853444,2.8781278
403990852681706,-0.25534812,1.9687314,1.0690635
403990862608618,-0.72819585,2.910544,0.054469354
403990872535530,-0.6920114,3.4117284,-0.24207057
403990882462442,-0.66313547,3.542888,-0.18262947
403990892389354,0.08567008,3.2926438,0.108673416
403990902306249,0.989139,2.690803,0.29811922
403990912233033,1.4800686,2.5718644,1.4192995
403990922159817,2.1079237,3.1267276,2.7247858
403990932086729,4.2828016,2.460697,6.22246
403990942013513,7.7149153,-1.0238446,12.517161
403990951940297,6.9866447,2.524499,13.302549
403990961867081,9.573279,4.205884,14.719904
403990971793993,7.9901657,3.1607556,17.6134
403990981720777,5.818168,3.1414797,18.790232
403990991647561,3.6516778,1.362564,20.090782
403991001571314,2.5532513,1.2872443,20.22283
403991011498098,0.29695103,0.6791234,19.43127
403991021425010,0.4505254,-0.6430302,19.266905
403991031351794,0.13204925,-2.2212856,20.658556
403991041278578,0.80852437,-4.153508,22.211334
403991051205362,0.16561064,-4.527117,23.066938
403991061132146,0.23224904,-4.7338457,22.571888
403991071058930,-0.54270047,-4.073954,21.451252
403991080985714,-0.8106068,-4.409662,18.771395
403991090912498,-1.5774634,-4.2546515,15.30785
403991100832522,-1.8585913,-5.3342247,12.623893
403991110759306,-1.8775057,-5.6757007,11.450105
403991120686218,-1.7202891,-6.110703,11.76785
403991130613002,-1.0475969,-4.78201,12.742787
403991140539786,0.6652813,-4.9143553,12.694339
403991150466570,1.867442,-3.4400043,12.721978
403991160403846,2.2228613,-2.9241261,11.874331
403991170330630,1.875333,-2.199059,11.16073
403991180257414,1.1699405,-3.2544115,9.9873085
403991190184198,1.2414877,-3.318061,9.26362
403991200105793,1.6483427,-3.6542475,8.887895
403991210032449,1.734108,-2.4873464,8.697229
403991219959105,1.8084401,-1.4298837,8.692721
403991229885761,2.0962806,-0.829611,8.591862
403991239812417,1.8224645,-0.8279237,7.295205
403991249739201,1.5077493,-0.119883455,5.975676
403991259665857,0.79495054,0.42200226,5.3996916
403991269592513,0.59332633,0.2469516,4.286758
403991279519169,0.735166,1.1362684,4.0846534
403991289445825,0.64768726,1.4635682,3.363969
403991299363338,0.74135846,3.4615893,1.2052954
403991309289866,2.7102215,3.4996552,2.1690972
403991319216522,1.4891396,2.0831072,3.9619365
403991329143050,0.67872775,1.3746799,5.977498
403991339069578,1.2610095,0.7073812,7.9706535
403991348996234,2.3525288,0.6396456,8.502081
403991358922762,2.9522405,0.14345746,8.902876
403991368849290,3.4037251,-0.13169329,9.428376
403991378775946,3.0365098,0.3712422,9.626827
403991388702474,1.5044237,1.1434976,10.418161
403991398625728,0.8031327,1.5857025,10.240475
403991408552256,1.1963489,2.5883906,8.846796
403991418478784,1.5011874,2.8806384,7.6462836
403991428405312,1.9322029,2.9570386,7.498002
403991438331712,1.0958688,3.0010374,8.254557
403991448258240,-0.1341086,3.1165497,9.498907
403991458184768,-2.65389,2.863164,10.74837
403991468111168,-3.7053957,1.5186038,11.531162
403991478037696,-1.3976467,-1.4200888,10.891271
403991487964224,0.16562502,-2.2753222,7.270903
403991497895608,-1.9251333,-0.44914585,3.1425974
403991507822136,-1.5371444,-1.1456813,4.072801
403991517748664,4.705942,-3.968421,10.268187
403991527675192,6.88608,-1.9540836,14.898309
403991537601720,6.186982,-0.3697795,13.222337
403991547528120,3.3663707,-0.94303924,11.129705
403991557454648,2.5458064,-3.176082,10.696115
403991567381176,2.141689,-2.7368217,12.558743
403991577307704,3.6232846,-2.2240388,14.260173
403991587234232,3.2430806,-1.8885384,15.2439375
403991597163891,4.1161294,-1.3505245,16.251652
403991607090419,5.7595744,0.6202368,16.660013
403991617016947,2.6673157,-0.31843892,13.693768
403991626943603,-0.8263741,-2.069512,10.965421
403991636870131,-3.1167967,-2.8665404,9.420939
403991646796659,-4.002432,-1.9937947,7.507406
403991656723315,-5.6432,-0.31068152,5.085528
403991666649843,-5.7211766,1.2584528,5.588167
403991676576371,-5.1404014,1.9675198,6.6783924
403991686503027,-3.091547,1.8828671,8.7266
403991696430590,-0.94451797,2.137227,10.155568
403991706357246,-0.4584455,1.057158,10.201886
403991716283774,0.121534154,0.15235315,10.408804
403991726210302,1.8918847,-0.7331896,9.871391
403991736136958,2.8656452,-0.9308191,8.96173
403991746063486,2.219049,-0.5094533,9.27321
403991755990014,0.95797586,-0.33972806,11.314711
403991765916670,-1.708735,1.1315507,13.744948
403991775843198,-3.3084548,1.8882741,16.327456
403991785769726,-3.0731964,2.72496,15.759033
403991795691911,-1.7040411,1.8623321,12.473019
403991805618439,-0.49660748,1.2128694,9.275499
403991815544967,3.0716574,2.9154758,8.53136
403991825471495,4.9765296,3.1580193,10.041008
403991835398023,1.8673837,0.096585445,10.540575
403991845324551,1.2183645,0.26109296,9.580412
403991855251079,3.4732585,1.3104099,9.45863
403991865177607,4.6450276,2.1908374,9.934256
403991875104135,5.20964,1.7236347,10.620671
403991885030663,4.939032,0.8558977,11.368348
403991894955347,4.4704175,-0.6757326,11.189274
403991904881875,3.9868631,-0.93395966,10.482679
403991914808403,3.578188,-1.3214437,9.395542
403991924734803,3.2567062,-1.461881,8.00841
403991934661331,2.747727,-1.5771512,6.8682985
403991944587859,1.9730908,-1.7104551,7.5664973
403991954514259,0.09729957,-2.7319462,9.047564
403991964440787,-0.32129446,-3.5477269,9.321958
403991974367315,-0.71421593,-4.5448403,10.396463
403991984293715,-0.38159448,-5.2238283,11.95835
403991994225001,-0.19123346,-5.4441357,13.176906
403992004151529,0.23239346,-4.524231,12.827202
403992014078057,0.070061676,-3.743133,12.388879
403992024004585,-1.1320207,-4.8010235,10.324747
403992033931113,-5.0794578,-5.265909,6.7900624
403992043857641,-5.6053057,-3.883528,4.613387
403992053784169,-0.9088998,-1.8663685,5.841765
403992063710697,1.904127,-2.0328717,6.7923937
403992073637225,1.8122941,-2.98196,6.651788
403992083563753,-1.5302819,-5.596553,8.837788
403992093491377,-1.813147,-5.5272994,11.297001
403992103417905,-3.0622947,-2.9152005,11.39697
403992113344561,-4.601451,-0.7300183,11.131676
403992123271089,-4.874684,0.11568565,11.022866
403992133197617,-5.0183654,0.8765414,11.31078
403992143124145,-6.330401,0.95983815,12.893179
403992153050673,-4.726091,1.5536261,14.745266
403992162977201,-3.070139,1.9009194,14.570083
403992172903857,0.443002,2.3105423,14.380247
403992182830385,4.880924,2.3713682,13.814034
403992192765548,3.0754588,0.8880799,12.689141
403992202692204,2.174961,-0.9186877,10.134237
403992212618860,-0.2520129,0.62923187,6.634479
403992222545516,-1.5308653,1.8038924,5.7385993
403992232472172,-1.683268,2.3946202,6.3270903
403992242398828,-2.6680589,3.4688284,9.423313
403992252325484,-5.7643156,3.7164137,8.940988
403992262252140,-7.9597216,2.8744977,4.536015
403992272178668,31.266708,6.7223983,-8.770962
403992282105324,47.31187,4.355038,-6.9406357
403992292035556,-24.71423,-3.667352,8.504456
403992301962212,-19.390398,2.288473,4.508533
403992311888868,9.415922,6.5104914,6.6293154
403992321815652,0.3468518,4.3844695,7.2327805
403992331742308,-11.034861,1.876441,6.575595
403992341669092,1.8744657,1.9089928,9.25881
403992351595748,2.7259557,3.0125072,9.251274
403992361522532,-1.6103222,3.2177498,7.649687
403992371449188,1.0880615,3.158302,8.832641
403992381375844,0.40531784,2.5816677,9.494182
403992391309690,-0.5667418,2.3924918,9.452937
403992401236474,-0.052491505,2.9848309,10.721862
403992411163258,0.44477648,2.798318,12.780191
403992421090042,-0.24128947,3.1857488,15.785139
403992431016826,-0.3483078,3.0784578,18.613258
403992440943738,-0.91199523,3.2536972,20.01153
403992450870522,-0.15790121,0.43470362,18.012789
403992460797306,-0.7497849,-0.80084515,14.947044
403992470724090,0.8110375,-2.8804522,13.858158
403992480651002,2.9171464,-3.6456032,13.65298
403992490586324,2.103723,-4.6830816,13.820928
403992500513236,-1.7942859,-4.123494,13.735986
403992510440148,-3.179927,-3.2764282,13.493427
403992520367060,-2.0548177,-1.2888672,13.538963
403992530293972,-0.7337854,-0.83855397,14.034254
403992540220884,0.80947614,-2.41057,15.851148
403992550147668,0.6293761,-4.310254,16.553095
403992560074580,0.50495726,-4.193059,16.303728
403992570001492,1.1379008,-3.8984928,15.028166
403992579928404,0.34566036,-3.8070114,13.019942
403992589858282,0.16109647,-1.7858229,11.550476
403992599785194,-1.2934163,-1.5309294,11.015768
403992609712234,-2.5337753,-1.7385378,11.446033
403992619639146,-0.1772017,-2.07845,11.983528
403992629566058,4.608634,-4.658205,11.255782
403992639492970,1.3366003,-4.039249,9.965259
403992649419882,-3.5931454,-0.21544884,8.332475
403992659346922,-0.66469073,-0.8448214,8.085326
403992669273834,-1.0340333,-2.0536454,6.934545
403992679200746,-0.8478052,-2.1927798,6.933843
403992689128515,-0.7224574,-1.5358187,6.689277
403992699055427,-0.25618756,-1.9193698,6.4015064
403992708982339,0.15061496,-0.9851894,5.8637795
403992718909251,1.3679507,-0.5437544,4.1661468
403992728836163,0.8206735,-0.8387255,1.7110019
403992738763075,0.45124483,-3.035094,-0.39720118
403992748689987,-0.16225411,-0.5927454,1.9488746
403992758616899,-0.7219417,3.2048793,3.503005
403992768543939,-2.233384,1.5484018,4.1462717
403992778470851,-2.711344,-0.27830675,4.572293
403992788397157,-0.33310342,-4.7241547E-4,4.775877
403992798324069,0.8979049,-1.0053272,6.163511
403992808250981,1.2308402,-2.3196108,6.870694
403992818177893,1.4119263,-3.5742846,6.587973
403992828104933,1.309524,-5.0120845,6.0197105
403992838031845,0.9894883,-6.234224,5.675188
403992847958757,0.919316,-7.1349583,6.363949
403992857885797,1.2781138,-7.018981,6.99637
403992867812709,4.2449226,-4.5966234,7.146643
403992877739621,4.834876,-1.2768395,8.092165
403992887666281,1.6378645,9.939319,8.524557
403992897593193,-7.506835,8.024256,12.432963
403992907520105,-8.722688,4.421097,15.528263
403992917447017,-3.3338451,7.3433,12.285972
403992927374057,2.2391582,10.048892,9.880271
403992937300969,2.5655808,3.671713,13.458478
403992947227881,-0.61792666,-0.47744793,18.006744
403992957154793,-2.3334775,-1.2296399,17.5753
403992967081705,-0.92750704,1.7674377,15.153563
403992977008617,0.08671843,0.3808278,15.0206785
403992986930998,4.2964263,-1.5127054,16.567371
403992996857910,7.3791957,-2.1664052,16.49499
403993006784822,6.535278,-1.9359124,13.538836
403993016711734,3.6194963,-0.13139376,11.248523
403993026638646,1.1863173,0.4214895,10.3917465
403993036565430,-1.2590665,2.5068376,9.0105095
403993046492342,-0.21631953,3.6817162,6.3708067
403993056419254,-2.1927917,2.834939,2.6764424
403993066346166,-5.3608317,2.7082303,2.7176642
403993076273078,-3.338157,2.9914432,3.8238435
403993086198069,3.3726876,3.2563262,5.360045
403993096124981,7.232049,3.3379624,5.775652
403993106051893,4.1924624,2.7749166,7.4363704
403993115978805,-3.1900601,0.2084095,7.4936323
403993125905717,-5.962204,-1.457268,8.037445
403993135832629,-5.992645,-4.517706,9.8407
403993145759541,-4.807407,-6.007422,9.766588
403993155686453,1.0747914,-4.681693,11.018971
403993165621272,5.3852453,-2.0925932,12.650338
403993175548184,3.9142456,-1.2093824,9.967296
403993185469771,0.7365875,0.9437294,8.700511
403993195396683,2.8515983,2.6951308,8.555414
403993205323595,-0.6809083,-2.7543032,9.809183
403993215250379,-4.275728,-6.105164,12.151499
403993225177291,-2.2253296,-2.8805337,11.395129
403993235104203,-1.2056172,-0.8569449,8.713607
403993245030987,-2.4644105,0.25476068,8.248661
403993254957899,-2.5572333,0.66669345,8.282482
403993264884683,-1.7557391,0.87199455,8.672183
403993274811595,-0.33428276,-1.1852134,8.2679
403993284732671,-0.6352624,-0.8684635,8.935586
403993294659455,-0.1860221,-0.5118836,9.269063
403993304586239,0.06203476,0.08340905,9.302132
403993314513023,0.7118648,-0.21809845,8.829431
403993324439935,1.4515855,-0.13805173,9.130762
403993334366719,1.1400213,0.6734017,9.798455
403993344293503,1.1561058,1.060618,9.902983
403993354220287,1.0511006,1.9699041,9.851648
403993364147199,0.88686377,1.5235714,10.040363
403993374073983,0.49421388,1.9752278,9.86986
403993383993243,0.44784144,1.8988622,9.331086
403993393919899,-0.038205456,2.0655046,8.95294
403993403846683,0.05628063,1.5788958,9.006159
403993413773339,0.5966344,1.8753179,8.935859
403993423699995,0.60863054,1.7767385,9.009644
403993433626779,0.1684437,2.56464,8.789971
403993443553435,-0.5016657,2.510314,8.923366
403993453480219,-0.629452,2.0255473,8.999629
403993463406875,-0.74010867,1.2284958,9.51522
403993473333659,-1.5361547,2.5737193,9.722819
403993483260867,-1.1780146,3.042365,10.473615
403993493187523,-1.3859917,3.6165197,10.446363
403993503114179,-1.2009209,1.1248013,11.346862
403993513040836,-1.2210221,0.97424126,11.303839
403993522967621,-0.8368102,0.7172001,10.685937
403993532894278,-0.057357844,0.08341018,10.334644
403993542820935,0.07009346,0.0905115,10.378505
403993552747592,-0.032866433,0.3017906,10.322805
403993562674377,-0.0902913,0.50375915,10.129492
403993572601034,0.15492515,0.32799765,10.370542
403993582522037,-0.12132903,0.27174032,10.329705
403993592448686,-0.7179343,0.2152831,10.433049
403993602375343,-0.6042434,0.17495844,11.376871
403993612301998,-0.090026945,0.04709517,11.65574
403993622228526,0.09073061,0.8227227,12.01491
403993632155182,0.012851576,0.84337854,12.839584
403993642081838,0.3352289,1.3456455,15.388036
403993652008494,0.37984785,0.5091583,15.534774
403993661935022,0.11288877,-1.4042469,10.621496
403993671861678,0.6060235,-1.7505687,11.16205
403993681789148,0.19553518,-1.1876049,13.277758
403993691715804,-0.6242924,-0.19450189,12.567571
403993701642332,-0.8684857,0.41384906,11.631089
403993711568988,-0.9464946,0.64603895,11.23114
403993721495644,-0.8044729,0.687596,11.343153
403993731422172,-0.6301906,1.169723,11.657698
403993741348828,-1.1428009,2.1931715,11.535037
403993751275356,-2.9700859,-3.786501,9.206771
403993761202012,0.30388305,-2.060641,10.89737
403993771128540,1.451212,-0.6281102,12.827553
403993781055196,-0.040877428,-2.8620985,11.920945
403993790978089,-0.118727684,-1.5924164,11.263583
403993800904617,0.6615472,0.27005878,11.053888
403993810831273,-1.1924868,1.34358,9.035169
403993820757801,-3.8543906,2.6443896,6.060485
403993830684329,-2.9131181,3.8792896,4.475993
403993840610858,-1.0863513,3.5670924,4.5864716
403993850537515,-0.95221066,2.0829518,4.9403157
403993860464044,-1.4009502,0.5896527,6.4403524
403993870390573,0.5470794,0.46602443,9.55762
403993880317102,3.3142745,0.08074134,12.1428795
403993890246139,4.2906756,-0.40398765,12.052648
403993900172668,3.1071029,-0.5353277,10.842728
403993910099197,1.7029338,-0.29219332,10.328234
403993920025718,0.20406152,-0.8311729,9.981117
403993929952375,-0.28442755,-0.6477361,9.034182
403993939878902,-0.2776535,-0.71694565,8.979675
403993949805430,-0.4050542,-0.96981347,9.35523
403993959731958,-0.34630772,2.392313,9.309472
403993969658486,0.703834,5.452995,9.383425
403993979585014,2.8860564,6.8396835,10.082391
403993989519268,2.0169222,3.9892607,9.902914
403993999445924,0.32048783,-0.12098236,8.97436
403994009372452,-1.3051076,-1.7618705,8.873141
403994019299108,-2.101294,-2.3519015,9.066859
403994029225764,-2.7468781,-3.9118793,9.598247
403994039152292,-2.3092666,-3.633603,11.166632
403994049078948,-1.144122,-2.4436464,11.93272
403994059005604,-0.35852665,-1.7192076,11.248201
403994068932132,0.36383998,-1.1697701,10.195988
403994078858788,0.97813934,-0.81694263,9.4508
403994088791153,1.3828562,-0.4633619,9.062513
403994098717810,1.8888961,0.15810996,9.042515
403994108644595,2.9630485,1.7858938,9.450856
403994118571252,4.163257,4.203708,9.852124
403994128497909,3.7846167,4.511822,10.123373
403994138424694,2.2593718,2.7907367,10.179426
403994148351351,1.0886849,1.1347541,9.86907
403994158278008,-0.30083716,-0.026215497,9.624085
403994168204665,-1.6262448,-0.7005962,9.601678
403994178131450,-2.3894646,-0.77135086,9.71986
403994188063609,-2.530928,-0.29336146,10.014501
403994197990394,-1.854868,0.46019292,10.259671
403994207917179,-1.0657638,1.1107792,10.475234
403994217843836,-0.566313,1.4979932,10.393681
403994227770621,-0.30871674,1.8620657,10.260027
403994237697406,-0.32755414,1.9414463,10.201674
403994247624191,-0.5692814,1.8333665,10.11823
403994257550976,-0.6751315,1.7644428,10.022563
403994267477633,-0.6682117,1.8624423,10.028604
403994277404418,-0.71064174,2.0398784,9.97236
403994287335515,-0.5271021,1.6862243,9.818237
403994297262300,0.13718155,0.57861483,9.619628
403994307189213,0.17644233,0.29411697,9.602716
403994317115977,0.40815803,-0.3487437,9.672505
403994327042890,0.2877033,-0.2688157,9.77011
403994336969675,0.29056704,-0.16396075,9.798736
403994346896460,0.19881555,0.083293155,9.901346
403994356823373,0.47477707,0.17031959,9.778188
403994366750158,0.54893905,0.3486434,9.726739
403994376676943,0.39380112,0.4877671,9.866472
403994386603232,0.34476444,0.7057909,9.987319
403994396530017,0.44627294,0.9183829,10.02583
403994406456802,0.53027564,1.1034653,9.946436
403994416383715,0.27071092,0.70905507,9.873155
403994426310500,-0.11249501,0.29874155,9.946046
403994436237413,-0.26363158,0.1748692,9.887293
403994446164198,-0.32533598,0.31344655,9.906058
403994456090983,-0.2712048,0.44519812,9.960882
403994466017896,-0.11742899,0.41321644,9.992313
403994475944681,-0.27880588,0.41015488,10.034502
403994485884020,-0.37863317,0.42575946,10.080709
403994495810933,-0.31889522,0.33570322,10.080788
403994505737974,-0.20845509,0.35025254,10.100206
403994515664887,-0.12108187,0.3516325,10.080197
403994525591928,-0.08129388,0.27466533,10.025308
403994535518841,-0.10185925,0.2297895,9.997771
403994545445882,-0.17201518,0.17443652,9.967686
403994555372899,0.51398116,0.33697137,9.912644
403994565299812,0.39539772,0.30023915,9.95456
403994575226853,0.35836366,0.33042037,9.982705
403994585157294,0.34555838,0.36227116,9.913765
403994595084335,0.24801943,0.37354094,9.813281
403994605011376,0.19601248,0.28946784,9.801988
403994614938417,0.08651762,0.40455058,9.8964615
403994624865458,-0.010542087,0.13425703,10.061858
403994634792499,-0.24917363,-0.0529454,10.261653
403994644719540,-0.45110092,-0.20259354,10.533469
403994654646581,-0.807079,-0.43382952,10.619146
403994664573622,-1.292675,-0.52229863,10.558888
403994674500663,-1.5877935,-0.23988116,10.416358
403994684425520,-1.4800172,0.14754504,10.169211
403994694352561,-1.2757473,0.44686323,9.8700075
403994704279602,-1.2409031,0.6808855,9.613542
403994714206643,-0.97841084,0.979734,9.389008
403994724133684,-0.58131176,1.1058748,9.067416
403994734060725,-0.37373236,1.2025262,8.824815
403994743987766,-0.32150498,1.3108929,8.689284
403994753914807,-0.37392005,0.97606766,8.683032
403994763841848,-0.45339876,0.31081843,8.869954
403994773768761,-0.5510515,-0.123649955,9.141329
403994783692734,-0.55026925,-0.117879644,9.215655
403994793619751,-0.12010289,-0.17983948,8.99769
403994803546664,0.12034226,0.28385976,8.569622
403994813473705,0.57506907,0.71723723,8.124978
403994823400746,0.85230273,0.7816918,7.985785
403994833327659,0.7521553,0.8088693,8.717426
403994843254695,0.6871865,0.67260116,9.572138
403994853181735,0.5969157,0.2803994,10.073006
403994863108775,0.19990836,-0.4760726,10.938908
403994873035687,-0.57856673,-1.6017663,11.630013
403994882958179,-2.0190244,-1.9795314,11.40556
403994892885091,-3.3293037,-1.5624636,10.82015
403994902812003,-3.285298,-0.5307115,10.744122
403994912739043,-2.1836998,0.49485254,10.795871
403994922665955,-0.9830623,1.285943,10.429762
403994932592867,0.08032914,1.4263823,9.949948
403994942519907,1.5290267,1.0891371,9.543962
403994952446819,1.9002025,0.66541225,9.472345
403994962373731,1.2844331,0.5329481,9.560814
403994972300771,0.3676103,-0.07103705,9.582774
403994982227364,-0.053121835,-0.27732092,9.676142
403994992154276,-0.34893477,-0.10715969,9.796989
403995002081188,-0.65860444,-0.20694368,9.811433
403995012008100,-0.37885818,-0.2859039,9.710622
403995021935140,0.024201782,-0.20306784,9.663269
403995031862052,0.1009547,-0.10403877,9.812178
403995041788965,0.21311574,-0.018587224,10.018524
403995051715878,0.2100356,0.05995627,10.167666
403995061642791,0.24789007,0.2997114,10.236835
403995071569832,0.3097887,0.7253521,10.180261
403995081492865,0.24113725,1.1465807,10.016702
403995091419778,-0.0070388843,1.3528281,9.809887
403995101346691,-0.19383158,1.1888205,9.699406
403995111273597,-0.21161851,0.7840113,9.759206
403995121200509,-0.15577136,0.39079276,9.902079
403995131127549,-0.21128781,0.10529462,10.019915
403995141054461,-0.12121072,0.10904496,9.976736
403995150981373,0.14469522,0.24864438,9.815179
403995160908285,0.59330493,0.201178,9.65467
403995170838454,1.0714684,0.11697348,9.558254
403995180761567,1.3213888,0.04505554,9.624253
403995190688351,1.3625193,-0.09009327,9.8869095
403995200615263,1.1892211,-0.33692628,10.132056
403995210542175,0.9024531,-0.47126645,10.156807
403995220468959,0.7178013,-0.5133127,10.076917
403995230395871,0.62405396,-0.5655879,9.99157
403995240322656,0.5693062,-0.6430784,9.919735
403995250249569,0.6198044,-0.5752567,9.957568
403995260176482,0.63605314,-0.5445317,9.997241
403995270103267,0.553118,-0.53277165,10.062296
403995280020262,0.5143801,-0.40335807,10.139148
403995289947047,0.5246546,-0.2269627,10.123973
403995299873832,0.3446421,-0.11050386,9.975359
403995309800617,0.099357165,-0.01603775,9.87051
403995319727402,-0.06191886,-0.018361423,9.864336
403995329654059,-0.16748121,-0.078802735,9.873123
403995339580844,-0.13745329,-0.14006019,9.935881
403995349507629,-0.04156097,-0.24433076,9.992684
403995359434414,-0.019980686,-0.3110083,10.057028
403995369361199,-0.024741683,-0.40924686,10.126383
403995379283214,0.07045269,-0.58635825,10.129423
403995389209999,0.10063702,-0.56619924,10.019035
403995399136656,0.15569499,-0.4358868,9.8678055
403995409063313,0.24259871,-0.46101397,9.803525
403995418989970,0.19411649,-0.5564174,9.805168
403995428916627,0.09632179,-0.5848471,9.852635
403995438843412,0.1389587,-0.5313863,9.87546
403995448770069,0.101086184,-0.517461,9.887705
403995458696726,-0.04008363,-0.5082205,9.955861
403995468623360,-0.32888135,-0.51492447,10.021442
403995478550017,-0.18289861,-0.4614655,9.972151
403995488481290,-0.07226448,-0.31785825,9.800964
403995498407947,-0.266848,-0.15548338,9.921664
403995508334732,-0.43434176,-0.07200046,10.09522
403995518261389,-0.40296647,0.055695012,9.902921
403995528188174,-0.2843467,0.10368166,9.723829
403995538114831,-0.12561183,0.08801934,9.884985
403995548041616,0.03806636,0.11387916,10.155503
403995557968273,0.1403241,0.16360544,10.208788
403995567894930,0.3514172,0.18479279,10.08447
403995577821715,0.60148853,0.25306684,9.88565
403995587748912,0.7494798,0.38409638,9.814369
403995597675569,0.68081856,0.43776387,9.833078
403995607602354,0.29434967,0.5189112,9.938481
403995617529139,-0.16843836,0.49601004,9.96568
403995627455796,-0.44400397,0.44033396,9.812188
403995637382581,-0.5246067,0.5142427,9.652347
403995647309238,-0.52142674,0.6200685,9.591622
403995657236023,-0.48199132,0.74565345,9.528786
403995667162680,-0.4089261,0.79705596,9.514883
403995677089465,-0.33345234,0.7537501,9.688302
403995687018942,-0.3082913,0.70668745,9.8157015
403995696945727,-0.21697919,0.7513905,9.843223
403995706872491,-0.025654614,0.6430729,9.861869
403995716799148,-0.013382262,0.5123,9.90997
403995726725933,-0.062577195,0.45889828,9.939877
403995736652718,-0.17223166,0.32939997,9.947542
403995746579375,-0.27770805,0.20862924,9.989556
403995756506160,-0.2986988,0.21343154,9.996401
403995766432817,-0.20366548,0.26927117,9.98468
403995776359602,-0.11779151,0.19509919,10.01095
403995786282175,-0.10891512,0.13638647,9.951977
403995796208832,-0.13669212,0.13359767,9.863713
403995806135617,-0.14162037,0.12106261,9.880023
403995816062274,-0.1625081,0.03949318,9.882415
403995825988931,-0.20958152,0.013961975,9.907655
403995835915716,-0.19471918,-0.0632683,9.883387
403995845842373,-0.15511677,-0.10223605,9.826012
403995855769030,-0.14703485,-0.07988725,9.771421
403995865695671,-0.18674763,-0.08561451,9.773101
403995875622455,-0.16340107,-0.15874799,9.824612
403995885552311,-0.050666176,-0.18926452,9.846238
403995895478967,0.041018203,-0.1818678,9.85582
403995905405751,0.11852047,-0.19873725,9.869014
403995915332407,0.17192848,-0.28265354,9.827524
403995925259063,0.1928889,-0.1934889,9.768549
403995935185847,0.06921927,-0.06611354,9.782354
403995945112503,-0.02309914,-0.04844692,9.868324
403995955039287,-0.07200146,-0.05285902,9.886358
403995964965943,-0.11575256,-0.031181652,9.984163
403995974892727,-0.06929033,0.0048243296,9.968341
403995984818170,-0.06778502,0.040334646,9.852314
403995994744826,-0.09036697,0.021473814,9.750503
403996004671610,-0.05745724,-0.07443739,9.757839
403996014598266,-0.007143429,-0.18148664,9.862425
403996024524922,0.047434736,-0.19240862,9.927374
403996034451578,0.05116058,-0.16964976,9.882105
403996044378234,0.15852106,-0.060881834,9.746343
403996054305018,0.26056343,0.0062625622,9.7498255
403996064231675,0.2027109,-0.12290231,9.8319235
403996074158332,0.12656477,-0.25840795,9.950474
403996084092601,0.05407736,-0.30372956,10.021557
403996094019386,0.06334742,-0.306035,10.025022
403996103946171,0.06940656,-0.28703424,10.059535
403996113872956,0.040442754,-0.22729638,9.991345
403996123799613,-0.024235176,-0.1312782,9.854107
403996133726398,-0.0774853,-0.1227227,9.811876
403996143653183,-0.13733849,-0.23706757,9.93237
403996153579968,-0.18042672,-0.30648342,10.016377
403996163506753,-0.16583875,-0.18526721,9.943758
403996173433538,-0.08262501,-0.107747264,9.830627
403996183370379,-0.024843596,-0.07843911,9.791552
403996193297280,-0.014779853,-0.06179145,9.85701
403996203224193,-0.051694382,-0.05074128,9.898642
403996213151104,-0.057320643,0.02007362,9.890977
403996223078016,-0.016186275,0.07001886,9.885106
403996233004928,0.0112654045,0.052501127,9.897808
403996242931840,-0.018274102,0.03137121,9.9185295
403996252858752,-0.020406267,0.01811333,9.886085
403996262785664,-0.05787441,0.007286321,9.833678
403996272712448,-0.08622556,-0.066895664,9.844019
403996282638543,-0.09355202,-0.025629045,9.8818445
403996292565455,-0.13822867,0.0083832815,9.936643
403996302492367,-0.17166735,0.04931369,9.940329
403996312419151,-0.17452878,0.14870949,9.908759
403996322346063,-0.13498951,0.17370658,9.908749
403996332272975,-0.14322597,0.1798505,9.898207
403996342199887,-0.16756593,0.21098144,9.826534
403996352126799,-0.17100824,0.16672936,9.76319
403996362053711,-0.14952141,0.14399093,9.818813
403996371980623,-0.15650643,0.08753957,9.976426
403996381909696,-0.1776347,0.03683706,10.060254
403996391836608,-0.16734219,0.053591814,9.972246
403996401763520,-0.10462258,0.07169093,9.834839
403996411690432,-0.07526925,-0.041272562,9.824008
403996421617344,-0.12928542,-0.13364787,9.973198
403996431544256,-0.16171461,-0.084888265,10.037389
403996441471296,-0.14945936,0.0635734,9.9086275
403996451398208,-0.08644547,0.1714193,9.786661
403996461325120,-0.03840507,0.21132877,9.749428
403996471252032,-0.04654296,0.17733452,9.836884
403996481182135,-0.09978702,0.12173885,9.88078
403996491109176,-0.16182844,0.099706195,9.820745
403996501036089,-0.13936967,0.119228765,9.837954
403996510963130,-0.12293306,0.06840212,9.935166
403996520890043,-0.14437716,0.09124835,9.921235
403996530817084,-0.081895754,0.18085665,9.797026
403996540743997,-0.07119807,0.16410404,9.761736
403996550671038,-0.09104385,0.089500606,9.864277
403996560597943,-0.07745449,0.10435624,9.95008
403996570524855,-0.04760437,0.18511206,9.918385
403996580453772,-0.023655381,0.20086901,9.82248
403996590380812,0.0010900613,0.18483745,9.872319
403996600307852,-0.0059509464,0.1702358,9.953157
403996610234764,-0.036094736,0.13705438,9.965456
403996620161804,-0.05062068,0.089261785,9.911539
403996630088844,-0.058940455,0.06807836,9.883742
403996640015884,-0.03950855,0.03799292,9.930859
403996649942924,-0.03685925,0.008693358,9.951493
403996659869964,-0.020369314,0.07396286,9.9496975
403996669796876,0.025808653,0.12846804,9.918772
403996679727279,0.028128307,0.11401159,9.896874
403996689654319,0.005220975,0.14861122,9.904203
403996699581359,-0.03868022,0.1700963,9.9148
403996709508400,-0.09769281,0.17060041,9.95716
403996719435441,-0.128048,0.16757534,10.057631
403996729362482,-0.13610439,0.22602883,10.089043
403996739289523,-0.085908286,0.2956559,9.98915
403996749216564,-0.0223009,0.2663065,9.778313
403996759143605,0.011459391,0.27862462,9.671103
403996769070646,-0.034204613,0.17928113,9.734873
403996778992481,-0.15827481,0.07392833,9.947307
403996788919522,-0.22047094,0.0762053,10.083249
403996798846563,-0.23401564,0.18809956,10.129399
403996808773604,-0.2211622,0.29677957,10.016831
403996818700505,-0.21822417,0.43054283,9.82784
403996828627545,-0.18177778,0.25050074,9.572625
403996838554585,-0.16033617,0.21591076,9.750479
403996848481625,-0.24613823,0.025125176,9.968957
403996858408665,-0.30053166,-0.033413626,10.078111
403996868335705,-0.3510365,0.017629158,10.059435
403996878258393,-0.30334598,0.03166146,9.932255
403996888185305,-0.28172803,0.0572738,9.785061
403996898112217,-0.2686312,0.08276003,9.774816
403996908039129,-0.272601,0.017029898,9.868691
403996917966169,-0.2652924,-0.065820105,9.975843
403996927893081,-0.26950473,-0.024027666,9.853215
403996937819993,-0.19516249,0.07812001,9.693918
403996947746905,-0.16324008,0.0015361254,9.706664
403996957673945,-0.15549074,-0.13868839,9.8151455
403996967600857,-0.15674233,-0.16346368,9.90545
403996977526264,-0.16292061,-0.10766148,9.982927
403996987453304,-0.11555219,-0.096822694,9.893069
403996997380216,-0.02034678,-0.08568479,9.843049
403997007307129,0.05894471,-0.101849645,9.881174
403997017234042,0.09331266,-0.13398424,9.958264
403997027160955,0.06994973,-0.20538978,9.954912
403997037087864,0.059407316,-0.21002367,9.866546
403997047014776,0.05140412,-0.29585606,9.859571
403997056941688,0.086553864,-0.3353897,9.943806
403997066868600,0.05125499,-0.4224186,9.986788
403997076786640,0.01295121,-0.37125874,9.933702
403997086713424,-0.0050144964,-0.23408134,9.931483
403997096640336,-0.05952472,-0.18200046,9.927457
403997106567120,-0.030761417,-0.1966811,9.835809
403997116494032,-0.015004895,-0.19092278,9.803611
403997126420816,-0.018116597,-0.24326321,9.872414
403997136347728,-0.00316492,-0.27372694,9.930987
403997146274512,0.033518262,-0.2598605,9.91067
403997156201424,0.056527205,-0.29294887,9.837731
403997166134805,0.038622092,-0.30246353,9.821937
403997176060638,-0.034002997,-0.27030486,9.847193
403997185987423,-0.09223745,-0.22895014,9.806502
403997195914336,-0.062781155,-0.21553704,9.770788
403997205841121,-0.11781985,-0.17881256,9.7976465
403997215767906,-0.2306397,-0.114325136,9.838995
403997225694819,-0.27387202,-0.10584512,9.763158
403997235621604,-0.19147904,-0.16884805,9.65423
403997245548389,-0.07704386,-0.23517802,9.675519
403997255475302,-0.07267094,-0.2838669,9.848432
403997265402087,-0.12837783,-0.22775312,9.974052
403997275323818,-0.10771282,-0.120849214,9.840119
403997285250603,0.01246141,-0.061547685,9.651851
403997295177388,0.07809058,-0.027964817,9.655634
403997305104173,-0.018341549,-0.05497669,9.767038
403997315030958,-0.03573577,-0.07686555,9.873441
403997324957743,0.0053929593,-0.021244667,9.918615
403997334884656,0.010782796,0.06224913,10.033116
403997344811441,-0.066039704,0.0982107,10.029197
403997354738226,-0.032468386,0.07254104,9.791393
403997364665011,-0.027904801,8.8724424E-4,9.723597
403997374589790,-0.024877429,-0.062834196,9.828883
403997384516575,-0.047757473,-0.09243526,9.985203
403997394443232,-0.07636524,-0.032756925,10.000243
403997404369995,-0.025842227,0.1264237,9.889234
403997414296652,0.0056855096,0.13125974,9.839189
403997424223437,0.043908503,0.07197593,9.825103
403997434150222,0.039622713,0.023920508,9.841025
403997444076879,-0.04167293,-0.06922302,9.878465
403997454003664,-0.10217218,-0.09681278,9.899236
403997463930321,-0.13418156,-0.04671053,9.858466
403997473857106,-0.064137645,-0.036046386,9.790266
403997483785273,-0.10237701,-0.05178947,9.820359
403997493711930,-0.14602871,-0.060600534,9.893331
403997503638715,-0.15270852,-0.07496207,9.923839
403997513565500,-0.17758493,-0.080086306,9.952831
403997523492157,-0.13302171,-0.078079484,9.971241
403997533418942,-0.11452468,-0.01930047,9.944676
403997543345727,-0.10765083,0.00738274,9.899893
403997553272384,-0.089651816,0.046073135,9.798519
403997563199169,-0.06648214,0.024042599,9.809955
403997573125954,-0.05052894,-0.0017828734,9.92651
403997583050007,-0.16603692,0.049400758,10.03944
403997592976792,-0.21992235,0.09129097,10.044729
403997602903449,-0.2225635,0.14651737,9.951322
403997612830106,-0.21778174,0.22973353,9.86369
403997622756763,-0.20017351,0.21973981,9.7881975
403997632683548,-0.118987255,0.19100274,9.819144
403997642610182,-0.18079355,0.12507205,9.8995905
403997652536839,-0.22855854,0.14288493,9.994367
403997662463496,-0.24696119,0.19912922,9.996006
403997672390281,-0.2587915,0.26884103,9.899837
403997682318546,-0.22450359,0.26913834,9.777737
403997692245203,-0.15391293,0.26337993,9.735533
403997702171860,-0.12704368,0.21896414,9.842942
403997712098517,-0.1756954,0.143982,10.025281
403997722025302,-0.22783062,0.14848667,10.076234
403997731951959,-0.21420716,0.17678814,9.933554
403997741878616,-0.14110453,0.1967378,9.793369
403997751805401,-0.10703889,0.17299436,9.800716
403997761732058,-0.09798099,0.16781181,9.919191
403997771658715,-0.14322735,0.13708235,10.035133
403997781581158,-0.20874818,0.06997187,10.107992
403997791507815,-0.20127459,0.09197709,10.063259
403997801434600,-0.21381387,0.07527777,9.970624
403997811361257,-0.19858511,0.076728426,9.846934
403997821287914,-0.16837876,0.06525898,9.851725
403997831214571,-0.21474779,-0.0048163948,9.894906
403997841141209,-0.23266447,-0.030818077,9.981253
403997851067865,-0.22347541,-0.0446902,9.948174
403997860994521,-0.21872398,-0.061022524,9.909887
403997870921177,-0.19597241,-0.038390324,9.885575
403997880845264,-0.16182138,-0.02756595,9.857313
403997890771920,-0.18921252,0.0024708984,9.82893
403997900698576,-0.14891602,0.022918593,9.789283
403997910625232,-0.18224417,0.001772884,9.798214
403997920551888,-0.19987418,-0.01766986,9.856581
403997930478416,-0.22568618,-0.030253734,9.859102
403997940405072,-0.19956565,-0.028440414,9.834858
403997950331728,-0.18892826,-0.032579783,9.806881
403997960258384,-0.1673488,-0.0718583,9.820185
403997970184912,-0.19966461,-0.084135324,9.84143
403997980116529,-0.20831421,-0.105555765,9.850055
403997990043185,-0.20007624,-0.07588893,9.865986
403997999969970,-0.21418197,-0.06267843,9.80967
403998009896627,-0.20295705,-0.040893868,9.770003
403998019823284,-0.20255144,-0.0146188615,9.775148
403998029749941,-0.22863226,-0.014570716,9.828241
403998039676598,-0.24814232,-0.04064572,9.850338
403998049603249,-0.26712844,-0.060823314,9.853456
403998059529906,-0.25424922,-0.084573574,9.844575
403998069456561,-0.2069454,-0.11432174,9.821696
403998079381820,-0.20219849,-0.094753556,9.7935295
403998089308476,-0.1948031,-0.102193154,9.815852
403998099235132,-0.17015906,-0.10238562,9.837155
403998109161788,-0.15836398,-0.08470115,9.840957
403998119088444,-0.10896023,-0.04313722,9.795243
403998129015100,-0.12901479,-0.005965967,9.813399
403998138941756,-0.13321808,-0.056598946,9.836368
403998148868412,-0.10004046,-0.072607,9.802962
403998158795068,-0.07894675,-0.08737435,9.838195
403998168721724,-0.109827675,-0.09484853,9.878816
403998178649044,-0.14830273,-0.051810265,9.878553
403998188575700,-0.10955513,-0.020818664,9.807832
403998198502356,-0.05906886,0.018008433,9.779008
403998208429012,-0.04367478,0.04137221,9.823912
403998218355669,-0.05807423,0.0357724,9.880304
403998228282326,-0.092785224,0.054301605,9.920885
403998238208983,-0.11666439,0.06146452,9.918957
403998248135640,-0.106312275,0.08595324,9.881717
403998258062297,-0.10606845,0.11073188,9.821987
403998267988954,-0.082110755,0.16347198,9.822357
403998277923369,-0.06388108,0.14339988,9.890933
403998287850154,-0.09049314,0.09980468,9.921716
403998297776811,-0.090408005,0.08104507,9.892614
403998307703596,-0.084028125,0.110452674,9.84549
403998317630381,-0.03491572,0.1274929,9.833073
403998327557166,-0.014481695,0.11976214,9.8755665
403998337483951,-0.010332433,0.104898825,9.91177
403998347410736,-0.012664979,0.056602273,9.939741
403998357337521,-0.052014083,0.032419696,9.950483
403998367264306,-0.03933094,0.061301455,9.94235
403998377192465,0.0063576386,0.11209819,9.913287
403998387119250,-0.02022809,0.10043255,9.8868265
403998397046035,-0.030079838,0.052461453,9.890127
403998406972692,-0.009853374,0.047092095,9.935039
403998416899477,-0.02051378,0.028956942,10.032439
403998426826262,-0.07312282,0.005327183,10.001198
403998436753047,-0.046250504,-0.0097512035,9.883075
403998446679810,0.04080819,-0.058127504,9.898318
403998456606595,0.066602394,-0.10867945,10.043517
403998466533380,0.0048261024,-0.13541642,10.030604
403998476469031,-0.021115992,-0.09956061,9.901885
403998486395944,0.024866752,-0.034914006,9.86388
403998496322857,0.024359774,-0.05505056,9.918666
403998506249770,-0.036188684,-0.07594519,9.999735
403998516176555,-0.11442256,-0.022814782,10.016131
403998526103468,-0.11871421,0.004691861,9.92506
403998536030381,-0.053100854,-0.012550838,9.850751
403998545957166,-0.00641966,-0.049385767,9.848952
403998555884079,-0.03906822,-0.12774,9.914186
403998565810992,-0.068813734,-0.18620785,9.9536705
403998575735687,-0.0700976,-0.1503806,9.961593
403998585662600,-0.055002574,-0.08680871,9.976303
403998595589513,-0.06805079,-0.045697976,9.889628
403998605516298,-0.06742656,0.003325353,9.833106
403998615443211,-0.06992302,0.048587725,9.84595
403998625370124,-0.076129004,0.015576009,9.92401
403998635297037,-0.08977347,0.009201423,9.9491825
403998645223822,-0.13185176,0.018453836,9.895446
403998655150735,-0.14192821,0.06878748,9.85009
403998665077648,-0.12349852,0.056943938,9.786437
403998675003951,-0.059206024,0.042396832,9.839481
403998684930712,-0.040975925,-0.018799659,9.931196
403998694857625,-0.08830429,-0.049303886,10.029983
403998704784410,-0.14561865,0.02051135,9.981867
403998714711323,-0.120450355,0.09752592,9.803385
403998724638108,-0.06656351,0.13834576,9.724629
403998734565021,-0.03999138,0.09990913,9.795287
403998744491806,-0.06921982,0.0010086768,9.943988
403998754418719,-0.12169021,-0.012855641,10.016416
403998764345504,-0.18186371,0.06392421,9.961067
403998774279335,-0.17742543,0.13998514,9.800174
403998784206248,-0.0884125,0.1889196,9.693138
403998794133161,-0.02642345,0.107812576,9.734083
403998804060074,-0.07118022,-0.012608179,9.873752
403998813986987,-0.10019878,-0.0729092,9.891397
403998823914028,-0.07637317,-0.03741,9.863025
403998833840941,-0.09493197,0.06619565,9.874165
403998843767854,-0.11530526,0.1512417,9.822145
403998853694750,-0.12660709,0.13772671,9.806461
403998863621662,-0.108586036,0.066550106,9.834667
403998873546282,-0.10594183,0.043460965,9.93274
403998883473194,-0.09993138,0.054241776,10.000932
403998893400106,-0.13455789,0.098234765,9.958656
403998903327018,-0.13649905,0.12347759,9.817484
403998913253930,-0.07741086,0.15331165,9.724412
403998923180842,-0.040309105,0.094694376,9.826488
403998933107754,-0.08223552,0.011111644,9.955389
403998943034538,-0.11908944,-0.00315402,9.969008
403998952961450,-0.11498324,0.04677776,9.917898
403998962888362,-0.11096952,0.10619792,9.881465
403998972816847,-0.1542608,0.11225955,9.914343
403998982743759,-0.19380686,0.067924455,9.948388
403998992670671,-0.19636774,0.030070152,9.90396
403999002597583,-0.12238385,0.020408895,9.818154
403999012524623,-0.103883535,0.027579587,9.858354
403999022451535,-0.068552606,0.03506186,9.924156
403999032378448,-0.08748753,0.024426835,9.965623
403999042305361,-0.083334185,0.013427744,9.934404
403999052232274,-0.049884308,-0.0056754276,9.914902
403999062159187,-0.04224499,0.017911904,9.87049
403999072076308,-0.06564974,0.017136285,9.8614025
403999082003221,-0.052510485,-0.028008573,9.926095
403999091930000,-0.041673563,-0.06399799,10.002872
403999101856912,-0.025959339,-0.05993203,10.040286
403999111783696,-0.05372594,-0.04122459,10.067684
403999121710608,-0.050487235,-0.04302707,10.060682
403999131637520,-0.0764556,-0.01479735,9.968255
403999141564304,-0.022071008,-0.003256281,9.879183
403999151491216,0.010297558,-0.018657096,9.903101
403999161418000,0.018158788,-0.07158717,9.955183
403999171345735,0.028762734,-0.07624229,9.917673
403999181272647,0.043411385,-0.041839663,9.859683
403999191199431,0.06699527,-0.06989818,9.880296
403999201126343,0.045659088,-0.08863007,9.964589
403999211053255,0.0070091374,-0.071870886,9.990939
403999220983832,-0.021438884,-0.07012747,9.923769
403999230910745,0.004550808,-0.053585026,9.875837
403999240837530,0.08248221,-0.042060826,9.853618
403999250764443,0.033879906,-0.07199694,9.933015
403999260691356,0.0029630796,-0.06651038,9.916229
403999270621919,-0.0027801555,-0.010875008,9.86195
403999280548832,0.018205354,-0.022827016,9.89218
403999290475745,0.042376064,-0.06513118,9.8786
403999300402658,-0.0029784625,-0.047293738,9.868182
403999310329571,-0.0079834405,-0.06294678,9.896206
403999320256484,0.039485693,-0.052487556,9.977251
403999330183397,-0.02736672,-0.050161693,9.988716
403999340110310,-0.073335655,-0.029174738,9.923048
403999350037223,-0.06598234,0.0066620316,9.862095
403999359964136,-0.05055841,0.023976544,9.822941
403999369885357,-0.05507673,0.01636096,9.803143
403999379812270,-0.039344486,0.008961107,9.801819
403999389739055,-0.11291173,0.017409703,9.824921
403999399665840,-0.103141,0.033314563,9.826134
403999409592753,-0.12890978,0.0028236029,9.83766
403999419519538,-0.17806067,-0.0049579474,9.88635
403999429446451,-0.21665773,-0.039943557,9.913542
403999439373236,-0.17679337,0.00624978,9.795407
403999449300021,-0.1303403,0.03957949,9.792846
403999459226912,-0.0910173,0.029376332,9.797009
403999469153697,-0.071788974,0.063025355,9.80189
403999479080804,-0.10866841,0.074144155,9.8305645
403999489007717,-0.12462509,0.07538804,9.841366
403999498934502,-0.14069383,0.064289294,9.85661
403999508861287,-0.09000617,0.06815168,9.858292
403999518788200,-0.110719845,-0.010191812,9.87123
403999528714985,-0.14738068,-0.008421678,9.863603
403999538641770,-0.19849144,0.012506316,9.831359
403999548568683,-0.21932349,0.0053986665,9.834328
403999558495468,-0.24930714,-0.055095766,9.823023
403999568422253,-0.26397026,-0.048661105,9.834077
403999578350798,-0.22932985,-0.026572216,9.861463
403999588277711,-0.20445685,-0.011076823,9.847035
403999598204496,-0.17324908,-0.011295452,9.827845
403999608131409,-0.15278086,0.013037555,9.813327
403999618058194,-0.11416263,0.0062434324,9.869031
403999627985107,-0.14833115,-0.06556394,9.907543
403999637912020,-0.17715512,-0.04492296,9.903475
403999647838805,-0.15908699,0.025203157,9.9141245
403999657765718,-0.11132821,0.05983365,9.95732
403999667692503,-0.09554669,0.06508211,10.018793
403999677617928,-0.083492205,0.075046465,10.024833
403999687544713,-0.09308664,0.006323045,10.055745
403999697471602,-0.06521578,-0.03295752,10.041602
403999707398387,-0.09492336,-0.0046667433,9.996949
403999717325172,-0.13101073,0.020429827,9.884507
403999727251957,-0.10206536,0.03718871,9.812536
403999737178870,-0.05080494,0.028732961,9.808788
403999747105655,0.0923355,0.03269206,9.82153
403999757032440,-0.06387737,-0.07563856,9.920539
403999766959225,-0.15735474,-0.061537053,9.914203
403999776884508,-0.14106488,0.0014682753,9.844884
403999786811293,-0.12996939,0.05731724,9.895109
403999796738078,-0.18064821,0.10029223,9.890153
403999806664863,-0.20946914,0.11661429,9.835656
403999816591648,-0.19334261,0.09834222,9.80513
403999826518433,-0.1687967,0.049969006,9.78166
403999836445205,-0.15359312,0.023496,9.784502
403999846371989,-0.15252098,0.027804764,9.846811
403999856298773,-0.21398428,-0.02970201,9.915467
403999866225557,-0.23271982,-0.055086505,9.961332
403999876153188,-0.22763039,7.4636197E-4,9.931791
403999886079972,-0.2166903,0.032583006,9.786543
403999896006756,-0.1724035,0.03708729,9.703346
403999905933540,-0.12619875,-0.0129804155,9.750752
403999915860324,-0.16437727,-0.032836158,9.858092
403999925787108,-0.23983783,-0.040411998,9.914863
403999935713892,-0.279251,-0.04341606,9.859202
403999945640676,-0.32444414,-0.024558198,9.7842865
403999955567460,-0.30453917,-0.025341323,9.749643
403999965494244,-0.2451436,-0.019913059,9.768132
403999975431469,-0.27580923,-0.046937406,9.731792
403999985358381,-0.29017812,-0.07652663,9.76359
403999995285166,-0.26929703,-0.07490438,9.875531
404000005212079,-0.2758956,-0.066759214,9.906467
404000015138992,-0.32735673,-0.050917383,9.821602
404000025065905,-0.27758735,-0.029377325,9.748671
404000034992818,-0.22192255,-0.0904297,9.748806
404000044919603,-0.19649167,-0.10509355,9.882321
404000054846516,-0.20172088,-0.13863719,9.955677
404000064773421,-0.25708345,-0.085778385,9.885057
404000074696572,-0.24346283,-0.00427054,9.758014
404000084623356,-0.21566747,0.07094167,9.732494
404000094550268,-0.19253783,0.0032174005,9.78308
404000104477180,-0.21305759,-0.06742964,9.840236
404000114404092,-0.26702344,-0.118068755,9.86918
404000124330876,-0.29122636,-0.07222192,9.839661
404000134257788,-0.29595968,-0.016263943,9.78523
404000144184700,-0.29558206,-0.03362097,9.789752
404000154111612,-0.27301618,-0.07767809,9.864837
404000164038524,-0.24181178,-0.09039844,9.974789
404000173962888,-0.23588979,-0.10571173,9.977292
404000183889672,-0.21563615,-0.06584993,9.965081
404000193816457,-0.17085823,-0.033047948,10.021599
404000203743370,-0.16615273,0.0072656986,10.094748
404000213670155,-0.17612754,0.05657327,10.102248
404000223597068,-0.24820995,0.09376029,9.985231
404000233523853,-0.25207594,0.10839214,9.752359
404000243450766,-0.14652339,0.1218029,9.682972
404000253377551,-0.10663736,5.42593E-4,9.774525
404000263304336,-0.19853804,-0.110708654,9.87892
404000273236581,-0.22877152,-0.108270414,9.912926
404000283163494,-0.18377656,-0.12489275,10.028505
404000293090407,-0.15385737,-0.12052362,10.145877
404000303017320,-0.13613166,-0.027510663,10.136918
404000312944233,-0.08377692,0.014970645,10.057285
404000322871146,-0.05961753,-0.028409883,10.038861
404000332798059,-0.05348606,-0.0045468113,9.9773245
404000342724972,-0.10330247,0.14395477,9.864027
404000352651885,-0.20194808,0.31010914,9.786174
404000362578798,-0.2181226,0.34573087,9.754564
404000372505483,-0.14382927,0.20331338,9.816825
404000382432524,-0.023696495,-0.063500464,9.865336
404000392359437,0.02984614,-0.26255134,9.891451
404000402286350,0.051939663,-0.30664814,9.9377
404000412213263,-0.010174816,-0.24551901,10.011518
404000422140153,-0.11632645,-0.13625228,10.021736
404000432067066,-0.1509561,0.023882017,9.9756975
404000441994107,-0.09475555,0.11757256,9.918665
404000451921020,-0.053870823,0.11753904,9.921684
404000461847933,-0.024909342,0.099252194,9.918775
404000471773972,-0.007651174,0.07004063,9.895639
404000481700885,0.0018846305,0.010884908,9.8931465
404000491627798,-0.054441035,-0.03165435,9.840378
404000501554839,-0.08530599,-0.06882272,9.794366
404000511481752,-0.07034141,-0.09845194,9.8022785
404000521408665,-0.048599966,-0.10590593,9.878239
404000531335578,-0.09516189,-0.07289288,9.8992605
404000541262491,-0.0921208,-0.02664044,9.883295
404000551189532,-0.05610447,0.004023329,9.903181
404000561116445,-0.047491327,0.05811675,9.89734
404000571043704,-0.08091328,0.09078485,9.8088455
404000580970617,-0.057977866,0.12272882,9.743721
404000590897530,0.038314264,0.10752922,9.741023
404000600824571,0.039783116,0.04235366,9.790691
404000610751484,0.020365885,0.025473382,9.817851
404000620678397,0.011925527,0.03897582,9.812607
404000630605438,0.0052947775,0.030942064,9.816812
404000640532351,0.013913078,-0.011682242,9.86491
404000650459264,0.01120159,0.00938154,9.932242
404000660386282,-0.020522468,-0.024073409,9.942265
404000670307195,-0.044773333,0.028856236,9.936365
404000680234108,-0.071481146,0.06937964,9.946905
404000690161021,-0.079071045,0.12687404,9.877504
404000700087806,-0.060744517,0.15341079,9.795243
404000710014719,-0.0069413884,0.15661147,9.78267
404000719941504,0.013420361,0.098504126,9.783384
404000729868417,0.025260085,0.038968164,9.862697
404000739795202,-0.020742277,0.021831002,9.916511
404000749722115,-0.028239412,0.04997175,9.913947
404000759648900,0.010649187,0.0637385,9.893163
404000769576165,0.02919658,0.06337597,9.87298
404000779503078,0.02372481,0.06739526,9.906251
404000789429991,0.035717394,0.043901086,9.99813
404000799356776,-0.0023108276,-0.0034983417,10.020878
404000809283689,-0.035992697,0.06326924,9.963997
404000819210474,-0.015055254,0.16719371,9.871091
404000829137387,-0.007115843,0.1638667,9.775558
404000839064172,0.029428912,0.07357142,9.796271
404000848991068,0.038398,8.244493E-5,9.887087
404000858917852,-0.014160588,-0.059247356,10.016612
404000868851237,-0.037035737,-0.03670709,10.053676
404000878778149,-0.02184265,0.022983769,10.00052
404000888705061,-0.005344142,0.08737893,9.993137
404000898631973,-0.027139377,0.10481086,9.941259
404000908558885,-0.01646714,0.0752055,9.826051
404000918485797,0.039816897,0.030693304,9.781674
404000928412709,0.033387206,-0.024551114,9.854516
404000938339621,-0.0073402845,-0.04394826,9.937559
404000948266533,-0.02113107,0.0137987295,9.956526
404000958193445,-0.04406151,0.04042044,9.935953
404000968114343,-0.058933973,0.041400038,9.917954
404000978041127,-0.01019486,-0.008405124,9.925687
404000987968039,0.00928843,-0.05649102,9.945356
404000997894951,-0.02915542,-0.08871226,10.02595
404001007821735,-0.035202704,-0.04296201,10.033272
404001017748647,-0.061701383,0.038647335,9.955793
404001027675431,-0.07162964,0.09202527,9.888061
404001037602344,-0.03906827,0.11196216,9.775549
404001047529129,-0.013539685,0.023745906,9.763889
404001057456042,0.0116563365,-0.07747341,9.874481
404001067382827,-0.019951716,-0.17204072,9.954518
404001077309186,-0.07640064,-0.10515373,9.96589
404001087236099,-0.11813635,0.01733687,9.936107
404001097162884,-0.1253572,0.07712365,9.888581
404001107089789,-0.074976705,0.081404306,9.79379
404001117016573,-0.033379085,0.06325184,9.825373
404001126943485,-0.051730737,-0.01845509,9.954377
404001136870269,-0.06512561,-0.05208101,9.945545
404001146797181,-0.10062949,0.017657852,9.886424
404001156723965,-0.09373856,0.09189448,9.833087
404001166650877,-0.058501195,0.08686154,9.823444
404001176578112,-0.08081006,0.039527707,9.832916
404001186505024,-0.086483136,-0.035766833,9.898207
404001196431808,-0.08396889,-0.05037347,9.960555
404001206358720,-0.057158764,-0.031799678,10.01555
404001216285504,-0.03554209,0.050059944,9.963498
404001226212416,-0.09354284,0.0891818,9.846967
404001236139200,-0.09302583,0.060613006,9.776786
404001246066112,-0.08539449,0.03619601,9.810261
404001255992896,-0.06009798,-0.00867643,9.902443
404001265919808,-0.04695537,-0.03587468,9.996286
404001275841984,-0.072434634,-0.01405882,10.057341
404001285768768,-0.0942634,0.08239417,10.007042
404001295695552,-0.06329205,0.12768626,9.878061
404001305622464,-0.016148858,0.09191872,9.873222
404001315549248,-0.032173406,-0.0013972002,9.947088
404001325476032,-0.07277707,-0.018004434,9.886044
404001335402816,-0.054776046,0.00755111,9.813374
404001345329600,-0.03196825,0.03710446,9.848136
404001355256385,-0.06236744,0.021696107,9.900963
404001365183298,-0.09522326,0.020445898,9.9539
404001375105027,-0.10236047,0.026633501,9.936722
404001385031684,-0.10118708,-0.00911785,9.871265
404001394958469,-0.04780898,-0.009347033,9.841326
404001404885254,-0.04383748,0.017702596,9.890158
404001414811911,-0.070057474,-0.01880158,9.935653
404001424738696,-0.10165036,-0.048347022,9.904077
404001434665472,-0.12823157,-0.0124066835,9.830705
404001444592256,-0.07248821,0.03999477,9.852337
404001454518912,-0.083888,-0.0040052594,9.97318
404001464445696,-0.1339791,-0.035343252,10.007366
404001474375919,-0.1127809,-0.041161183,9.927078
404001484302703,-0.11376849,-0.011496501,9.869797
404001494229487,-0.11709851,0.03821893,9.952075
404001504156271,-0.13572174,0.051218856,9.953356
404001514083055,-0.15296622,0.07622398,9.8397455
404001524009711,-0.091680974,0.09945119,9.738534
404001533936495,-0.04429259,0.062349226,9.719595
404001543863279,-0.046328004,0.05929527,9.786419
404001553790063,-0.09517905,0.024910387,9.780151
404001563719349,-0.13919869,0.0034742367,9.719179
404001573649596,-0.13205414,0.008925129,9.746161
404001583576381,-0.13911784,-0.03104766,9.841144
404001593503166,-0.15695706,-0.055080175,9.892389
404001603430079,-0.12590389,-0.02479177,9.849349
404001613356864,-0.08248134,0.021096133,9.845801
404001623283777,-0.076784216,0.0045550973,9.893978
404001633210562,-0.1190205,0.033510108,9.898676
404001643137475,-0.16718619,0.045534868,9.809083
404001653064260,-0.13444321,0.05447802,9.741843
404001662991173,-0.11520212,0.04426094,9.793449
404001672917420,-0.12556797,0.0036074605,9.936213
404001682844205,-0.19040076,-0.06195563,10.000425
404001692771118,-0.2242381,-0.035916694,9.856801
404001702697903,-0.1081231,0.03575637,9.740996
404001712624688,-0.07315227,0.007961959,9.8030405
404001722551473,-0.17246361,-0.071326315,9.898291
404001732478258,-0.23293437,-0.08308548,9.917953
404001742405043,-0.19533078,-0.008728819,9.883194
404001752331956,-0.18529595,0.007058575,9.852901
404001762258741,-0.17569652,0.008368171,9.817569
404001772186110,-0.1462559,0.016630622,9.798112
404001782112895,-0.10375508,-0.053667907,9.85527
404001792039808,-0.13114376,-0.15802236,9.861495
404001801966571,-0.1452089,-0.13238254,9.927094
404001811893356,-0.19242819,-0.09563736,9.97481
404001821820141,-0.23160921,-0.059783436,9.907824
404001831746926,-0.2229434,-0.041315414,9.815021
404001841673707,-0.19177233,-0.09874571,9.76833
404001851600619,-0.19127575,-0.1254813,9.885532
404001861527403,-0.19231784,-0.16871198,10.0072565
404001871457649,-0.16974306,-0.13825847,10.05473
404001881384561,-0.205123,-0.033890143,10.087419
404001891311345,-0.19696315,0.06445451,9.926092
404001901238257,-0.16235627,0.087765366,9.758279
404001911165041,-0.06636087,0.050862484,9.776071
404001921091953,-0.048693623,-0.0371127,9.941603
404001931018865,-0.17038582,-0.13093515,10.037752
404001940945649,-0.26243678,-0.09418608,9.972206
404001950872561,-0.2594288,0.0020904946,9.825008
404001960799345,-0.13870047,0.022287035,9.790099
404001970724483,-0.07322739,-0.011835012,9.875566
404001980651267,-0.11521171,-0.08259052,10.020574
404001990578051,-0.22428876,-0.087980025,10.02767
404002000504963,-0.22176899,0.043340657,9.844943
404002010431747,-0.135048,0.15330811,9.722718
404002020358532,-0.10601761,0.14811505,9.84459
404002030285445,-0.19786958,-0.02357962,9.977573
404002040212230,-0.26204914,-0.05625128,9.929624
404002050139143,-0.18706776,-0.013919008,9.832001
404002060065928,-0.14462242,-0.021378182,9.870709
404002069987483,-0.12662166,-0.008671833,9.896097
404002079914261,-0.11192017,0.029256418,9.933959
404002089841045,-0.12514916,0.0022296186,9.95916
404002099767829,-0.11233755,-8.757789E-4,9.921567
404002109694613,-0.095204264,0.06035825,9.830212
404002119621397,-0.10057194,0.07654629,9.794103
404002129548181,-0.11637803,5.791826E-4,9.741508
404002139474965,-0.08051971,-0.04892208,9.779123
404002149401749,-0.06987349,-0.1168296,9.877316
404002159328533,-0.11145079,-0.22238138,9.983249
404002169235683,-0.14705555,-0.18222512,9.948083
404002179162339,-0.06666628,-0.017992772,9.761712
404002189088867,0.006254188,0.03396867,9.7076025
404002199015523,0.006914555,-0.03667887,9.744912
404002208942051,-0.031896364,-0.153522,9.886937
404002218868707,-0.11720018,-0.15486726,9.9555435
404002228795235,-0.14319162,-0.043252777,9.886111
404002238721891,-0.082079515,0.068417914,9.733622
404002248648419,-0.016976105,0.08305473,9.707265
404002258574947,-0.0012772832,-0.08735292,9.823256
404002268512502,-0.03816829,-0.19668849,9.903003
404002278439159,-0.08213826,-0.15852273,9.907799
404002288365816,-0.10726678,-0.024125995,9.845805
404002298292473,-0.08345143,0.07314969,9.740957
404002308219130,-0.02774852,0.09340783,9.661072
404002318145787,0.015802443,0.033151105,9.684703
404002328072444,0.039087385,-0.1260087,9.767782
404002337999101,0.006634478,-0.19324774,9.882124
404002347925886,-0.05122983,-0.06520791,9.91862
404002357852543,-0.069230415,0.08512481,9.852569
404002367782936,-0.06522963,0.15917404,9.777201
404002377709721,-0.029161142,0.09997808,9.800336
404002387636378,-0.03029902,-0.027215214,9.903861
404002397563163,-0.05379783,-0.09961476,9.872273
404002407489820,-0.06527586,-0.0039102854,9.752973
404002417416477,-0.04476581,0.043811005,9.719131
404002427343262,-0.0015939089,0.019846726,9.79134
404002437269919,-0.013838006,-0.016821021,9.885949
404002447196576,-0.040050995,-0.043764327,9.946143
404002457123361,-0.04010982,-0.04623479,9.953301
404002467054056,-0.0234201,0.037327237,9.914971
404002476980713,-0.01321152,0.13212836,9.801947
404002486907498,0.044238854,0.15255989,9.765403
404002496834260,-0.017007008,0.044516094,9.8777685
404002506761045,-0.076540016,-0.057204723,9.892968
404002516687830,-0.08067966,-0.040958777,9.893018
404002526614615,-0.04839455,-0.015366466,9.871852
404002536541400,-0.019852014,-0.013160657,9.912365
404002546468185,-0.013147149,-0.014160428,9.9896755
404002556394970,-0.045489166,-0.037472278,10.068525
404002566321755,-0.05985431,-0.036355596,10.122763
404002576247310,-0.059937984,0.023245476,10.023152
404002586174095,-0.062692575,0.16155283,9.82656
404002596100880,-0.024374647,0.14659365,9.828979
404002606027665,0.024970446,-0.08091562,9.940543
404002615954322,-0.012037068,-0.19200976,10.048415
404002625881107,-0.051674213,-0.16765521,10.096537
404002635807892,-0.07919198,-0.12521052,10.088268
404002645734549,-0.011379314,-0.045794472,9.974719
404002655661334,0.08606046,-0.023276268,9.922116
404002665588119,0.099162295,-0.054731607,9.984826
404002675516946,0.04498656,-0.14526916,10.022262
404002685443731,-0.026384115,-0.15103729,10.002631
404002695370516,0.0063871075,-0.023626223,9.863582
404002705297301,0.013962757,0.0052965987,9.92718
404002715224086,-0.015691724,-0.11139867,10.054672
404002725150871,-0.03656383,-0.15636486,10.088251
404002735077634,0.0072295247,-0.12035913,10.035165
404002745004291,0.022169508,-0.09669259,9.988696
404002754931076,-0.045444414,-0.049532786,9.939132
404002764857861,-0.06990536,0.043406367,9.790354
404002774793600,-0.02448768,0.06736598,9.765312
404002784720513,-0.048329778,-0.030376934,9.881671
404002794647426,-0.12043401,-0.14037663,9.989479
404002804574211,-0.12550515,-0.087204985,9.944568
404002814501124,-0.1269983,-0.04539482,9.858853
404002824427909,-0.08058421,-0.021286873,9.884326
404002834354812,-0.041303057,-0.007870909,9.971518
404002844281724,-0.08949421,-0.035890594,10.003371
404002854208508,-0.1196916,-0.012868325,9.855236
404002864135420,-0.10744677,0.07757378,9.730817
404002874065140,-0.06571815,0.10240572,9.743973
404002883992052,-0.043962147,0.03712975,9.854409
404002893918964,-0.07727333,-0.082972676,9.935717
404002903845748,-0.086296424,-0.10721574,9.922493
404002913772660,-0.06482091,-0.050977636,9.946935
404002923699572,-0.08388742,-0.0070442474,9.872097
404002933626484,-0.046635777,0.051712424,9.777652
404002943553268,-0.019125504,0.1022633,9.766258
404002953480180,-0.0014077503,0.044984445,9.823822
404002963407092,-0.048799116,-0.004762706,9.804802
404002973332212,-0.06962071,-0.0012577695,9.767393
404002983259124,-0.09717626,-0.008429443,9.808437
404002993185908,-0.06869093,-0.050486695,9.838254
404003003112820,-0.028775278,-0.039905127,9.870109
404003013039605,0.047068164,-0.0560245,9.867846
404003022966518,0.043333583,-0.026985953,9.82986
404003032893303,0.04065118,-0.0077131647,9.81813
404003042820216,0.10336953,0.0625626,9.761794
404003052747129,0.112356566,0.04268502,9.824388
404003062673914,0.010101951,-0.052760128,9.908556
404003072598559,-0.019033771,-0.05186769,9.858497
404003082525472,0.025678305,-0.03510658,9.830824
404003092452248,0.083473235,-0.077742554,9.902985
404003102379160,0.0839811,-0.13081995,9.93528
404003112306072,0.019989679,-0.10544617,9.941046
404003122232856,-0.028206225,-0.073897935,9.931307
404003132159768,0.030571487,-0.07546996,9.810423
404003142086552,0.059389964,-0.022999609,9.801705
404003152013464,-0.0148297725,-0.06428807,9.910716
404003161940248,-0.06638672,-0.12158368,9.90575
404003171863442,-0.03937023,-0.031950474,9.808871
404003181790354,-0.008731004,-0.01884539,9.856719
404003191717139,-0.05985682,-0.091328,9.945121
404003201643924,-0.070798695,-0.056991205,9.8083
404003211570709,-0.035509437,-0.009915808,9.706193
404003221497618,0.016863322,-0.05822686,9.759096
404003231424402,-0.014078326,-0.079446144,9.823547
404003241351186,-0.094272986,-0.08347721,9.86355
404003251278098,-0.080764286,-0.07827239,9.811723
404003261204882,-0.061177853,-0.09707257,9.834253
404003271135890,-0.029797936,-0.13297568,9.938723
404003281062802,-0.051230785,-0.16267793,10.015815
404003290989586,-0.06533141,-0.14227569,9.950458
404003300916499,-0.08447604,-0.07797173,9.924196
404003310843412,-0.11949243,-0.117214285,9.889674
404003320770197,-0.16468541,-0.081632584,9.798531
404003330697110,-0.16809794,-0.09031471,9.781289
404003340624023,-0.14262094,-0.15758511,9.836732
404003350550936,-0.182056,-0.20334324,9.888204
404003360477721,-0.18475217,-0.17398468,9.929513
404003370407088,-0.12351973,-0.14375156,9.8911915
404003380334001,-0.10740971,-0.077936195,9.860186
404003390260914,-0.11798827,-0.0057692663,9.820286
404003400187827,-0.15725064,0.004021737,9.76258
404003410114740,-0.16377813,-0.013251262,9.756932
404003420041653,-0.17634982,-0.042627383,9.882666
404003429968566,-0.16421515,-0.10168915,9.978202
404003439895479,-0.21337141,-0.10525743,10.008357
404003449822392,-0.1885682,-0.084489554,9.991328
404003459749305,-0.113014124,-0.074750766,9.919906
404003469679756,-0.078141436,-0.058223814,9.855446
404003479606669,-0.07531255,-0.067378886,9.857832
404003489533710,-0.10272447,-0.09151434,9.824179
404003499460623,-0.12598254,-0.10168917,9.841557
404003509387664,-0.14660329,-0.11102591,9.986403
404003519314577,-0.14855202,-0.18732448,10.075775
404003529243449,-0.06510486,-0.19468863,10.007648
404003539170362,0.035000976,-0.18403466,9.940069
404003549097403,0.09573051,-0.21679606,9.916981
404003559024316,0.09170055,-0.25354156,9.863118
404003568946053,0.02209281,-0.20865929,9.813852
404003578872966,-0.0293833,-0.11981187,9.800329
404003588799879,-0.064382456,-0.09861454,9.870487
404003598726792,-0.080535226,-0.11906661,9.977022
404003608653833,-0.058863204,-0.15723398,10.028062
404003618580746,-0.014219347,-0.13734001,9.949809
404003628507659,0.072691165,-0.0780727,9.875185
404003638434572,0.12665613,-0.047431514,9.8625965
404003648361613,0.03146836,-0.04641829,9.84432
404003658288526,-0.11294249,0.03910439,9.766963
404003668214937,-0.11252571,0.051782224,9.668827
404003678141850,-0.09022178,0.03905843,9.698841
404003688068763,-0.06187286,-0.019510966,9.855525
404003697995676,-0.089895055,-0.11209956,9.969349
404003707922589,-0.05871827,-0.13703744,9.96848
404003717849502,-0.031296995,-0.14309049,9.898141
404003727776543,-0.015079396,-0.029198602,9.779187
404003737703456,-0.01578916,0.023509677,9.686627
404003747630369,-0.025179999,-0.022530103,9.71384
404003757557282,-0.04955291,-0.020468475,9.829912
404003767475321,-0.11931325,-0.081113786,9.933734
404003777401978,-0.14921099,-0.15922424,9.903485
404003787328763,-0.13291954,-0.14371197,9.854532
404003797255548,-0.07801849,-0.15068841,9.795717
404003807182205,-0.040568,-0.15084237,9.803093
404003817108990,-0.036646716,-0.17983145,9.778689
404003827035775,-0.044723663,-0.19009495,9.763493
404003836962553,-0.056677867,-0.1120029,9.759917
404003846889209,-0.10256402,-0.04162541,9.825544
404003856815993,-0.1278875,-0.038624182,9.886259
404003866746495,-0.078711316,-0.09508337,9.888858
404003876673407,-0.041944053,-0.09315198,9.821856
404003886600191,-0.008186892,-0.11141896,9.787947
404003896526975,2.112457E-4,-0.1265887,9.793076
404003906453759,-0.0013729059,-0.12500052,9.867466
404003916380671,-0.09782368,-0.09012104,9.9453
404003926307455,-0.11915762,-0.06035566,9.942005
404003936234239,-0.060918465,-0.0406669,9.924883
404003946161023,-0.04261598,-0.059680793,9.937866
404003956087935,-0.012577187,-0.03474261,9.882818
404003966020107,0.00563977,-0.07435607,9.878561
404003975947019,-0.014946225,-0.114199765,9.924404
404003985873803,-0.04367289,-0.14754175,9.914585
404003995800715,-0.052802466,-0.06829386,9.898587
404004005727627,-0.04156384,-0.024630537,9.938736
404004015654411,-0.03588926,-0.0899792,9.957118
404004025581323,0.004397209,-0.10935969,9.904448
404004035508235,0.026449118,-0.07640861,9.8610115
404004045435019,-0.0070316307,-0.12091019,9.89146
404004055361931,-0.031133309,-0.13218892,9.920749
404004065288240,-0.048022274,-0.07971302,9.875017
404004075215152,-0.054921035,-0.056744847,9.822125
404004085141936,-0.05027896,-0.06963261,9.836792
404004095068849,-3.1458322E-4,-0.13830823,9.903919
404004104995634,0.018219264,-0.20774812,9.995197
404004114922544,-0.010625151,-0.21775185,10.0818
404004124849456,-0.06176869,-0.11304632,10.032119
404004134776240,-0.045436967,-0.0023568901,9.831229
404004144703152,0.041166235,0.018594174,9.705707
404004154629936,0.056182195,-0.034437258,9.785047
404004164555672,0.010466964,-0.13675183,9.902428
404004174482456,-0.081354946,-0.21939154,9.951952
404004184409240,-0.12040727,-0.16259152,9.91435
404004194336152,-0.058943387,-0.09051721,9.87925
404004204262936,0.04846649,-0.064021945,9.856376
404004214189848,0.045658663,-0.09677249,9.901222
404004224116632,0.04604566,-0.11879394,9.8577
404004234043544,0.029479407,-0.105566174,9.806295
404004243970328,0.028229006,-0.066332094,9.845399
404004253897112,0.013086513,-0.033025578,9.8737
404004263811364,-0.01782727,0.008040856,9.925171
404004273738020,-0.053289894,-0.022922507,9.938849
404004283664804,-0.07487005,-0.09292135,9.840074
404004293591460,0.042993978,-0.059999164,9.714746
404004303518244,0.07341892,-0.09677985,9.76191
404004313444900,0.0067044212,-0.1668496,9.883118
404004323371684,-0.023909261,-0.110384725,9.932379
404004333298340,-0.039917544,-0.04033178,9.891606
404004343224996,-0.063503206,0.007211204,9.780312
404004353151780,-0.026901148,0.013286208,9.73506
404004363084584,0.021309359,-0.02452886,9.802763
404004373011368,0.031445004,-0.071366064,9.874758
404004382938152,0.0019452622,-0.07810756,9.922941
404004392864936,-0.011016003,-0.096706696,9.914526
404004402791720,-0.029827142,-0.03713117,9.887721
404004412718504,-0.0056319046,0.01395142,9.827965
404004422645288,0.02520245,0.01845083,9.830302
404004432572072,0.025306635,-0.053248554,9.9083805
404004442498856,0.052920125,-0.120753475,9.902098
404004452425768,0.065866664,-0.07102759,9.877458
404004462360121,0.053093057,-0.032018535,9.850651
404004472287034,-0.052381456,-0.09859236,9.829924
404004482213947,-0.018384313,-0.07011248,9.729558
404004492140860,0.09821911,-0.09163649,9.761864
404004502067773,0.074286066,-0.16940004,9.886287
404004511994558,0.00823549,-0.20158327,9.871354
404004521921471,0.03770843,-0.13495173,9.766395
404004531848384,0.050366025,-0.06911778,9.7874775
404004541775297,0.08079315,-0.055964157,9.804317
404004551702072,0.055598658,-0.072267644,9.835783
404004561629407,0.024438506,-0.12459895,9.907315
404004571556319,0.056256827,-0.15988724,9.9956255
404004581483231,0.04700431,-0.09180481,9.986428
404004591410143,0.018154616,-0.09054593,10.020291
404004601337055,-0.013808021,-0.056759316,9.92703
404004611263967,-0.010593657,-0.05413344,9.77824
404004621190879,0.045440417,-0.062437702,9.82312
404004631117791,-0.0077647706,-0.15774511,9.878033
404004641044575,-0.0496495,-0.21259467,9.867139
404004650971487,-0.012079146,-0.15752378,9.834521
404004660905676,-0.017207922,-0.09289644,9.803637
404004670832588,-0.022553733,-0.05157399,9.794084
404004680759500,-5.4248485E-5,-0.10623892,9.862395
404004690686412,-0.035786085,-0.1859634,9.962114
404004700613452,-0.040238786,-0.1912432,10.024217
404004710540364,-0.12095216,-0.17939802,10.155248
404004720467276,-0.058533724,-0.1121095,10.064466
404004730394316,0.0059831305,-0.0683087,9.973346
404004740321228,-0.045032386,-0.0831727,10.036699
404004750248140,-0.050205253,-0.1503383,10.07616
404004760175180,-0.04264895,-0.22903709,9.9966955
404004770106212,-0.083121374,-0.23623413,9.883033
404004780033252,-0.07867301,-0.13972163,9.830943
404004789960165,-0.053699184,-0.1746463,9.957281
404004799887206,-0.11267842,-0.29672736,10.07685
404004809814119,-0.13021062,-0.2776239,9.979717
404004819741160,-0.093096256,-0.20226996,9.853371
404004829668073,-0.04599383,-0.22677402,9.95497
404004839595114,-0.06974184,-0.26167026,9.950562
404004849522027,-0.081852406,-0.16916758,9.866474
404004859449068,-0.0891961,-0.16283934,9.95485
404004869383227,-0.15181684,-0.21535015,10.0195465
404004879310396,-0.15592533,-0.13145821,9.875921
404004889237437,-0.0936792,-0.06205505,9.816153
404004899164467,-0.07771808,-0.15414695,9.90076
404004909091507,-0.059254292,-0.19517082,9.976099
404004919018547,-0.06615584,-0.17170818,9.995003
404004928945587,-0.12542453,-0.07809683,9.868915
404004938872755,-0.14278667,-0.024614243,9.7528
404004948799795,-0.05606431,-0.013473954,9.778247
404004958726835,-0.008944449,-0.08723493,9.872379
404004968652996,-0.052162018,-0.13045983,9.933845
404004978580036,-0.08103964,-0.11914088,9.811813
404004988507076,-0.07299209,-0.05312968,9.764809
404004998434116,-0.008658551,-0.03186475,9.747916
404005008361284,-0.014086271,-0.0063627665,9.742932
404005018288324,-0.019517776,0.03642543,9.71882
404005028215364,-0.030396847,-0.013892785,9.698564
404005038142404,-0.0048441584,-0.0013735164,9.726888
404005048069572,0.06309585,0.012727835,9.825543
404005057996612,0.025311582,0.01305987,9.916471
404005067903318,-0.053408284,0.025761515,9.817268
404005077830230,-0.009506874,0.05823886,9.676484
404005087757142,0.056958262,0.0070294817,9.654563
404005097684054,0.119055346,-0.0990524,9.745188
404005107610967,0.06274156,-0.12480661,9.8850975
404005117537880,-0.043851987,-0.08967707,9.923197
404005127464793,-0.010616597,-0.017602509,9.820243
404005137391706,0.08509807,0.018425131,9.724036
404005147318619,0.09303082,-0.036196414,9.738782
404005157245532,0.030565878,-0.14656337,9.820255
404005167162473,-0.022053024,-0.20584549,9.81141
404005177089258,0.04316659,-0.17923567,9.813819
404005187016043,0.0510185,-0.16173187,9.886497
404005196942690,0.00698354,-0.12092161,9.94359
404005206869474,-0.013593327,-0.11986131,9.927706
404005216796258,0.018174952,-0.16843814,9.764147
404005226723042,0.055187076,-0.21235332,9.66324
404005236649826,0.048924804,-0.22482677,9.655579
404005246576610,0.016895326,-0.23523004,9.7565155
404005256503394,-0.0723229,-0.24279355,9.894206
404005266434341,-0.12489732,-0.22554895,9.895368
404005276361125,-0.12241598,-0.15106073,9.864509
404005286287909,-0.07767663,-0.18386444,9.8796215
404005296214821,0.023547558,-0.2088995,9.896432
404005306141605,0.024290694,-0.20854904,9.949217
404005316068389,-0.07560319,-0.21934894,9.942059
404005325995173,-0.15071264,-0.14216797,9.78544
404005335921957,-0.13670678,-0.04540713,9.743408
404005345848869,-0.106470495,-0.06259815,9.8535185
404005355775653,-0.1681136,-0.16961578,9.935344
404005365700898,-0.18384409,-0.20644473,9.823682
404005375627682,-0.080244966,-0.21954997,9.770964
404005385554466,-0.028054433,-0.22718959,9.837036
404005395481250,-0.11298368,-0.1807977,9.917475
404005405408035,-0.18216915,-0.053265605,9.896041
404005415334948,-0.16920207,-0.04999736,9.9137745
404005425261733,-0.09320287,-0.1531341,9.918937
404005435188518,-0.03812299,-0.13540982,9.838843
404005445115303,-0.008107559,-0.102404416,9.793022
404005455042088,-0.03738744,-0.19541653,9.8147545
404005464967443,-0.019956652,-0.282857,9.9190445
404005474894221,0.002939186,-0.26660228,10.09356
404005484821005,-0.100720726,-0.19083542,10.170544
404005494747789,-0.13870741,-0.10501195,10.019158
404005504674573,-0.03717472,-0.053313147,9.762354
404005514601229,0.13722742,-0.08287111,9.705045
404005524528013,0.19773312,-0.23164766,9.879408
404005534454797,0.054165218,-0.33406317,10.101849
404005544381581,-0.095580384,-0.27841362,10.1034775
404005554308365,-0.10788687,-0.14713775,9.944485
404005564237213,0.0011943144,-0.06324995,9.810822
404005574163997,0.09435559,-0.12487061,9.898996
404005584090781,0.059867904,-0.25002146,9.9708
404005594017565,-0.011858294,-0.29005355,9.944101
404005603944477,0.0379178,-0.2452517,9.822892
404005613871261,0.08944466,-0.1610726,9.843506
404005623798045,0.04149844,-0.10291133,9.962647
404005633724829,-0.09211183,-0.13973376,9.986799
404005643651613,-0.095161535,-0.16666022,9.842502
404005653578397,-0.005307884,-0.22071284,9.776936
404005663503886,-0.0048014503,-0.24778606,9.904335
404005673430670,-0.024672369,-0.16892841,10.032621
404005683357454,-0.059649263,-0.06503387,10.085405
404005693284238,-0.11464841,0.028453123,9.973389
404005703211022,-0.04137308,0.06190846,9.707314
404005713137806,0.007609437,-0.022726197,9.66996
404005723064590,0.007307294,-0.2124032,9.739339
404005732991374,-0.054322667,-0.27012855,9.842871
404005742918158,-0.13138603,-0.24706984,9.93103
404005752844942,-0.14062232,-0.19948772,10.024185
404005762770974,-0.09957288,-0.13040407,10.043966
404005772697758,-0.03735459,-0.03393112,9.902066
404005782624542,0.033969097,-0.04292454,9.784709
404005792551326,0.016610902,-0.15291137,9.715852
404005802477982,-9.347579E-4,-0.22102189,9.709704
404005812404766,-0.05277784,-0.1553356,9.832974
404005822334590,-0.13254002,-0.120324224,10.033901
404005832261374,-0.21497016,-0.12312463,10.042584
404005842188158,-0.08845023,-0.034422606,9.859766
404005852114942,0.038480915,-0.056179196,9.804024
404005862034714,0.12839073,-0.15983991,9.834168
404005871961370,0.12067588,-0.1891386,9.799752
404005881888026,0.039600298,-0.08719732,9.782255
404005891814682,-0.028830456,0.061034795,9.784941
404005901741338,-0.035990402,0.10839166,9.73413
404005911667994,0.008939779,0.12392644,9.737521
404005921594650,0.08073453,0.035577454,9.766423
404005931521306,0.07035799,-0.215762,9.906979
404005941447834,0.070629545,-0.31401083,9.954829
404005951374490,0.07913103,-0.19913939,9.819075
404005961305967,0.044629313,-0.016190343,9.701365
404005971232623,0.02396984,0.028348288,9.7862215
404005981159279,0.02727407,-0.00976301,9.848948
404005991085935,0.07209193,-0.072987035,9.809159
404006001012591,0.122042745,-0.17148422,9.839424
404006010939247,0.14883895,-0.24268287,9.930594
404006020865903,0.1263912,-0.25907052,9.938658
404006030792559,0.06538259,-0.14578392,9.852376
404006040719215,0.037781503,-0.080607325,9.696412
404006050645999,0.06620467,-0.13925587,9.65066
404006060572694,0.07256625,-0.19664802,9.771453
404006070499478,5.9592625E-4,-0.24480368,9.973168
404006080426134,-0.03199378,-0.2603076,10.052564
404006090352790,-0.0069974563,-0.20355903,9.991711
404006100279446,0.022982376,-0.17369023,9.888039
404006110206102,0.0942174,-0.16562721,9.801658
404006120132758,0.05221327,-0.23612441,9.820668
404006130059542,-0.014206314,-0.31322563,9.813855
404006139986198,-0.046378788,-0.28828818,9.804234
404006149912854,-0.11127613,-0.21710268,9.880934
404006159842521,-0.1598107,-0.17195718,10.009287
404006169769177,-0.19775823,-0.23628339,9.97104
404006179695833,-0.09941662,-0.23974715,9.869968
404006189622489,-0.018058358,-0.2273648,9.846314
404006199549146,-0.07483273,-0.2568811,9.820948
404006209475931,-0.06666845,-0.27176064,9.766396
404006219402588,-0.16040985,-0.28983644,9.896834
404006229329245,-0.20009992,-0.25668168,10.066708
404006239255902,-0.24185392,-0.1520881,10.125513
404006249182687,-0.24445358,-0.09260248,10.0168915
404006259122768,-0.17366432,-0.1270261,9.77957
404006269049545,-0.042186115,-0.2107966,9.6548195
404006278976457,-0.016791722,-0.33566076,9.755854
404006288903241,-0.17382503,-0.34276944,9.977756
404006298830153,-0.38931128,-0.28633153,10.058429
404006308756937,-0.33222884,-0.14647186,9.936614
404006318683849,-0.19471921,-0.09198359,9.873841
404006328610633,-0.041827105,-0.15512112,9.841594
404006338537545,-0.021195795,-0.23679537,9.86992
404006348464329,-0.11931903,-0.31109908,9.877671
404006358398773,-0.17079194,-0.23659468,9.801654
404006368325685,-0.1948684,-0.11481557,9.7463875
404006378252597,-0.16171755,-0.016499972,9.791405
404006388179637,-0.15911815,-0.06906607,9.897374
404006398106549,-0.109130576,-0.17760667,9.949161
404006408033589,-1.7203683E-4,-0.278031,9.923264
404006417960502,0.013364701,-0.2703304,9.967408
404006427887415,-0.019080814,-0.16382271,9.842479
404006437814456,-0.07720855,-0.04843604,9.703736
404006447741369,-0.060358327,-0.0052130837,9.618391
404006457674514,0.013571458,-0.055416197,9.78211
404006467601683,-0.006026744,-0.16501488,10.069073
404006477528724,-0.0751509,-0.180883,10.136309
404006487455765,-0.07619114,-0.05737359,9.864682
404006497382934,0.09408994,0.08717503,9.573755
404006507309975,0.24412908,0.05980873,9.567473
404006517237016,0.15797713,-0.12368294,9.768317
404006527164174,0.00498537,-0.1819563,9.952232
404006537091214,-0.12089271,-0.13207924,10.051385
404006547018382,-0.12110174,-0.03827692,10.046529
404006556944865,0.02619422,0.056492455,9.999055
404006566871905,0.10929803,0.09400628,9.913488
404006576799073,0.064943194,-0.027617253,9.737699
404006586726241,0.1278031,-0.08991119,9.5761595
404006596653281,0.17630303,-0.16721079,9.704472
404006606580449,0.015994098,-0.2455537,10.079979
404006616507617,-0.10920006,-0.20095326,10.203265
404006626434657,-0.10979224,-0.063524306,10.049516
404006636361825,0.083409525,-0.010965814,9.806023
404006646288993,0.26846194,-0.12509908,9.746786
404006656204568,0.17091376,-0.33849972,9.821876
404006666131480,0.09086462,-0.307006,9.696088
404006676058392,0.05867649,-0.22416268,9.674544
404006685985432,0.028539294,-0.19554003,9.854937
404006695912344,-0.039102122,-0.17759569,10.061495
404006705839256,-0.084687084,-0.15503119,10.084863
404006715766296,-0.03250408,-0.09668594,9.896327
404006725693208,0.095394865,-0.23145215,9.684303
404006735620120,0.22113447,-0.31591913,9.712324
404006745547032,0.08826175,-0.33958587,9.897481
404006755476270,-0.122483104,-0.31747228,9.947774
404006765403310,-0.19052818,-0.15600479,9.853964
404006775330222,-0.106194235,-0.060027823,9.804346
404006785257134,-0.066070534,-0.088039935,9.850414
404006795184174,-0.06391046,-0.19152015,9.72833
404006805111086,-0.021871433,-0.21971421,9.563226
404006815037998,0.038502153,-0.2846988,9.622732
404006824965038,-0.09467724,-0.36001793,9.84672
404006834891950,-0.22672707,-0.22488357,9.890133
404006844818862,-0.23270251,-0.04788839,9.824577
404006854747515,-0.17502429,0.013223771,9.7659645
404006864674427,-0.045192983,-0.0635615,9.746347
404006874601467,0.05616932,-0.18881537,9.768141
404006884528507,0.01265199,-0.26994225,9.876031
404006894455419,-0.072684646,-0.25589404,9.894119
404006904382459,-0.14246272,-0.15951799,9.8126335
404006914309371,-0.1440195,-0.04703412,9.761279
404006924236411,-0.15460427,-0.09166488,9.775424
404006934163451,-0.07651409,-0.1675099,9.740547
404006944090363,0.006184361,-0.2667369,9.814633
404006954014910,0.004615746,-0.35720667,9.959381
404006963941822,-0.057567537,-0.29195142,9.980979
404006973868862,-0.09004398,-0.15837589,9.876731
404006983795774,-0.0801392,-0.08301728,9.689633
404006993722814,0.014619204,-0.128954,9.626963
404007003649726,0.07291027,-0.27035913,9.762315
404007013576638,0.06854258,-0.3556068,9.993354
404007023503678,-0.026173536,-0.32885462,10.001696
404007033430590,0.03989706,-0.20407645,9.872749
404007043357630,0.10805379,-0.13493769,9.884105
404007053274027,0.019624885,-0.18656942,9.986672
404007063200939,0.00207636,-0.2519786,9.969663
404007073127723,0.02549367,-0.24556023,9.889574
404007083054635,0.066637695,-0.24264184,9.885388
404007092981547,0.09782896,-0.1860543,9.958863
404007102908331,0.10655649,-0.1410241,10.0213175
404007112835243,0.0061478415,-0.12874232,10.033515
404007122762155,-0.08947184,-0.1263873,9.918776
404007132688939,-0.015657606,-0.16216394,9.787561
404007142615851,-0.0062023904,-0.21611775,9.899329
404007152536190,-0.079860464,-0.2762361,9.959842
404007162463102,-0.010039665,-0.16488583,9.855314
404007172389886,0.077988006,-0.08698784,9.923072
404007182316670,0.076044574,-0.09575081,10.103127
404007192243454,0.0055346107,-0.11186261,10.127277
404007202170238,-0.045961432,-0.13485906,9.977387
404007212097022,0.0046053627,-0.1659999,9.774738
404007222023806,0.04284946,-0.16483514,9.784439
404007231950718,-0.0050125225,-0.22526564,9.920871
404007241877502,-0.113905564,-0.26354375,10.05777
404007251803540,-0.13162515,-0.21624672,10.029623
404007261730324,-0.03975006,-0.13732077,9.979975
404007271657108,0.023654053,-0.1157138,10.010563
404007281583892,-0.06228282,-0.19311976,10.019758
404007291510676,-0.07272913,-0.16283539,9.900927
404007301437460,-0.0018926517,-0.11285715,9.80684
404007311364244,-0.017519722,-0.08649829,9.846194
404007321291028,-0.05385356,-0.05864876,9.886581
404007331217812,-0.06777321,-0.063364126,9.864071
404007341144596,-0.04403765,-0.1210411,9.892734
404007351068074,-0.024995977,-0.16836514,9.908914
404007360994858,-0.018789647,-0.18839256,9.861535
404007370921514,-0.06626988,-0.1609145,9.795493
404007380848298,-0.067894906,-0.13717063,9.684668
404007390774954,0.044454154,-0.111344606,9.74025
404007400701738,0.04025037,-0.12701315,9.949001
404007410628395,-0.05770031,-0.14340134,10.1175995
404007420555180,-0.041119948,-0.15237445,10.075633
404007430481837,0.021031804,-0.18318154,9.871408
404007440408622,0.06942296,-0.19830175,9.644449
404007450336033,0.031228028,-0.1514528,9.60048
404007460262818,-0.004655627,-0.24371894,9.742988
404007470189475,-0.004572013,-0.32967573,9.93116
404007480116260,0.007255316,-0.28741184,9.957959
404007490042917,0.03705667,-0.17465527,9.99729
404007499969702,-0.009175104,-0.13882898,10.0177
404007509896359,-0.022580622,-0.1672101,9.793766
404007519823016,0.09788994,-0.1725193,9.550132
404007529749801,0.07406062,-0.18423493,9.666237
404007539676458,-0.017168088,-0.27825907,9.8385105
404007549605545,-0.050326597,-0.25535437,9.963209
404007559532202,-0.048573505,-0.20954876,10.034887
404007569458987,0.03745196,-0.17725457,9.954126
404007579385772,0.031744692,-0.2034986,9.862762
404007589312429,0.0074270777,-0.27850154,9.763399
404007599239214,-0.017064713,-0.28118333,9.69689
404007609165871,0.0055219047,-0.249694,9.693339
404007619092656,-0.0030173254,-0.21929033,9.88931
404007629019441,-0.09344847,-0.17113717,10.141801
404007638948128,-0.09308525,-0.113783255,10.18115
404007648874913,-0.03830235,-0.13709809,10.009843
404007658799372,0.016923962,-0.2857254,9.66159
404007668726029,0.06754829,-0.23225904,9.501573
404007678652686,-0.017414007,-0.2970208,9.668855
404007688579343,-0.106998734,-0.36352965,9.970272
404007698506000,-0.17099984,-0.2732017,10.085345
404007708432785,-0.12332637,-0.02510957,10.0536995
404007718359442,-0.093518585,0.021940801,9.983497
404007728286099,-0.05218927,-0.15254568,9.689636
404007738212756,0.075300604,-0.19900854,9.468319
404007748139541,0.053951308,-0.27507234,9.512862
404007758069936,-0.09787739,-0.34760442,9.809962
404007767996593,-0.17180835,-0.26172125,9.96278
404007777923378,-0.17244619,-0.16560166,10.031831
404007787850035,-0.05855407,-0.048350167,9.945514
404007797776820,0.077887416,-0.08520797,9.770389
404007807703477,0.061608832,-0.22656453,9.690798
404007817630262,0.03626718,-0.3027444,9.689446
404007827556902,-0.014786799,-0.25279176,9.666226
404007837483558,-0.111028366,-0.14061774,9.788574
404007847410342,-0.19852388,-0.09088256,9.9720335
404007857326782,-0.16784307,-0.054351218,10.0172205
404007867253438,0.03533613,-0.07304844,9.894793
404007877180094,0.06479535,-0.18664983,9.8158655
404007887106622,0.071707405,-0.22002344,9.650649
404007897033278,0.061799496,-0.19647521,9.609097
404007906959934,-0.0036223524,-0.17637442,9.784434
404007916886590,-0.080561414,-0.08996209,9.927353
404007926813246,-0.07882749,-0.008389396,9.975225
404007936739902,-0.029660432,-0.012357125,9.959477
404007946666558,0.028913729,-0.15104523,9.875461
404007956605287,0.12952971,-0.22768974,9.657218
404007966531943,0.13228577,-0.22856857,9.635612
404007976458727,0.01774934,-0.26171243,9.865449
404007986385511,-0.06360767,-0.23152249,10.09978
404007996312296,-0.05689658,-0.07080801,10.171401
404008006238953,0.013730203,0.0020268105,10.067899
404008016165738,0.09698865,-0.0070118313,9.905704
404008026092523,0.15186872,-0.097048804,9.7563715
404008036019308,0.17857407,-0.22688195,9.727733
404008045946093,0.10153101,-0.30223283,9.785182
404008055877796,-0.053154893,-0.23713149,9.9492855
404008065804701,-0.13207729,-0.17549445,10.108796
404008075731485,-0.06167719,-0.1195749,10.123133
404008085658269,0.084977865,-0.05980317,10.049273
404008095585053,0.1251081,-0.124361314,9.8698015
404008105511837,0.1192903,-0.1902666,9.804547
404008115438749,0.07057056,-0.29891893,9.820765
404008125365533,0.0010551093,-0.2715647,9.902274
404008135292317,-0.027457748,-0.18984175,10.017644
404008145219101,-0.04949112,-0.17547262,10.088239
404008155150989,-0.011189391,-0.18248576,10.057331
404008165077901,0.07592282,-0.20958094,9.871311
404008175004685,0.12534574,-0.29593202,9.75746
404008184931597,0.08527126,-0.31851318,9.797934
404008194858381,-0.06221023,-0.29022378,9.948405
404008204785293,-0.124148965,-0.20228775,10.013455
404008214712077,-0.061661977,-0.15614137,9.957645
404008224638989,0.0056424057,-0.1376967,9.897476
404008234565901,-7.299097E-4,-0.2216054,9.883058
404008244492685,0.00902278,-0.30542913,9.852837
404008254425647,0.017880613,-0.37018618,9.846668
404008264352559,2.6729782E-4,-0.31157076,9.864364
404008274279471,-0.1708016,-0.20984381,9.827974
404008284206383,-0.2015379,-0.19064689,9.806575
404008294133295,-0.067086816,-0.22154295,9.905101
404008304060207,0.042679686,-0.2782273,10.037943
404008313987119,-0.056026135,-0.2622005,10.02373
404008323914031,-0.09290708,-0.24318518,9.812059
404008333840943,-0.06292697,-0.25467935,9.588514
404008343767855,-8.0662154E-5,-0.19336559,9.587543
404008353704780,-0.07518312,-0.19761553,9.875302
404008363631948,-0.21806346,-0.25427607,10.07253
404008373558989,-0.2176174,-0.24756572,9.998086
404008383486030,-0.051517054,-0.14127709,9.771106
404008393413071,0.025067357,-0.107072785,9.677713
404008403340112,-0.054394744,-0.17520733,9.701533
404008413267153,-0.13571607,-0.21981661,9.653027
404008423194194,-0.061225895,-0.15856919,9.664926
404008433121235,-0.041196175,-0.13844074,9.865429
404008443048268,-0.14654164,-0.14076044,9.951842
404008452975308,-0.066982895,-0.05075688,9.774398
404008462907332,0.07161499,-0.034771364,9.680729
404008472834500,0.03219402,-0.14319786,9.7218485
404008482761668,-0.02642063,-0.22622834,9.75912
404008492688708,-0.018817006,-0.24252482,9.815078
404008502615876,0.013748791,-0.17551404,9.876899
404008512543044,-0.0020783653,-0.07768741,9.920867
404008522470084,0.013887537,-0.008922726,9.844668
404008532397252,0.10600094,-0.038956888,9.724198
404008542324420,0.17271946,-0.114903904,9.611723
404008552251460,0.14668119,-0.24173875,9.615518
404008562183898,0.124439634,-0.26419038,9.825392
404008572111066,0.038725227,-0.2928917,10.019104
404008582038362,-0.003255788,-0.23215088,10.049357
404008591965530,0.09123604,-0.07599642,9.956704
404008601892698,0.14732586,-0.063164614,9.845321
404008611819994,0.18461776,-0.18348631,9.747763
404008621747162,0.20981272,-0.2536612,9.68275
404008631674330,0.20059346,-0.2961771,9.778228
404008641601626,0.06172043,-0.2695058,9.948389
404008651528794,-0.08882495,-0.24589753,10.021878
404008661453363,-0.044807713,-0.15619555,9.889925
404008671380531,0.0968599,-0.11729997,9.801306
404008681307699,0.10259057,-0.19896774,9.773424
404008691234867,0.06681799,-0.2936465,9.76656
404008701162035,0.048025806,-0.30297023,9.794105
404008711089203,0.030665543,-0.23854627,9.919268
404008721016371,-0.013829725,-0.16938818,10.019058
404008730943539,-0.11360137,-0.1174788,9.987632
404008740870707,-0.15191342,-0.10120296,9.771192
404008750797875,0.015159047,-0.21220417,9.614768
404008760725786,0.14753333,-0.34683093,9.73955
404008770653082,0.039517105,-0.4424815,10.080108
404008780580250,-0.1495399,-0.41155496,10.172468
404008790507418,-0.20379597,-0.17921835,10.055374
404008800434586,-0.124830104,-0.06982393,9.813339
404008810361754,-0.03155759,-0.13618366,9.618112
404008820288922,0.024729557,-0.27602035,9.672764
404008830216090,-0.0680274,-0.46012875,9.964354
404008840143258,-0.15228665,-0.539118,10.112391
404008850070426,-0.19092184,-0.32946798,10.046439
404008859995855,-0.19809921,-0.10815997,9.862761
404008869923024,-0.12679191,-0.15295233,9.670909
404008879850193,-0.02717326,-0.2613941,9.692441
404008889777362,-0.029367011,-0.3872412,9.884762
404008899704659,-0.11875645,-0.45683086,10.030165
404008909631828,-0.15493953,-0.2913616,10.0103445
404008919558997,-0.08805275,-0.11220002,9.947062
404008929486166,-0.018521078,-0.098349035,9.901323
404008939413335,-0.013571645,-0.14861365,9.877825
404008949340495,-0.047939695,-0.2987206,9.845188
404008959260196,-0.007838563,-0.43323585,9.8797455
404008969187364,0.057519544,-0.4074456,10.011336
404008979114532,-0.02668386,-0.26392117,10.160958
404008989041572,-0.078035094,-0.15398075,10.056287
404008998968740,-0.006115079,-0.08148619,9.765511
404009008895780,0.13355584,-0.092768244,9.724597
404009018822948,0.21786088,-0.2533049,9.894323
404009028749988,0.16900271,-0.38522765,10.043005
404009038677156,0.039190672,-0.24195449,10.059885
404009048604196,0.022871878,-0.08273853,9.947808
404009058521971,0.1150716,-0.0073221014,9.924902
404009068449011,0.15743145,-0.043977205,9.95459
404009078376051,0.13542023,-0.11661901,9.965462
404009088302963,0.1456997,-0.16271016,9.954534
404009098228244,0.16473831,-0.1744558,9.893483
404009108155285,0.17525639,-0.13571376,9.894008
404009118082326,0.12742636,-0.043620728,9.945466
404009128009367,0.05172085,0.0043760003,10.007238
404009137936408,0.07092485,-0.09834381,9.958669
404009147863449,0.16867884,-0.172095,9.869735
404009157781152,0.21881163,-0.20177026,9.820517
404009167708193,0.1798497,-0.19333658,9.858608
404009177635106,0.1323888,-0.2092075,9.89384
404009187562019,0.09276954,-0.20337933,9.907892
404009197488932,0.024404809,-0.15989971,9.970192
404009207415973,-0.0027481553,-0.13695487,9.968208
404009217342886,0.08461553,-0.17520258,9.871178
404009227269799,0.15611346,-0.22103463,9.799502
404009237196712,0.09425589,-0.27085292,9.853124
404009247123753,-5.2086194E-4,-0.2694598,9.868212
404009257049302,-0.03810508,-0.19934285,9.817256
404009266976215,-0.029212138,-0.20424345,9.760276
404009276903256,-0.044515193,-0.17845611,9.759091
404009286830169,-0.066941224,-0.16726142,9.764695
404009296757082,-0.003564111,-0.22018383,9.745316
404009306683995,-0.03986746,-0.25252196,9.766993
404009316610908,-0.08284167,-0.28516632,9.781013
404009326537821,-0.15999153,-0.22831863,9.753815
404009336464711,-0.14071909,-0.2095366,9.73849
404009346391624,-0.11793908,-0.2307135,9.76163
404009356308611,-0.054331966,-0.21994631,9.840246
404009366235396,-0.083824225,-0.2159127,9.876689
404009376162181,-0.099735074,-0.2131835,9.856428
404009386089094,-0.09601577,-0.26848218,9.827939
404009396015879,-0.03623594,-0.34807086,9.836805
404009405942664,-0.048997838,-0.33221608,9.891145
404009415869577,-0.09228226,-0.33228007,9.924277
404009425796362,-0.15227538,-0.3174068,9.963484
404009435723147,-0.11773153,-0.30835035,9.972965
404009445650060,-0.068418466,-0.35618013,9.899488
404009455568985,-0.11595648,-0.38154218,9.86036
404009465495642,-0.14208923,-0.42264953,9.928287
404009475422299,-0.11710564,-0.4828195,9.879611
404009485348956,-0.11640644,-0.44249937,9.795598
404009495275613,-0.09057967,-0.35024127,9.785196
404009505202270,-0.075658,-0.3668568,9.882217
404009515128927,-0.067062125,-0.3962082,9.988437
404009525055584,-0.027595608,-0.28831747,9.926114
404009534982241,-0.038579658,-0.22267254,9.862897
404009544908898,-0.053980302,-0.28908694,9.924364
404009554829449,-0.059609134,-0.32081613,9.957634
404009564755978,-0.04756796,-0.20926076,9.864684
404009574682614,-0.058835037,-0.16710134,9.839002
404009584609143,-0.09070551,-0.2089976,9.882371
404009594535800,-0.047076415,-0.25274205,9.822708
404009604462329,0.031615786,-0.1978776,9.736866
404009614388986,0.03688186,-0.17529014,9.70608
404009624315515,0.0027075694,-0.14773709,9.667906
404009634242044,0.007515531,-0.12548736,9.608288
404009644168701,0.08481415,-0.18603705,9.711612
404009654094644,0.068249136,-0.19695742,9.916905
404009664021173,0.0268145,-0.085296005,9.904916
404009673947702,-0.010704843,0.017043047,9.859552
404009683874231,0.0046590976,-0.024065463,9.85084
404009693800888,0.17910516,-0.05249548,9.946276
404009703727417,0.24404937,-0.11932967,10.142374
404009713653946,0.15610296,-0.06102648,10.278364
404009723580475,0.03815449,-0.030423488,10.097856
404009733507004,0.04295712,0.06962631,9.752848
404009743433661,0.20149109,0.046791445,9.705638
404009753363694,0.31712738,-0.18418837,9.844566
404009763290223,0.26418316,-0.26224968,10.083253
404009773216752,0.13302049,-0.2634836,10.151398
404009783143409,0.100071914,-0.2249375,9.954924
404009793069938,0.18602715,-0.038224768,9.766757
404009802996467,0.22185102,-0.16853242,9.98714
404009812923101,0.2842173,-0.38208428,10.194764
404009822849630,0.23783231,-0.35745308,10.256719
404009832776159,0.12892841,-0.24400409,10.262384
404009842702688,0.08208991,-0.11046121,10.154593
404009852625985,0.15474685,-0.12995143,10.012773
404009862552514,0.27493355,-0.24957311,10.154203
404009872479037,0.2134767,-0.41372702,10.3291855
404009882405565,0.11572052,-0.43825328,10.26281
404009892332093,0.045239575,-0.38479418,10.042484
404009902258621,0.08644127,-0.34642726,9.755053
404009912185149,0.17958458,-0.29337692,9.66754
404009922111677,0.11820535,-0.33887237,9.908217
404009932038205,-0.07344127,-0.45151642,10.003415
404009941964733,-0.124988236,-0.374891,9.86134
404009951895368,-0.010959887,-0.21900763,9.732754
404009961821896,-0.0049190205,-0.2418341,9.795392
404009971748424,-0.11443548,-0.26228368,9.816979
404009981674952,-0.13267952,-0.25318557,9.875867
404009991601608,-0.1015936,-0.24954626,10.007464
404010001528136,-0.06005885,-0.18475659,9.988885
404010011454664,-0.09124411,-0.053625103,9.937133
404010021381192,-0.09482882,-0.025735533,9.829051
404010031307848,-0.07795716,-0.026204823,9.746019
404010041234376,-0.08878508,-0.07403178,9.795485
404010051164671,-0.07959251,-0.16796361,9.848314
404010061091199,-0.15511781,-0.19168942,9.872179
404010071017856,-0.14353544,-0.10387854,9.875864
404010080944385,-0.04025505,0.048431348,9.852257
404010090871042,0.05425925,-0.11569618,9.881345
404010100797571,0.14270154,-0.26868013,9.93171
404010110724228,0.13492265,-0.25291234,9.964907
404010120650751,0.12579684,-0.18508911,9.955184
404010130577407,0.11862217,-0.21087985,9.954571
404010140503935,0.1298054,-0.23346256,9.976852
404010150447570,0.18187565,-0.23887542,9.960984
404010160374354,0.18598805,-0.2716651,10.026172
404010170301138,0.23064087,-0.40548944,10.0741415
404010180227794,0.23503411,-0.44504592,9.966813
404010190154578,0.2814987,-0.34245414,9.828614
404010200081362,0.26780233,-0.25909773,9.902779
404010210008146,0.20615092,-0.29471093,9.977998
404010219934930,0.16097097,-0.33824053,9.898332
404010229861714,0.17330836,-0.33499587,9.78648
404010239788498,0.2018236,-0.31864133,9.817401
404010249715283,0.17329112,-0.36950323,9.89709
404010259654866,0.15831803,-0.39347374,9.797684
404010269581779,0.14498854,-0.34043375,9.652857
404010279508692,0.10806344,-0.29411986,9.621689
404010289435605,0.06327795,-0.29891115,9.649959
404010299362518,0.03426534,-0.26417047,9.554491
404010309289431,-0.051510382,-0.24962299,9.548901
404010319216344,-0.0010888121,-0.2600669,9.681792
404010329143257,0.07368026,-0.2938571,9.888255
404010339070170,-0.08495299,-0.29680547,9.91869
404010348997083,-0.32289377,-0.2061946,9.747222
404010358929310,-0.11878418,-0.14121899,9.580615
404010368856351,0.04763171,-0.27246445,9.917777
404010378783392,-0.12042955,-0.29655933,10.201986
404010388710305,-0.43824506,-0.13464373,10.133375
404010398637346,-0.53361464,0.022694396,9.625673
404010408564387,-0.23190995,6.292225E-4,9.222944
404010418491428,-0.007686004,-0.13039547,9.340673
404010428418341,-0.08526093,-0.2875009,9.870675
404010438345382,-0.41248915,-0.31500885,10.120479
404010448272423,-0.51532054,-0.16572385,9.9987
404010458206400,-0.38535142,0.1088372,9.981066
404010468133569,-0.14520365,-0.04873137,10.195813
404010478060586,-0.05991083,-0.28354,10.380206
404010487987755,-0.08994013,-0.124178916,10.217603
404010497914796,-0.15594028,0.18521625,10.040801
404010507841965,-0.10449815,0.1646099,10.029661
404010517769134,0.084092975,0.049531493,10.087183
404010527696175,0.20556329,-0.028163332,10.409243
404010537623344,0.066200174,-0.073455065,10.745933
404010547550385,-0.11790914,-0.108283475,10.551814
404010557475058,-0.039495803,-0.1632513,9.9904
404010567402099,0.2749437,-0.1510893,9.58323
404010577329268,0.6101311,-0.3611457,9.827607
404010587256309,0.6209416,-0.51839226,10.629753
404010597183478,0.26893747,-0.5273376,11.089733
404010607110647,0.03345654,-0.30060256,10.880505
404010617037688,0.061764166,-0.04372834,10.229697
404010626964857,0.36094892,-0.028478703,9.828758
404010636891898,0.6784971,-0.30682987,9.906383
404010646819067,0.6661899,-0.57622564,10.215019
404010656746314,0.5431872,-0.55612653,10.667983
404010666673483,0.3528339,-0.5029837,10.751903
404010676600524,0.27404574,-0.24678296,10.418266
404010686527693,0.34752733,-0.027244886,9.885503
404010696454862,0.5279132,-0.20423481,9.84407
404010706381903,0.6230263,-0.63566124,10.0154505
404010716309050,0.49209613,-0.7215647,10.294019
404010726236219,0.30153623,-0.53812176,10.47409
404010736163260,0.12012314,-0.29869083,10.494196
404010746090429,0.05441774,-0.008484142,10.145426
404010756020670,0.09483289,0.18800741,9.81776
404010765947839,0.14704193,0.08980867,9.643191
404010775875008,0.20092188,-0.24177301,9.558904
404010785802177,0.29447868,-0.47906843,9.619328
404010795729346,0.16697831,-0.46899968,9.843658
404010805656515,-0.063027516,-0.3846226,9.883815
404010815583556,-0.19477299,-0.20303684,9.626144
404010825510725,-0.034650993,0.07274369,9.393281
404010835437894,0.119886674,-0.048842166,9.496722
404010845365050,0.20276533,-0.18644771,9.616478
404010855275706,0.13193476,-0.22577792,9.546075
404010865202746,0.061270855,-0.08633649,9.402257
404010875129786,-0.013176159,0.019764328,9.370532
404010885056826,-0.137251,0.05190151,9.341418
404010894983866,-0.18721634,0.031644627,9.244396
404010904910906,-0.053852804,-0.043356813,9.186566
404010914837946,0.07661047,-0.18528526,9.32352
404010924764858,0.10733116,-0.21619804,9.5118885
404010934691898,-0.007507841,-0.22423825,9.578837
404010944618938,-0.123646185,-0.11123837,9.5308
404010954536189,-0.16367117,-0.03107565,9.556515
404010964463101,-0.10239596,0.014589611,9.556415
404010974390013,-0.059742168,0.025042258,9.578546
404010984316797,-0.023515837,-0.018356025,9.63947
404010994243709,-0.014202097,-0.06928778,9.737191
404011004170621,-0.026504513,-0.081259266,9.771864
404011014097533,-0.06156652,-0.05493208,9.764493
404011024024446,-0.10966677,-0.050070655,9.687423
404011033951359,-0.031025546,-0.107493944,9.592222
404011043878272,0.110256396,-0.16480228,9.637452
404011053799425,0.1889269,-0.20716438,9.854585
404011063726210,0.13819374,-0.27989262,10.065864
404011073653123,0.018756438,-0.19197662,10.178624
404011083580036,-0.05395641,-0.0868093,10.114533
404011093506821,-0.04991436,-0.052962027,10.043591
404011103433725,0.036507186,-0.07855553,10.037928
404011113360638,0.15355061,-0.17403248,9.982243
404011123287421,0.15772818,-0.26097438,10.037908
404011133214333,0.15599917,-0.3406072,10.08352
404011143141245,0.14187834,-0.32745835,10.126082
404011153066761,0.053148508,-0.30444688,10.138523
404011162993673,0.09057352,-0.19868207,10.037597
404011172920457,0.2020541,-0.25092834,9.89385
404011182847241,0.3128752,-0.37377894,9.84188
404011192774025,0.41963527,-0.38434646,10.003099
404011202700809,0.3441951,-0.5577294,10.330474
404011212627721,0.16552398,-0.6481824,10.419152
404011222554505,0.016041545,-0.4632738,10.2569275
404011232481289,0.10694586,-0.20358536,9.977754
404011242408073,0.3512555,-0.3315287,10.067422
404011252335631,0.42909136,-0.4829586,10.101145
404011262262543,0.32647496,-0.49388444,9.888899
404011272189327,0.2701186,-0.3973743,9.554303
404011282116111,0.20647095,-0.35917825,9.455775
404011292042895,0.15124086,-0.25922528,9.563074
404011301969679,0.04758407,-0.2555873,9.687073
404011311896463,0.0018916737,-0.3174277,9.63057
404011321823375,0.09285962,-0.2732676,9.507084
404011331750159,0.20576425,-0.16408917,9.4944725
404011341676943,0.17011091,-0.17762959,9.681719
404011351598075,0.06174221,-0.17331444,9.666172
404011361524859,0.031049915,-0.034751635,9.387405
404011371451643,0.017286401,0.045886397,9.223405
404011381378300,0.16966912,0.07947385,9.189516
404011391305085,0.395741,0.014210294,9.524241
404011401231870,0.18224053,-0.1890705,9.903043
404011411158527,-0.1949998,-0.27761883,9.795893
404011421085312,-0.16944453,-0.117469735,9.482356
404011431012097,0.22584659,-0.020912811,9.621907
404011440938882,0.24293458,-0.15361795,10.324838
404011450867851,-0.007148222,-0.19534017,10.667445
404011460794636,-0.13509391,0.045979083,10.198775
404011470721293,-0.0459401,0.22434883,9.502913
404011480648078,0.100001164,0.1835192,9.272365
404011490574735,0.12974213,0.021131119,9.372944
404011500501520,0.06571067,-0.10824435,9.778737
404011510428177,-0.16792716,-0.5908035,10.005162
404011520354948,-0.2259552,-0.6114658,10.136945
404011530281604,0.14479247,-0.2699439,10.516364
404011540208388,0.16873707,0.0367377,10.839446
404011550134859,-0.5158773,-0.007723996,10.56915
404011560061515,-0.4039401,-0.15308186,9.190032
404011569988171,0.57542175,0.02045107,9.051352
404011579914827,0.78072685,-0.3112012,10.847813
404011589841611,-0.09613201,-0.6354931,11.427985
404011599768267,-0.8509071,-0.10127471,10.692057
404011609694923,-0.9128864,0.4273763,9.866912
404011619621579,-0.1386332,-0.09467428,9.248808
404011629548363,0.82023793,-0.70189756,9.706581
404011639475019,0.77864915,-0.92348063,11.256632
404011649402494,-0.11268063,-1.2870172,11.53001
404011659329150,-0.68864036,-0.60476613,10.513905
404011669255807,-0.409736,0.27788824,9.346232
404011679182462,0.3425611,-0.10065206,9.21319
404011689109118,0.5246519,-0.7891986,9.521749
404011699035774,0.3989976,-0.7113853,9.651186
404011708962430,0.12936564,-0.7276592,10.271403
404011718889086,-0.1676541,-0.9031252,10.607702
404011728815742,-0.13282928,-0.40702423,10.213795
404011738742398,0.07738813,-0.043315046,9.816559
404011748681812,0.16875578,-0.29804596,9.665259
404011758608596,0.24114168,-0.46419686,9.514756
404011768535380,0.5226183,-0.3483394,9.387261
404011778462164,0.5956239,-0.281755,9.874463
404011788389966,0.08151961,-0.23919527,10.182331
404011798316879,-0.25913513,0.09770054,9.729527
404011808243664,-0.14555433,0.372454,9.289727
404011818170449,0.039910536,0.29087618,9.259505
404011828097234,0.17023341,0.046996806,9.436806
404011838024014,0.28842714,-0.14906164,9.459316
404011847957686,0.3050417,-0.19268516,9.315856
404011857884598,0.26835126,-0.05204975,9.374488
404011867811510,0.24821804,0.13375774,9.632181
404011877738422,0.098117344,0.18876028,9.677989
404011887665334,-0.0753105,0.14413716,9.49028
404011897592246,0.039250184,0.12435348,9.419321
404011907519158,0.3588342,0.1082688,9.657029
404011917446198,0.4580914,-0.041727863,9.846193
404011927373110,0.2809913,-0.0662141,9.929657
404011937300022,0.08702752,0.036287047,9.837377
404011947228927,0.06412894,0.10676945,9.686528
404011957155839,0.18945149,0.097809345,9.53479
404011967082879,0.3066349,-0.074517936,9.520282
404011977009791,0.43711454,-0.3271857,9.651206
404011986936703,0.46588105,-0.48444435,9.785954
404011996863615,0.445102,-0.45917368,9.943724
404012006790655,0.38027334,-0.42058828,10.124265
404012016717568,0.27401102,-0.45755452,10.096721
404012026644481,0.19837369,-0.39143413,9.873272
404012036571394,0.3070412,-0.38357407,9.842921
404012046498435,0.484726,-0.4418663,10.102839
404012056425610,0.45495543,-0.6171605,10.328843
404012066352523,0.29139864,-0.6087243,10.272725
404012076279564,0.15655291,-0.5404146,10.115864
404012086206477,0.106382415,-0.48943987,10.008589
404012096133509,0.10190563,-0.52209854,9.980794
404012106060422,0.017753206,-0.53817534,10.024325
404012115987461,-0.10835411,-0.57853246,9.983849
404012125914373,-0.09675131,-0.49294388,9.875641
404012135841413,-0.13434592,-0.4446776,9.924869
404012145768325,-0.17640936,-0.35632816,9.924157
404012155699997,-0.2936408,-0.30934653,9.851937
404012165627037,-0.35610166,-0.25340912,9.777787
404012175554077,-0.29465503,-0.30289048,9.696184
404012185480989,-0.1717845,-0.3126196,9.86989
404012195408029,-0.2728397,-0.33677062,10.111728
404012205335069,-0.47342408,-0.2980844,9.999654
404012215262109,-0.561939,-0.1466602,9.644651
404012225189149,-0.40739053,-0.060379345,9.4635105
404012235116189,-0.15227823,-0.1317698,9.577857
404012245043229,-0.047481798,-0.26963645,9.93129
404012254975590,-0.2090143,-0.2817748,10.153789
404012264902758,-0.30713084,-0.19169882,10.1094475
404012274829798,-0.22769162,-0.07731053,9.968065
404012284756966,-0.11282484,0.026277278,9.986423
404012294684006,0.043597054,-0.118891686,9.855749
404012304611175,0.14211278,-0.14529225,9.675192
404012314538344,0.24469365,-0.1126426,9.659006
404012324465385,0.2796969,-0.09710312,9.804814
404012334392554,0.21624486,-0.048027128,9.922688
404012344319595,0.100929655,-0.009685152,9.865283
404012354246024,0.018961197,0.0075588715,9.737091
404012364173193,0.055916585,0.052849196,9.725281
404012374100362,0.25939876,0.09448496,9.982548
404012384027531,0.33864078,0.0013167685,10.217089
404012393954828,0.22802565,-0.10909989,9.9244795
404012403881986,0.19735144,0.02118818,9.544225
404012413809154,0.5559023,0.22291392,9.622297
404012423736322,0.7372591,0.26064292,10.080296
404012433663490,0.38054729,0.1142234,10.238233
404012443590658,0.10087257,0.041197468,9.850244
404012453516007,0.22292247,0.058581736,9.489426
404012463443047,0.47532758,0.14424208,9.472443
404012473370215,0.46865386,0.013016341,9.88654
404012483297255,0.3127456,-0.21341431,9.992124
404012493224423,0.32901162,-0.23757404,9.786081
404012503151463,0.37609747,-0.05563548,9.622439
404012513078631,0.41979074,0.019899692,9.513591
404012523005671,0.51078254,-0.13768925,9.514334
404012532932839,0.6126718,-0.2389092,9.61757
404012542860007,0.5596796,-0.37401697,9.796802
404012552772169,0.3976234,-0.42929387,9.97286
404012562699209,0.32883066,-0.42430925,9.936248
404012572626121,0.29469267,-0.37107518,9.758527
404012582553033,0.19343372,-0.33832672,9.608005
404012592480073,0.24124518,-0.3271307,9.572522
404012602406985,0.35012156,-0.41239002,9.650504
404012612333897,0.40611243,-0.48313257,9.762382
404012622260937,0.3701672,-0.5082713,9.786447
404012632187849,0.27332914,-0.42059368,9.769156
404012642114889,0.15389377,-0.32213196,9.751109
404012652039358,0.1015109,-0.39043823,9.809835
404012661966271,0.017166445,-0.5121323,9.86137
404012671893184,-0.08506765,-0.60915005,9.775717
404012681820097,-0.023872482,-0.57435,9.666539
404012691747005,-0.03777634,-0.46645764,9.684295
404012701673917,-0.14587747,-0.44020548,9.768102
404012711600829,-0.20205095,-0.46286294,9.880244
404012721527613,-0.23432994,-0.46618548,9.991377
404012731454525,-0.26682982,-0.41825134,9.959489
404012741381437,-0.2817865,-0.32592762,9.840177
404012751308726,-0.23182982,-0.2512416,9.814979
404012761235638,-0.16995767,-0.305261,10.028213
404012771162550,-0.29577905,-0.4387334,10.272172
404012781089462,-0.4823729,-0.45562905,10.21491
404012791016374,-0.4555908,-0.32913575,9.918249
404012800943286,-0.3573449,-0.4362152,9.91419
404012810870198,-0.26875535,-0.4709729,10.061761
404012820797110,-0.19332044,-0.38606882,10.286972
404012830724022,-0.25094432,-0.51474506,10.584459
404012840650934,-0.3213745,-0.4270826,10.577377
404012850582257,-0.29567945,-0.25424188,10.281278
404012860509169,-0.15747106,-0.1553743,10.310804
404012870436081,-0.068057805,-0.23530155,10.416503
404012880363121,-0.11148091,-0.18978414,10.27847
404012890290033,-0.13220899,-0.08834669,10.089647
404012900216945,-0.005341632,-0.116471484,10.010888
404012910143985,0.14408481,-0.13047577,9.995475
404012920070897,0.22597544,-0.11081862,10.119448
404012929997809,0.20569994,-0.18774424,10.131358
404012939924850,0.12744923,-0.26445767,9.941855
404012949842809,0.21995488,-0.2123781,9.776662
404012959769594,0.39882094,-0.0782403,9.899737
404012969696507,0.4185603,-0.004200653,10.175324
404012979623292,0.28008685,0.069083095,10.316833
404012989550071,0.13993917,0.049987674,10.085102
404012999476983,0.16158202,0.12644373,9.706323
404013009403767,0.29910785,0.21143411,9.622997
404013019330551,0.4304458,0.1407582,9.759117
404013029257463,0.4750854,0.01204903,9.883013
404013039184247,0.37907812,-0.065794475,9.711876
404013049101290,0.33501256,-0.0655075,9.372117
404013059027946,0.46469727,0.008060853,9.09897
404013068954730,0.60308605,-0.038595814,9.130622
404013078881514,0.6581817,-0.18202703,9.607579
404013088808170,0.48227328,-0.3683855,10.085417
404013098734954,0.29984704,-0.38396984,10.190034
404013108661738,0.31012288,-0.18109028,9.9264555
404013118588394,0.38180852,0.048640307,9.7882
404013128515178,0.40808287,-0.01429122,9.972621
404013138441962,0.4775426,-0.21262999,9.993937
404013148368165,0.44569173,-0.16520707,9.830108
404013158294949,0.4134293,-0.05021785,9.763614
404013168221605,0.33030424,-0.056159317,9.8127775
404013178148389,0.2494366,-0.08018789,9.832706
404013188075045,0.1789771,-0.12510967,9.93456
404013198001829,0.13992505,-0.23743951,9.990783
404013207928485,0.16876966,-0.2902334,9.998932
404013217855269,0.10856016,-0.22446147,10.136696
404013227781925,0.06408656,-0.22471242,10.137207
404013237708581,0.043152492,-0.09787643,10.049707
404013247635212,0.11700325,0.0056935134,10.035917
404013257561869,0.096903004,-0.08870585,10.033482
404013267488654,0.096045345,-0.18458298,9.964843
404013277415311,0.1649103,-0.16767219,9.9422
404013287341968,0.22804016,-0.2529832,10.066427
404013297268753,0.18941368,-0.3883573,10.179958
404013307195410,0.12948927,-0.4125541,10.128595
404013317122067,0.08538838,-0.39647907,10.10502
404013327048852,0.0044981823,-0.40717018,10.127149
404013336975509,0.09840901,-0.41244486,10.098244
404013346909568,0.16550638,-0.3784234,10.145321
404013356836353,0.021925014,-0.35373223,10.231963
404013366763138,-0.12303888,-0.42277625,10.0653
404013376689910,-0.026273504,-0.29992458,9.646975
404013386616695,0.15126453,-0.32490987,9.610399
404013396543478,0.040657695,-0.45743445,9.896207
404013406470262,-0.14740375,-0.5567009,9.924244
404013416397046,-0.12502049,-0.51854867,9.578008
404013426323830,0.00407704,-0.4455254,9.3934145
404013436250614,0.097902186,-0.39883518,9.521064
404013446174879,0.06858036,-0.44402856,9.929402
404013456101663,-0.16819783,-0.545498,10.108535
404013466028319,-0.30125892,-0.38553992,9.795775
404013475955103,-0.1335463,-0.09026601,9.32398
404013485881887,0.015976155,-0.0023463115,9.276615
404013495808671,-0.097385585,-0.21010096,9.512053
404013505735455,-0.23250753,-0.32991168,9.509371
404013515662111,-0.22258903,-0.18313998,9.306776
404013525588895,-0.19029109,-0.105685756,9.256011
404013535515679,-0.16658346,-0.12593062,9.23792
404013545442453,-0.117072575,-0.16090417,9.168262
404013555369237,-0.08182289,-0.21001378,9.184247
404013565295893,-0.042957027,-0.2582388,9.418604
404013575222677,-0.07393993,-0.27121457,9.596971
404013585149461,-0.11709022,-0.14265719,9.571274
404013595076245,-0.13669397,0.08013063,9.403151
404013605002901,0.008311945,0.23032577,9.197201
404013614929685,0.08704,0.21652257,9.191385
404013624856469,0.13971494,0.07750593,9.426267
404013634783253,0.13487506,0.0077457028,9.564914
404013644709227,0.18225902,0.1049506,9.519753
404013654636011,0.15353726,0.13319935,9.640686
404013664562795,0.18949954,0.15310831,9.719548
404013674489451,0.15428346,0.13370897,9.907126
404013684416235,0.03831728,0.066651724,10.045359
404013694342892,-4.493764E-4,0.014067527,10.021656
404013704269677,0.03426321,0.048897553,9.879632
404013714196334,0.16828637,0.08298903,9.826564
404013724123119,0.26606354,0.05340458,10.008881
404013734049776,0.3071418,-0.009503545,10.003573
404013743986793,0.28358108,-4.1108197E-4,9.8777075
404013753913578,0.24769251,-0.0017653013,9.969414
404013763840491,0.43069762,-0.15409371,10.263584
404013773767276,0.47656974,-0.19355005,10.728619
404013783694189,0.26944205,-0.12450629,10.948565
404013793620974,0.059272062,-0.12495147,10.527856
404013803547887,0.2563938,-0.012855519,9.965024
404013813474672,0.6494989,-0.0046919044,10.140814
404013823400686,0.60933274,-0.48059648,10.595651
404013833327471,0.4339613,-0.57357943,10.667183
404013843255168,0.2727298,-0.3914162,10.3754225
404013853181953,0.30610695,-0.32421947,9.946156
404013863108863,0.50377613,-0.3608362,9.747195
404013873035775,0.5594307,-0.5713092,10.18195
404013882962559,0.29090342,-0.9137048,10.644202
404013892889471,0.031046258,-0.945528,10.551959
404013902816383,0.07002194,-0.58161855,10.193106
404013912743167,0.21719247,-0.35863456,10.1144705
404013922670079,0.21998154,-0.4018967,10.190975
404013932596991,0.18123624,-0.49629304,10.168611
404013942527065,0.15172428,-0.5108974,10.128607
404013952453849,0.13260122,-0.45897153,10.0393915
404013962380761,0.11796966,-0.32553044,9.888612
404013972307673,0.047447886,-0.20147096,9.761292
404013982234585,-0.044664606,-0.2762841,9.679367
404013992161497,-0.07851594,-0.32222977,9.703974
