UPTIMENANO,Ax,Ay,Az
351417934650474,-0.08578756,-0.07420805,9.827451
351417954514471,-0.10011346,-0.25181627,10.296788
351417974367912,-0.19736077,-0.40630358,10.535385
351417994221351,-0.08611365,-0.059567478,10.162033
351418014074919,0.25899372,-0.13902634,9.5719795
351418033928360,0.6931187,-0.69643015,9.731224
351418053784882,0.04617862,-0.33975556,10.666902
351418073638450,-0.96570426,0.068950355,11.246669
351418093492019,-0.8233521,-0.29775918,9.56067
351418113345586,0.032281376,-0.99849963,8.656679
351418133201295,0.18197119,-1.4916412,10.078341
351418153054864,-1.0130084,-3.0178437,11.09627
351418172908431,-0.31689534,-0.43408227,11.66311
351418192761999,0.14022414,0.18304962,10.621442
351418212615696,-0.4276554,-0.14144388,9.780804
351418232469263,0.25487715,0.71796817,8.349611
351418252325780,2.1496053,1.5063518,7.8279567
351418272179477,2.6671412,0.84755623,8.546601
351418292033172,0.51061267,0.7059822,9.32527
351418311886868,-0.56845087,-0.646332,10.036947
351418331740565,-0.010570696,-1.1361085,9.770996
351418351594046,0.34566996,-0.06888012,9.159241
351418371447742,0.13969323,-0.06309502,9.43915
351418391301439,-0.35040155,-0.46352482,10.240199
351418411155134,-0.94728565,-1.0369228,10.935843
351418431008830,-0.4255499,-0.8640354,9.874056
351418450862527,0.22152612,-1.1285573,8.452101
351418470731966,0.91687393,1.9686991,9.209806
351418490586046,0.33131236,1.3631804,9.439808
351418510440127,-0.14605395,0.25983804,9.539685
351418530294206,-0.7653681,-0.2891943,10.286052
351418550143745,-0.4588606,-0.7639642,9.747889
351418569997826,0.8101304,-0.06837858,8.323399
351418589851777,0.40035343,0.47643182,8.849133
351418609705857,-1.2226294,0.9690162,10.667195
351418629559810,-0.96219206,-0.30763492,11.127173
351418649416522,0.67344487,-0.23917897,9.056053
351418669270602,0.118432425,-0.5273108,8.339624
351418689124683,-0.8655231,-0.60418606,10.077011
351418708978762,-0.019762471,-1.373573,10.110354
351418728832714,0.04199591,-1.7186553,10.140116
351418748686795,-1.0259566,-0.640006,10.94568
351418768543745,-2.0465271,1.6513876,11.144586
351418788408581,0.2520723,0.6984725,9.484949
351418808262662,2.3327336,-0.61245507,8.790481
351418828116869,1.2298939,-0.9139781,9.9974375
351418847963058,-1.6503799,-0.036469176,10.777862
351418867817139,-2.222042,-0.0038586608,11.310642
351418887671090,-0.71622103,-0.37548047,10.822599
351418907525042,0.7133439,-0.9314297,7.91869
351418927378995,0.80302995,-0.56250024,8.225021
351418947225245,-0.05152898,-1.4051063,10.803073
351418967079069,-1.053721,-1.4983073,10.169495
351418986932766,-0.42629507,-1.2368292,8.780842
351419006786589,-0.052970562,-1.4429896,8.546337
351419026640413,2.1326852,-0.17697863,8.831896
351419046494110,4.969053,-0.7485005,7.1348934
351419066338371,0.6909418,0.3378072,4.812874
351419086192067,-0.7581766,-1.863898,5.421455
351419106045764,-0.05341805,-2.1218994,7.1217833
351419125899331,0.09967749,-0.8095708,7.54402
351419145749984,-0.08364423,-1.4623303,6.5919037
351419165603553,-0.11683085,-3.0007434,5.597222
351419185457120,-0.0987795,-3.3156211,5.6991315
351419205310688,-1.0217621,-2.4363818,7.5852737
351419225164129,-5.014056,-3.0577903,9.677928
351419245008468,-6.5317116,-1.6057866,12.63605
351419264861908,-4.921807,1.3071998,14.543626
351419284715349,-0.17870599,5.997768,11.29704
351419304568660,4.958723,5.338613,-0.23712939
351419324422100,-5.18987,-2.901235,8.048815
351419344275413,-4.060825,1.7910632,6.5330515
351419364128713,-3.564466,-0.026069524,8.046847
351419383982025,-7.9179316,-5.3996177,14.838773
351419403835338,-8.690291,-3.747461,17.290607
351419423688649,-1.5549943,-1.1582838,13.183229
351419443538572,1.3004204,0.15143646,7.221814
351419463391757,-0.14223559,-2.4031456,2.2362175
351419483244940,-1.0968682,-4.4398084,4.669549
351419503098124,-0.38340724,-2.5780296,6.3276887
351419522951309,-0.5191909,-2.7919056,6.6460576
351419542804492,-0.83192796,-2.6034195,10.053848
351419562660742,-3.1639998,-0.54087275,9.497586
351419582514055,-3.5310817,-1.8119053,6.0114174
351419602367238,-5.30915,1.3560189,8.741739
351419622220550,-5.672357,5.9314055,12.896383
351419642073735,-5.278401,5.387207,16.168032
351419661930027,-0.79536486,7.007925,17.831863
351419681783339,-1.285447,5.7258716,17.736128
351419701636524,-1.6218411,4.9234133,20.088333
351419721489835,3.9650545,4.672496,19.732021
351419741340922,4.8818016,3.0105367,18.394154
351419761194107,1.7398843,3.8454397,18.056248
351419781047290,7.5359964,-8.994182,15.1147175
351419800900474,2.1761386,-12.52336,14.725625
351419820753659,3.7158575,-7.0193534,13.367883
351419840606842,3.8753715,-0.5155555,12.268985
351419860456430,3.7539854,4.544508,8.806465
351419880309615,4.6262345,5.1976457,7.5749536
351419900162670,4.011966,7.492586,9.932616
351419920015726,-0.09274423,11.05412,3.1219244
351419939868783,2.989626,4.9277716,-0.424311
351419959721802,1.2094817,2.1813352,-2.1224782
351419979574858,3.1302958,-4.5675015,-2.6313834
351419999427915,5.2566013,-7.2511854,-0.9568689
351420019280970,4.469509,-1.372229,5.359595
351420039138288,3.2862282,7.0355816,10.4533415
351420058991473,0.51991284,3.2692823,8.856281
351420078844656,-1.0573938,2.764515,15.34317
351420098697968,-3.0399575,0.40809745,16.769176
351420118551153,-0.76092154,4.8441653,15.03681
351420138404336,2.9356058,-0.681037,16.86687
351420158259154,1.7330267,-6.1077476,20.84139
351420178112339,0.94961447,-5.1075873,17.687588
351420197965522,1.0500042,-6.5201864,10.79545
351420217818706,-0.29024443,-5.2282386,9.038378
351420237672019,-3.3681967,0.537762,8.113398
351420257535954,1.2035135,-0.32071096,8.208811
351420277389394,-0.71085554,-1.1345545,4.505201
351420297242963,-2.4714844,-1.2435204,-3.274441
351420317096402,0.4635016,0.68112916,-0.11085248
351420336958296,4.104868,4.7004247,6.3491087
351420356811993,3.330733,11.104613,7.399442
351420376665688,-0.021897087,11.982691,4.8351564
351420396519384,1.218578,5.71832,3.0787253
351420416373081,0.49597734,1.5138109,8.503025
351420436226904,-2.4613738,-5.975989,12.283454
351420456090870,-2.8424225,-9.694338,10.355693
351420475944823,-1.6503748,-12.911667,12.299011
351420495798774,-0.34738,-7.71142,17.326797
351420515652598,-0.3599321,-4.757788,18.90929
351420535506551,3.2093377,-4.9628916,13.83021
351420555365817,6.2093916,-3.46666,15.302599
351420575219897,1.5649114,8.476012,9.379934
351420595073978,-11.567904,0.32860434,4.8191757
351420614928057,-7.504844,5.100443,5.055796
351420634782137,10.34361,-0.7393898,-1.1122458
351420654636218,4.2107844,3.3119664,-2.0868158
351420674492540,-1.5098691,7.664523,4.587587
351420694346620,1.0525064,2.30917,5.5234647
351420714200701,-3.3394732,1.7410551,4.258362
351420734054780,-2.2676535,4.37714,6.337175
351420753911688,-1.7217318,2.4762306,6.9146748
351420773765897,-2.8491876,-1.9007248,6.6162047
351420793620104,-2.103656,-2.4175334,8.6339855
351420813484702,-0.7347623,-1.3220811,7.042719
351420833338911,1.0602939,-5.6650352,8.717177
351420853189668,3.5524669,-5.9455876,17.500124
351420873043748,2.3949018,-4.9230814,15.098906
351420892897829,1.3457686,-2.7593613,14.424062
351420912751908,1.3995639,-2.5504797,12.190121
351420932605988,-0.32959884,-1.8929656,11.950844
351420952460197,-1.1073643,-1.1554524,12.989184
351420972307297,-1.769571,0.9846862,14.335836
351420992161377,-0.7455693,0.8086143,15.009534
351421012015458,1.0294136,-0.5249879,17.36026
351421031869409,1.9388279,-0.54126817,19.410664
351421051716482,-0.009315964,-2.757073,17.291082
351421071570435,2.2651448,-5.345471,17.438179
351421091424386,3.3279896,-2.9769142,8.41713
351421111278210,-0.6398276,0.8002659,2.4351752
351421131132163,-3.0917141,3.0768986,5.5169454
351421150979215,-5.6190343,0.9186913,5.506215
351421170833039,-3.4930892,-0.18144193,2.1883042
351421190686736,-3.6220868,0.57367074,-0.03977345
351421210540559,-1.157674,2.4205952,1.1312021
351421230394383,-0.34041673,0.6205131,5.420549
351421250248080,-0.35345256,0.06288379,8.749222
351421270094729,-1.4618982,2.7782156,10.002664
351421289948425,-1.919231,1.6752876,10.333566
351421309801994,-0.4200418,-0.17301755,10.421778
351421329655689,0.0908888,0.09246725,9.229623
351421349507515,-0.7119829,1.399743,6.26925
351421369361212,-3.0736587,2.0307384,3.4642918
351421389214779,-1.424843,1.0140151,4.8039775
351421409068347,-0.1822383,0.912886,3.7734902
351421428922044,-1.8759564,-0.7053134,3.885827
351421448775611,0.008024996,4.031686,4.01669
351421468631026,-1.944925,1.056692,9.252236
351421488484595,-1.9926817,-0.36971408,11.052294
351421508338162,-1.0513057,-1.6651227,10.632846
351421528191730,-3.7630515,-1.5635816,9.769515
351421548045299,-1.3463134,-0.9497882,9.103312
351421567893118,1.4371974,-2.0046015,12.090398
351421587746558,3.5690565,-1.0050342,19.154278
351421607599999,0.22926928,0.55478436,13.873301
351421627453438,-1.0801499,-1.2866828,10.351696
351421647303427,-2.378141,0.20112996,11.454663
351421667156740,1.0845047,0.36880976,12.730338
351421687009923,0.6765785,-1.5413378,16.26902
351421706863235,0.5892943,-3.278365,9.73074
351421726716548,3.3057172,-1.62043,7.5481467
351421746569859,-0.6098272,1.0904245,16.853529
351421766422514,-4.707081,2.247028,18.551102
351421786275699,-5.3780456,4.6339417,14.610871
351421806129010,5.401827,-3.30707,6.5202813
351421825982194,4.9484253,-6.3006945,3.5520957
351421845835379,-2.9862099,4.3247614,5.0388584
351421865694529,-1.7123482,0.18252422,0.4134119
351421885547841,-0.5211401,-0.9685583,1.195306
351421905401154,-2.1440012,1.3730079,4.585832
351421925254339,-1.4331695,0.10898672,6.13085
351421945114110,-0.8992309,-0.5633472,6.115633
351421964967551,-2.1118326,-0.25803766,6.9410033
351421984820862,-1.2738603,-0.5125864,8.070338
351422004674302,-0.58036935,-0.042258233,8.516016
351422024527743,0.23769113,-0.4038309,7.063076
351422044381054,0.5262447,0.4924881,8.596806
351422064239803,-1.1206071,0.3714307,10.486263
351422084093372,2.122652,0.5992412,10.845674
351422103946939,-3.5166903,1.7064664,10.442079
351422123800508,-5.2900467,0.4666668,10.124049
351422143654077,-5.37732,-1.0683416,10.028137
351422163512022,-2.7712193,-0.6620824,5.379889
351422183365719,-3.4961936,-2.1521375,6.9813876
351422203219416,-1.6872782,-0.6447972,9.665949
351422223073113,-0.024204599,1.9287759,9.279264
351422242927860,-0.8667623,0.57286257,9.678478
351422262781557,0.019726565,-0.27388996,11.117165
351422282635382,-2.354317,0.8705361,10.308181
351422302489207,-3.9465399,-2.9537337,11.671113
351422322342904,-5.754563,-1.4730434,17.173471
351422342196729,-4.2003455,0.68126774,18.696308
351422362056508,1.6121677,-1.275134,14.560366
351422381910333,3.1937592,0.2160013,8.291807
351422401764286,2.0271416,1.2806299,6.7249913
351422421618239,1.9450135,2.374443,3.9130023
351422441472192,0.6934349,4.0181065,0.4763711
351422461337567,0.07602421,2.7721756,1.5944414
351422481191776,-0.35678107,1.9717797,2.3345513
351422501045985,-3.9728315,-0.40924248,8.701605
351422520900322,-8.152107,-3.4004025,16.486286
351422540754531,3.852946,-6.9149723,8.102623
351422560608740,11.089155,-12.870519,9.506845
351422580458898,4.8488297,-3.9171727,14.614299
351422600313107,1.1299298,-0.9027657,11.789263
351422620167188,0.6482061,0.58140445,9.970778
351422640021397,0.49581212,1.3514255,10.340861
351422659872662,-0.54088736,2.3066556,9.755875
351422679726871,-2.458971,3.8520744,9.512598
351422699580952,-2.926294,3.7806544,9.679199
351422719435033,-1.6675078,0.59735596,9.370901
351422739289242,0.1549482,-1.5168388,9.49465
351422759139751,0.6745777,-2.5581205,9.657311
351422778993694,0.22593597,-2.913413,9.607503
351422798847775,-0.33028767,-1.914228,9.588055
351422818701854,-0.807514,-0.40542445,9.621929
351422838564815,-1.0182171,0.13785951,9.371376
351422858418896,-0.9955958,-0.24811704,9.412434
351422878269402,-0.5273244,-0.6018942,9.655634
351422898123354,0.021147385,-0.5345685,9.775047
351422917977307,0.3033334,-0.14885741,9.85209
351422937831130,0.31061432,0.33549422,9.78414
351422957678074,0.2593046,0.49668923,9.497713
351422977531771,0.005274531,-0.05623319,9.681492
351422997385594,-0.3113988,-0.57279915,9.847336
351423017239418,-0.22168967,-0.35016084,9.581748
351423037093115,-0.12044723,0.008090525,9.657195
351423056942154,-0.39503255,0.2466345,9.582389
351423076795848,-0.5725322,0.16321164,10.195641
351423096649673,-0.4359221,-0.47635826,9.938087
351423116503368,-0.2934499,-0.41698232,9.866048
351423136357064,-0.2767004,-0.22714065,9.766479
351423156210761,-0.24193443,-0.08986162,9.7533865
351423176057805,-0.25395307,-0.07683669,9.717743
351423195911245,-0.2825338,-0.3447887,9.759975
351423215764814,-0.2685781,-0.37473217,9.952096
351423235618381,-0.3563125,0.006381011,9.819547
351423255466207,-0.5297512,-0.2274737,9.536654
351423275319520,-0.6662871,-0.35294035,9.793378
351423295172959,-0.74663156,-0.33930978,9.720671
351423315026271,-0.7369589,-0.25086412,9.731617
351423334879712,-0.6056524,-0.2160084,9.806265
351423354733025,-0.46772975,-0.23620233,9.924947
351423374588555,-0.3505522,-0.25219628,9.954992
351423394441996,-0.2681596,-0.19628245,9.867011
351423414295307,-0.17130768,-0.19140227,9.813124
351423434148747,-0.11441514,-0.005238568,9.836204
351423454002060,-0.12523791,-0.028559482,9.804542
351423473862643,-0.17429425,-0.08393988,9.831506
351423493716083,-0.23312582,-0.090473846,9.832472
351423513569652,-0.18120524,-0.05717326,9.812331
351423533423091,-0.0115515655,-0.044288527,9.937744
351423553279330,0.031984955,-0.06475024,9.908847
351423573132899,-0.048288275,0.14334464,9.84025
351423592986468,-0.20031825,-0.08115843,9.787239
351423612840037,-0.41018465,-0.42750162,9.763935
351423632693606,-0.5040471,-0.4475428,9.755614
351423652547175,-0.4135595,-0.28097808,9.810329
351423672402298,-0.4149125,-0.1941477,9.839542
351423692255867,-0.4836965,-0.10217904,9.858342
351423712109562,-0.5071061,0.005693279,9.845115
351423731963130,-0.4510414,-0.037164584,9.806727
351423751816699,-0.32350466,-0.14749174,9.822495
351423771669018,-0.19133168,-0.11317387,9.854037
351423791522586,-0.13310361,-0.049833264,9.828214
351423811376155,-0.18975098,-0.097049534,9.7889385
351423831229722,-0.29200885,-0.08659784,9.810482
351423851085613,-0.36009088,-0.03318886,9.789782
351423870939182,-0.3688231,-0.062950626,9.798835
351423890792749,-0.38195154,-0.09958551,9.832071
351423910646317,-0.32263798,-0.1134169,9.848792
351423930499886,-0.3403873,-0.10193226,9.833255
351423950353453,-0.4208449,-0.09949583,9.887962
351423970209601,-0.43293723,-0.09712915,9.871757
351423990063298,-0.37041378,-0.14141192,9.764684
351424009916865,-0.32842964,-0.17406873,9.780317
351424029770561,-0.31101316,-0.15317658,9.8005705
351424049624130,-0.29110128,-0.14320947,9.805089
351424069478411,-0.2853759,-0.12975967,9.789536
351424089332107,-0.25689688,-0.21924856,9.816224
351424109185804,-0.24499416,-0.25834647,9.791704
351424129039627,-0.26146013,-0.23499554,9.818844
351424148900645,-0.29127866,-0.18366392,9.8598
351424168754470,-0.23407714,-0.1767603,9.845574
351424188608293,-0.25824758,-0.1896826,9.843405
351424208462245,-0.23121408,-0.19132595,9.860249
351424228316070,-0.22363698,-0.1895111,9.842581
351424248170023,-0.23600526,-0.17512107,9.828365
351424268022684,-0.2720378,-0.20754416,9.803088
351424287876509,-0.2347949,-0.22464667,9.78646
351424307730462,-0.2086409,-0.2223328,9.799538
351424327584287,-0.20482533,-0.24121149,9.810598
351424347438112,-0.22114787,-0.24579746,9.817737
351424367291649,-0.2755037,-0.20143266,9.825605
351424387145602,-0.30767182,-0.20856614,9.830232
351424406999555,-0.28152803,-0.22930093,9.832498
351424426853380,-0.23239449,-0.22711845,9.794378
351424446707333,-0.24478154,-0.23525132,9.812256
351424466561158,-0.24971035,-0.24511401,9.839649
351424486417981,-0.23593557,-0.2514589,9.827697
351424506272062,-0.2587496,-0.22718897,9.816833
351424526126015,-0.27280974,-0.22460048,9.845809
351424545980096,-0.2669633,-0.26749387,9.836442
351424565834775,-0.21835473,-0.29973114,9.815992
351424585688856,-0.19644894,-0.2599833,9.792783
351424605542809,-0.19506827,-0.23822148,9.796259
351424625396762,-0.22932294,-0.22926895,9.800019
351424645250843,-0.24182853,-0.20523264,9.799724
351424665108910,-0.22146098,-0.22369793,9.7653265
351424684962969,-0.24341413,-0.22828227,9.802457
351424704816922,-0.24348128,-0.22932336,9.875332
351424724671003,-0.27056322,-0.20294802,9.872062
351424744525084,-0.26965424,-0.1906445,9.818162
351424764379165,-0.26171443,-0.25627974,9.79661
351424784228761,-0.25580463,-0.28292885,9.795841
351424804082713,-0.24639876,-0.22392197,9.801892
351424823936666,-0.2630332,-0.15384655,9.856333
351424843794879,-0.2567876,-0.16594508,9.858773
351424863650089,-0.24779269,-0.19510615,9.843273
351424883504042,-0.34339398,-0.21344076,9.822115
351424903357993,-0.37137234,-0.23204152,9.785877
351424923211945,-0.28979766,-0.25034067,9.811862
351424943065770,-0.27519792,-0.23318617,9.835517
351424962917640,-0.25503004,-0.20226486,9.880572
351424982771593,-0.26587126,-0.13992144,9.893
351425002625546,-0.26910946,-0.11464621,9.828921
351425022479371,-0.26572818,-0.13872157,9.774943
351425042333320,-0.2425861,-0.19717409,9.766651
351425062180264,-0.26527506,-0.1920696,9.787
351425082034088,-0.31882542,-0.14015377,9.809861
351425101887785,-0.3305038,-0.0992236,9.853116
351425121741608,-0.25235012,-0.17120259,9.878126
351425141595432,-0.24286868,-0.18597911,9.874138
351425161449257,-0.29181647,-0.14386453,9.858595
351425181302209,-0.27297452,-0.162674,9.773849
351425201156034,-0.26862347,-0.16105205,9.792893
351425221009859,-0.23273432,-0.17825699,9.824106
351425240863556,-0.1942253,-0.2233595,9.800177
351425260709035,-0.2248866,-0.22054355,9.80905
351425280562732,-0.24076009,-0.25026873,9.883874
351425300416301,-0.17989996,-0.26709113,9.947598
351425320269998,-0.16987641,-0.2432375,9.885452
351425340123567,-0.23057216,-0.19926731,9.875095
351425359977264,-0.29815307,-0.1669658,9.858871
351425379824493,-0.29401028,-0.123598054,9.7921915
351425399677934,-0.22843558,-0.1438968,9.761472
351425419531503,-0.19373028,-0.20673959,9.72938
351425439384944,-0.23569316,-0.27162594,9.729733
351425459238385,-0.29553947,-0.24375634,9.785605
351425479098748,-0.29118204,-0.19324142,9.822774
351425498952445,-0.26167256,-0.18207717,9.857847
351425518806014,-0.33371067,-0.16239087,9.869014
351425538659583,-0.36764193,-0.1499255,9.865465
351425558511610,-0.30991903,-0.18956818,9.862881
351425578365179,-0.2979684,-0.18862131,9.8489275
351425598218748,-0.29372695,-0.17251778,9.852008
351425618072317,-0.25244278,-0.15678404,9.835816
351425637925886,-0.21486582,-0.129764,9.812282
351425657779435,-0.1820358,-0.15834822,9.799204
351425677634082,-0.14621669,-0.21104164,9.772185
351425697487651,-0.21526092,-0.15230457,9.764814
351425717341220,-0.22840652,-0.14043365,9.777098
351425737194661,-0.1787945,-0.14675808,9.801278
351425757048230,-0.19026542,-0.16449453,9.818751
351425776894907,-0.2579374,-0.13914919,9.843716
351425796748347,-0.29501438,-0.09414931,9.859556
351425816601788,-0.26986495,-0.12175445,9.854262
351425836455227,-0.2773852,-0.1428483,9.867177
351425856309460,-0.29810354,-0.11382744,9.856014
351425876162901,-0.29177934,-0.16306217,9.820455
351425896016212,-0.30085245,-0.19024305,9.803747
351425915869652,-0.29654717,-0.14540505,9.841835
351425935723093,-0.27988076,-0.12400659,9.843904
351425955576404,-0.26745796,-0.12704913,9.841391
351425975433408,-0.27776372,-0.18785112,9.791905
351425995286849,-0.26952356,-0.23836216,9.769262
351426015140288,-0.30997118,-0.14357808,9.79408
351426034993600,-0.30094108,-0.13586318,9.809619
351426054847041,-0.27385965,-0.17935914,9.826267
351426074704205,-0.23447649,-0.16059098,9.798389
351426094557774,-0.25345296,-0.19124818,9.814162
351426114411215,-0.24619944,-0.24180707,9.82972
351426134264656,-0.27412644,-0.21529342,9.837835
351426154125425,-0.28482953,-0.2035373,9.871445
351426173979122,-0.27527717,-0.20666085,9.858685
351426193832691,-0.26559323,-0.19127396,9.855874
351426213686388,-0.30040893,-0.15289207,9.846039
351426233539957,-0.2658953,-0.23924421,9.804461
351426253393654,-0.2525254,-0.22595221,9.804922
351426273251295,-0.24306111,-0.20681213,9.77496
351426293104992,-0.1763454,-0.253388,9.792698
351426312958817,-0.2328815,-0.21160576,9.779707
351426332812642,-0.2258497,-0.19371116,9.781489
351426352666339,-0.20413305,-0.2269365,9.823408
351426372519192,-0.20934473,-0.21435973,9.811035
351426392373017,-0.21870503,-0.2146864,9.793321
351426412226714,-0.2508641,-0.22720948,9.830296
351426432080539,-0.2511526,-0.22203438,9.87601
351426451934364,-0.22804165,-0.24514079,9.871995
351426471788061,-0.24435194,-0.21163893,9.876759
351426491650122,-0.26506895,-0.23734733,9.862598
351426511504075,-0.25951773,-0.2328976,9.834649
351426531358156,-0.22680782,-0.22763985,9.816945
351426551212086,-0.042070605,-0.27855277,9.807279
351426571063277,-0.015725777,-0.25443,9.785518
351426590917358,-0.10074983,-0.25515825,9.779835
351426610771311,-0.13982208,-0.2821603,9.79354
351426630625392,-0.09322748,-0.2678157,9.798107
351426650479345,-0.077826515,-0.29240477,9.774733
351426670333090,-0.11449185,-0.32194832,9.813312
351426690187043,-0.14891581,-0.3116774,9.864736
351426710040996,-0.13815385,-0.26610413,9.880574
351426729894949,-0.13211304,-0.26089007,9.895512
351426749748902,-0.11801214,-0.27593404,9.884309
351426769602855,-0.083569184,-0.3118059,9.859092
351426789445312,-0.13037279,-0.32070357,9.840804
351426809299127,-0.13258912,-0.30345604,9.839753
351426829152952,-0.06796563,-0.27324674,9.831508
351426849010732,-0.08203663,-0.29423302,9.807815
351426868861840,-0.111970335,-0.3003408,9.798106
351426888715537,-0.054812558,-0.29813457,9.761034
351426908569232,-0.048644457,-0.2901113,9.758038
351426928422928,-0.058720797,-0.29833856,9.793692
351426948276625,-0.06259602,-0.28577375,9.823877
351426968131291,-0.07381393,-0.27496442,9.816093
351426987984859,-0.064350896,-0.32424244,9.821609
351427007838556,-0.06516423,-0.33909854,9.830046
351427027692125,-0.08575397,-0.3138638,9.816063
351427047545819,-0.07941922,-0.30642268,9.836577
351427067399388,-0.05354651,-0.30581823,9.855772
351427087251511,-0.07241768,-0.29609445,9.832745
351427107105207,-0.09912568,-0.33023086,9.822068
351427126958776,-0.08179609,-0.3276067,9.820471
351427146812471,-0.08706904,-0.3150544,9.819388
351427166663383,-0.10085793,-0.30138376,9.813046
351427186516952,-0.105830826,-0.3088891,9.807762
351427206370519,-0.15796357,-0.27960825,9.799562
351427226224088,-0.15559551,-0.26981184,9.777186
351427246077657,-0.1504333,-0.27422035,9.787337
351427265931226,-0.13520187,-0.27792928,9.784762
351427285782555,-0.15124375,-0.28972653,9.813788
351427305635996,-0.13804239,-0.30775458,9.797551
351427325489565,-0.13788685,-0.31493106,9.831082
351427345343134,-0.16946426,-0.279369,9.864842
351427365196703,-0.15274477,-0.2888536,9.843748
351427385049144,-0.16835544,-0.2830927,9.83667
351427404902585,-0.18824258,-0.28177273,9.815149
351427424756026,-0.13073081,-0.33191237,9.80877
351427444609467,-0.13911766,-0.33085692,9.802193
351427464469186,-0.12974128,-0.30156767,9.793192
351427484322755,-0.107428886,-0.29792827,9.826369
351427504176196,-0.12278793,-0.28947416,9.852542
351427524029765,-0.15974489,-0.2790231,9.819368
351427543883334,-0.15378329,-0.28503838,9.81429
351427563736903,-0.14061074,-0.30066103,9.821149
351427583591148,-0.12596606,-0.3147511,9.821145
351427603444717,-0.14246982,-0.2635106,9.8190155
351427623298158,-0.11507098,-0.23992507,9.840188
351427643151727,-0.090353854,-0.26552585,9.827239
351427663005296,-0.15841824,-0.25322726,9.847977
351427682858681,-0.21296656,-0.2309597,9.854713
351427702712250,-0.14953181,-0.22527277,9.835279
351427722565819,-0.13409604,-0.25019494,9.813436
351427742419260,-0.16032569,-0.26756966,9.816299
351427762274953,-0.14822575,-0.25635308,9.808902
351427782128650,-0.154087,-0.24792694,9.804337
351427801982217,-0.21816744,-0.25625432,9.826444
351427821835913,-0.17531279,-0.2613011,9.840526
351427841689610,-0.10889168,-0.2710966,9.848523
351427861543177,-0.14008206,-0.25121078,9.849707
351427881402336,-0.15041894,-0.21851085,9.82986
351427901256161,-0.17772458,-0.2296012,9.81619
351427921109856,-0.14590538,-0.26835692,9.796697
351427940963680,-0.118634865,-0.26135445,9.800608
351427960817377,-0.14580372,-0.22669004,9.859313
351427980677668,-0.16519724,-0.2827895,9.905742
351428000531620,-0.14967023,-0.27693024,9.931085
351428020385445,-0.099925905,-0.21213953,9.896065
351428040239396,-0.09429932,-0.22582655,9.847498
351428060092210,-0.21200947,-0.24699289,9.836316
351428079946163,-0.2337154,-0.24145277,9.802317
351428099800114,-0.110310435,-0.25325483,9.778753
351428119654066,-0.09306605,-0.26803145,9.785823
351428139507891,-0.10254752,-0.2738172,9.815008
351428159361844,-0.16326098,-0.2516515,9.822476
351428179217223,-0.16333322,-0.24511641,9.826305
351428199071176,-0.15580633,-0.24546142,9.825537
351428218925257,-0.15537973,-0.24286202,9.813613
351428238779210,-0.1776563,-0.25256348,9.808776
351428258633163,-0.17598918,-0.2512318,9.824518
351428278485112,-0.17048424,-0.2620432,9.816106
351428298339193,-0.19181953,-0.27314687,9.806189
351428318193146,-0.1682456,-0.28665227,9.8266945
351428338047099,-0.13592158,-0.27076483,9.822657
351428357901180,-0.17410639,-0.2540358,9.814355
351428377755133,-0.183727,-0.25762203,9.811305
351428397607638,-0.14396368,-0.23547848,9.787731
351428417461463,-0.1649802,-0.24191475,9.778841
351428437315416,-0.19395497,-0.23973483,9.822534
351428457169241,-0.18710226,-0.23841205,9.81441
351428477031350,-0.17941135,-0.24729408,9.774266
351428496885303,-0.17355645,-0.23810005,9.797646
351428516739384,-0.1525605,-0.22072703,9.82383
351428536593465,-0.15017773,-0.25840652,9.826765
351428556447546,-0.20217073,-0.26859578,9.822202
351428576303481,-0.16166611,-0.24378473,9.842048
351428596157541,-0.1223405,-0.23159838,9.847543
351428616011750,-0.15866433,-0.18461323,9.8416195
351428635865959,-0.22596647,-0.1936249,9.797444
351428655720040,-0.20370416,-0.24610625,9.793711
351428675574249,-0.18250029,-0.2500607,9.795974
351428695427154,-0.19309671,-0.23271376,9.803905
351428715281235,-0.2290741,-0.23078118,9.832614
351428735135316,-0.20510072,-0.22260906,9.845324
351428754989525,-0.1898934,-0.20194918,9.853001
351428774838029,-0.21068928,-0.21049057,9.838512
351428794691982,-0.17798805,-0.23101601,9.7955265
351428814546061,-0.14450629,-0.23507138,9.819683
351428834400013,-0.14037028,-0.20881093,9.877926
351428854253966,-0.15887459,-0.21163365,9.8802185
351428874107700,-0.15811402,-0.22809024,9.879441
351428893961524,-0.1784351,-0.23817126,9.859879
351428913815349,-0.18781564,-0.21571961,9.85412
351428933669172,-0.19852334,-0.2105643,9.83461
351428953523125,-0.19488357,-0.1974549,9.817892
351428973376950,-0.17688395,-0.2261674,9.802041
351428993228819,-0.1853397,-0.2322412,9.8012705
351429013082640,-0.17606923,-0.21711242,9.806789
351429032936465,-0.15820263,-0.2180227,9.780862
351429052790288,-0.14126,-0.23940569,9.765921
351429072641133,-0.1655686,-0.23863588,9.828191
351429092494958,-0.15014896,-0.22375987,9.844951
351429112348781,-0.13675724,-0.23822732,9.839356
351429132202477,-0.16932595,-0.23404416,9.862318
351429152056302,-0.17522733,-0.24370024,9.896582
351429171907651,-0.14768995,-0.26806208,9.861947
351429191761476,-0.1739276,-0.26702848,9.858732
351429211615173,-0.15763685,-0.23340157,9.872196
351429231468870,-0.11146156,-0.22485164,9.819259
351429251322691,-0.11848899,-0.21971497,9.796187
351429271176388,-0.14270891,-0.23277508,9.7452135
351429291022128,-0.109865196,-0.2699765,9.696117
351429310875696,-0.14853743,-0.2768009,9.730795
351429330729137,-0.18172076,-0.25927505,9.764706
351429350582704,-0.13233103,-0.26139542,9.7899475
351429370437357,-0.14016387,-0.25617436,9.831881
351429390290926,-0.19739269,-0.26482323,9.85745
351429410144365,-0.18715294,-0.30616942,9.880261
351429429997934,-0.15686175,-0.30937394,9.898697
351429449851375,-0.15979412,-0.27401662,9.938599
351429469704944,-0.16320904,-0.25574732,9.92187
351429489556681,-0.11940524,-0.2938657,9.870482
351429509410122,-0.1239968,-0.29898205,9.8357115
351429529263561,-0.1423756,-0.272626,9.800511
351429549117129,-0.14703363,-0.27155796,9.767274
351429568970570,-0.13497232,-0.2783107,9.758094
351429588824984,-0.109044746,-0.28855923,9.750908
351429608678424,-0.115265936,-0.28188223,9.763872
351429628531993,-0.13524908,-0.27134034,9.77485
351429648385560,-0.12997985,-0.27365735,9.764697
351429668238507,-0.15096425,-0.28880593,9.796313
351429688091948,-0.12431723,-0.27762732,9.816836
351429707945389,-0.10844962,-0.2930874,9.851331
351429727798830,-0.12679695,-0.29686484,9.869386
351429747652271,-0.14104003,-0.2768768,9.894042
351429767505707,-0.124966376,-0.2920545,9.916096
351429787356936,-0.077188656,-0.28913024,9.863951
351429807210377,-0.11341997,-0.28248957,9.813231
351429827063816,-0.15139715,-0.25317973,9.818335
351429846917128,-0.06888233,-0.24609214,9.791334
351429866770569,-0.028609129,-0.22401528,9.757019
351429886621278,-0.05443204,-0.22459559,9.711882
351429906474590,-0.069348514,-0.24664176,9.716208
351429926327903,-0.10625373,-0.25333604,9.729704
351429946181214,-0.15411915,-0.24099341,9.751279
351429966047101,-0.13463427,-0.251617,9.785634
351429985900670,-0.12531962,-0.25664842,9.844273
351430005754239,-0.1218768,-0.25799274,9.884891
351430025607680,-0.14723825,-0.24771313,9.934407
351430045461249,-0.20265682,-0.26603928,9.940758
351430065314813,-0.19098866,-0.25884113,9.932382
351430085173978,-0.1395849,-0.2283346,9.91055
351430105027675,-0.10105137,-0.21340127,9.84708
351430124881370,-0.07088061,-0.23454723,9.798852
351430144735194,-0.118112974,-0.22044007,9.771466
351430164588891,-0.15580143,-0.21944621,9.753194
351430184451394,-0.12721266,-0.23283446,9.726796
351430204305346,-0.118536316,-0.26003835,9.74531
351430224159171,-0.11446695,-0.25136194,9.795832
351430244013122,-0.13208298,-0.25239363,9.784379
351430263860148,-0.21545348,-0.2447312,9.826636
351430283713973,-0.15905797,-0.23812608,9.860755
351430303567798,-0.11458038,-0.2411944,9.892571
351430323421623,-0.17798665,-0.24271321,9.913274
351430343275448,-0.17331964,-0.23318408,9.903883
351430363129273,-0.17470199,-0.23939297,9.909724
351430382982348,-0.17107064,-0.23816463,9.893229
351430402836173,-0.11488122,-0.25369295,9.83698
351430422689998,-0.13317855,-0.24589273,9.764335
351430442543823,-0.15692994,-0.23380284,9.7617445
351430462397520,-0.1062302,-0.22813915,9.799407
351430482257527,-0.105839945,-0.19878009,9.811069
351430502111480,-0.12711109,-0.22287364,9.760777
351430521965433,-0.12533031,-0.2717619,9.737708
351430541819386,-0.15120533,-0.2785716,9.788186
351430561673339,-0.122743346,-0.24968141,9.805991
351430581527292,-0.108173825,-0.2252364,9.819712
351430601381049,-0.14318024,-0.23659727,9.821939
351430621235130,-0.133106,-0.26015186,9.818927
351430641089083,-0.10487206,-0.2580192,9.8357315
351430660943036,-0.12502225,-0.2542943,9.849657
351430680797799,-0.13251288,-0.28350827,9.881648
351430700651752,-0.16438235,-0.2722929,9.92728
351430720505705,-0.11770986,-0.25880182,9.905524
351430740359636,-0.11293176,-0.26291522,9.8628435
351430760213717,-0.17587005,-0.24971515,9.826597
351430780064718,-0.12008804,-0.24204865,9.768099
351430799918670,-0.077520855,-0.22055857,9.733942
351430819772623,-0.10572595,-0.2323343,9.727542
351430839626574,-0.08837079,-0.25354692,9.735825
351430859480526,-0.08759642,-0.24486037,9.767823
351430879334479,-0.07696712,-0.2314036,9.820879
351430899180787,-0.122523464,-0.24309735,9.848226
351430919034611,-0.19793996,-0.23792629,9.866004
351430938888436,-0.16218719,-0.24491069,9.892528
351430958742131,-0.16283885,-0.24578223,9.894835
351430978601084,-0.19917025,-0.25378245,9.869862
351430998454909,-0.15796486,-0.2674909,9.871041
351431018308860,-0.12635332,-0.259326,9.859502
351431038162684,-0.1017332,-0.26664856,9.812002
351431058016637,-0.084331386,-0.2472401,9.78
351431077861567,-0.122657545,-0.19869587,9.781345
351431097715263,-0.10258068,-0.22130097,9.795253
351431117568960,-0.09024705,-0.23071052,9.77094
351431137422655,-0.16753227,-0.24014875,9.75035
351431157276352,-0.19975111,-0.28494728,9.751308
351431177130049,-0.1814687,-0.26277927,9.780154
351431196982814,-0.16663691,-0.2456569,9.822224
351431216836511,-0.14596134,-0.2391005,9.866122
351431236690080,-0.15730047,-0.23315543,9.864565
351431256543777,-0.16953902,-0.24563791,9.869188
351431276392170,-0.1677299,-0.23744039,9.876258
351431296245739,-0.15104157,-0.24110313,9.877047
351431316099308,-0.16677456,-0.2388764,9.871188
351431335952749,-0.16440253,-0.23033589,9.853378
351431355806318,-0.112797394,-0.23340617,9.852659
351431375659887,-0.119740464,-0.22835645,9.819373
351431395514406,-0.15789314,-0.21846533,9.80712
351431415367975,-0.19016863,-0.21023743,9.80097
351431435221416,-0.1715799,-0.2212773,9.778184
351431455074857,-0.13571785,-0.25978905,9.764171
351431474928426,-0.13127826,-0.24727654,9.75015
351431494788193,-0.14206864,-0.2362667,9.782333
351431514641762,-0.18654896,-0.23161893,9.78508
351431534495331,-0.17039014,-0.22672205,9.8150215
351431554348900,-0.16759472,-0.23960744,9.863322
351431574210983,-0.19016197,-0.22966754,9.892457
351431594064808,-0.18854311,-0.2372163,9.881324
351431613918613,-0.13923696,-0.2304299,9.88459
351431633772310,-0.14105755,-0.22749624,9.882291
351431653626135,-0.16368027,-0.2257605,9.862505
351431673479960,-0.1240362,-0.25153357,9.775779
351431693337931,-0.12582847,-0.24144214,9.797558
351431713191756,-0.09930948,-0.22309023,9.814941
351431733045709,-0.07698441,-0.22760215,9.801485
351431752899534,-0.16690391,-0.21054725,9.767218
351431772753487,-0.15497737,-0.24371524,9.750381
351431792606590,-0.13115624,-0.26720113,9.787785
351431812460542,-0.16084467,-0.23029882,9.839331
351431832314495,-0.16137469,-0.22334267,9.875851
351431852168446,-0.13777633,-0.24992648,9.892898
351431872019540,-0.16213107,-0.24489143,9.87177
351431891873365,-0.147794,-0.24952507,9.82863
351431911727188,-0.14735109,-0.2397322,9.798818
351431931581012,-0.13190493,-0.22613877,9.795178
351431951434837,-0.115303345,-0.21811126,9.762894
351431971288660,-0.08144155,-0.22147016,9.761626
351431991143400,-0.06671251,-0.2519368,9.789912
351432010997225,-0.067473665,-0.25313842,9.794485
351432030851050,-0.13023531,-0.27088806,9.811983
351432050705003,-0.13442856,-0.2549218,9.838054
351432070558828,-0.071178146,-0.27805248,9.857552
351432090415805,-0.07820193,-0.28921974,9.888564
351432110269752,-0.10634648,-0.2911433,9.883907
351432130123705,-0.08330118,-0.26021504,9.885842
351432149977656,-0.070727535,-0.27877367,9.863027
351432169833364,-0.06353787,-0.27400115,9.835575
351432189687445,-0.04116603,-0.2661634,9.806141
351432209541396,-0.03595489,-0.24571745,9.754494
351432229395348,-0.03333271,-0.27147347,9.740114
351432249249429,-0.022592837,-0.26928863,9.757396
351432269103380,-0.018379603,-0.26133773,9.787553
351432288955783,-0.025579588,-0.27189782,9.786284
351432308809736,-0.06700996,-0.27056545,9.820697
351432328663815,-0.10195509,-0.24853745,9.872266
351432348517895,-0.082361266,-0.28002197,9.886627
351432368371848,-0.047432378,-0.28223708,9.893591
351432388230803,-0.026368672,-0.26341477,9.851789
351432408084884,-0.020630648,-0.267235,9.843949
351432427939093,-0.057599653,-0.28266266,9.869772
351432447793174,-0.11189188,-0.2671343,9.856854
351432467647255,-0.038712878,-0.2660761,9.841856
351432487501464,0.013958684,-0.26073223,9.852927
351432507352000,0.0015959947,-0.23717089,9.82742
351432527205952,-0.004185864,-0.24461566,9.8017845
351432547060033,-0.05587322,-0.27098003,9.785177
351432566914112,-0.030258272,-0.24853383,9.757548
351432586767680,-0.03420104,-0.22911948,9.739975
351432606621761,-0.011205702,-0.2314251,9.76748
351432626475840,0.03518599,-0.22282049,9.8034315
351432646329920,-0.013134703,-0.22182675,9.819773
351432666184001,-0.065386854,-0.25849968,9.842564
351432686030498,-0.07077246,-0.2586595,9.864609
351432705884322,-0.08218057,-0.24904679,9.893711
351432725738275,-0.054054204,-0.25286442,9.878842
351432745592098,-0.05199489,-0.26343215,9.871258
351432765445922,-0.048547387,-0.2462829,9.828833
351432785299875,-0.057610713,-0.25421926,9.790237
351432805153022,-0.07057446,-0.268421,9.789288
351432825006974,-0.055914592,-0.24270289,9.793358
351432844860799,-0.021631844,-0.2350514,9.767799
351432864714622,-0.01964126,-0.22668406,9.776696
351432884558586,-0.044797074,-0.22081411,9.824331
351432904412155,-0.02398883,-0.24071443,9.821421
351432924265594,-0.037269045,-0.26959288,9.828367
351432944119162,-0.056596473,-0.25671953,9.867119
351432963972603,-0.021550033,-0.23555847,9.885169
351432983827662,-0.05796321,-0.2382704,9.87867
351433003681103,-0.10245204,-0.27913335,9.825933
351433023534672,-0.05572821,-0.29189152,9.796402
351433043388113,-0.017890602,-0.2608012,9.835457
351433063241682,-0.04727491,-0.25530717,9.83282
351433083095251,-0.056135435,-0.26961562,9.8125515
351433102951216,-0.051312085,-0.2706815,9.808053
351433122804784,-0.04237997,-0.27582794,9.775348
351433142658353,-0.031591088,-0.2808412,9.768034
351433162511920,-0.036974974,-0.29745802,9.792561
351433182367689,-0.025248708,-0.29360238,9.842616
351433202221386,-0.04029147,-0.24978639,9.889847
351433222074953,-0.06579112,-0.2530475,9.888116
351433241928649,-0.0903326,-0.29587245,9.860103
351433261782218,-0.10422125,-0.30963662,9.846694
351433281635913,-0.0942148,-0.2853041,9.814589
351433301486725,-0.052394662,-0.2547028,9.751301
351433321340294,-0.064907745,-0.24249642,9.7725525
351433341193861,-0.114679866,-0.23568724,9.8235655
351433361047558,-0.06268849,-0.23612732,9.837267
351433380901127,-0.020570777,-0.22985485,9.878603
351433400753090,-0.03785371,-0.19712694,9.89416
351433420606658,-0.07883919,-0.21678238,9.871959
351433440460099,-0.15327097,-0.23517427,9.852035
351433460313666,-0.11314918,-0.2031852,9.803928
351433480171574,0.020808442,-0.16724266,9.768337
351433500025271,-0.042426273,-0.16062532,9.791467
351433519878838,-0.10676107,-0.20703998,9.790114
351433539732406,-0.08132479,-0.20681837,9.814469
351433559585975,-0.058217347,-0.20043576,9.817693
351433579439542,-0.07996345,-0.18485136,9.854982
351433599291739,-0.14296587,-0.17209311,9.857083
351433619145308,-0.13541453,-0.19375283,9.833829
351433638998877,-0.14183724,-0.19324037,9.795004
351433658852446,-0.103149466,-0.22386923,9.763822
351433678705887,-0.06336895,-0.2507344,9.796336
351433698568131,-0.1298823,-0.22984351,9.831994
351433718421827,-0.15593679,-0.22307226,9.837703
351433738275524,-0.11915937,-0.2243595,9.860413
351433758129219,-0.11721942,-0.23527154,9.873176
351433777988195,-0.15564752,-0.22065428,9.835936
351433797842020,-0.1818607,-0.2321351,9.807675
351433817695843,-0.16883013,-0.2650479,9.794132
351433837549667,-0.15792067,-0.23766334,9.784588
351433857403492,-0.12528616,-0.21161817,9.76981
351433877257443,-0.12914586,-0.22334266,9.786196
351433897113943,-0.16925465,-0.22982305,9.779954
351433916967896,-0.16275187,-0.2508045,9.772426
351433936821719,-0.1709003,-0.23564123,9.809961
351433956675671,-0.18748134,-0.21214338,9.817806
351433976529496,-0.22778857,-0.2172728,9.814272
351433996389686,-0.261124,-0.23399521,9.8212385
351434016243767,-0.21960601,-0.23902123,9.820529
351434036097848,-0.20651543,-0.23770915,9.841522
351434055951929,-0.22569714,-0.23933484,9.813964
351434075795981,-0.16536802,-0.24126889,9.8273535
351434095649934,-0.18046995,-0.19676824,9.784778
351434115503885,-0.17509755,-0.19455226,9.783976
351434135357837,-0.1444519,-0.2222532,9.805806
351434155211790,-0.14867954,-0.21692315,9.828392
351434175065613,-0.15242776,-0.22601864,9.820302
351434194920766,-0.15082884,-0.23757005,9.811434
351434214774719,-0.16652185,-0.21975146,9.833993
351434234628670,-0.12213572,-0.21952312,9.847177
351434254482622,-0.08371669,-0.22314912,9.855145
351434274336575,-0.13895021,-0.18917085,9.834841
351434294188777,-0.09061402,-0.22473285,9.820355
351434314042730,-0.037271123,-0.24290058,9.825377
351434333896683,-0.08423746,-0.24221683,9.839004
351434353750636,-0.08503938,-0.24001461,9.839497
351434373604589,-0.010622573,-0.21208972,9.812545
351434393458542,-0.03935225,-0.21671095,9.8097315
351434413314365,-0.10463088,-0.23787901,9.809746
351434433168318,-0.096461445,-0.25196478,9.804511
351434453022399,-0.04349903,-0.23643327,9.821266
351434472876352,-0.018808592,-0.21311258,9.838687
351434492725131,-0.06438828,-0.1979947,9.871525
351434512578956,-0.08319673,-0.23212299,9.877027
351434532432781,-0.009719029,-0.23272917,9.859637
351434552286606,-0.03810955,-0.22161165,9.833628
351434572140559,-0.06171865,-0.21601942,9.816797
351434591998574,-0.060295492,-0.220672,9.828253
351434611852527,-0.06443358,-0.23283952,9.829332
351434631706352,-0.05017653,-0.23482184,9.803219
351434651560305,-0.037230738,-0.22408168,9.787946
351434671414258,-0.03675781,-0.21551529,9.7853565
351434691268211,-0.04230452,-0.22687463,9.768912
351434711124364,-0.034502633,-0.23005812,9.784178
351434730978317,-0.013606412,-0.23351792,9.798705
351434750832270,-0.034758158,-0.21108592,9.82697
351434770686202,-0.015527445,-0.21371754,9.881601
351434790544252,-0.059529196,-0.22802205,9.894041
351434810398333,-0.056711428,-0.26879853,9.905713
351434830252284,-0.032775726,-0.27582482,9.877318
351434850106364,-0.015838655,-0.27060387,9.843536
351434869960445,-0.03535355,-0.2559688,9.8726015
351434889804699,-0.046652086,-0.23985459,9.855728
351434909658523,-0.032549858,-0.24389736,9.811098
351434929512348,-0.039519724,-0.25571316,9.769258
351434949362529,-0.01064042,-0.2720861,9.794244
351434969216354,-0.027300676,-0.25529817,9.806798
351434989070179,-0.07707028,-0.25907636,9.769106
351435008918072,-0.0072418475,-0.25631613,9.789088
351435028771766,0.007631954,-0.22382748,9.837955
351435048625463,-0.051655054,-0.24425943,9.844492
351435068479158,-0.09951503,-0.26536387,9.830005
351435088331233,-0.041669916,-0.24715777,9.835961
351435108184930,0.007605533,-0.23535645,9.873862
351435128038625,-0.050520528,-0.22148484,9.866757
351435147892193,-0.062035266,-0.23446381,9.858931
351435167745890,-0.03625257,-0.23241311,9.833095
351435187599585,-0.0811254,-0.22399656,9.806151
351435207448826,-0.07918348,-0.2125064,9.789331
351435227302395,-0.06151232,-0.19623028,9.776573
351435247155836,-0.0719244,-0.21696502,9.782009
351435267009405,-0.074103616,-0.23778151,9.783906
351435286862974,-0.06572157,-0.21094848,9.794678
351435306716171,-0.11063355,-0.19838953,9.787159
351435326569740,-0.10685137,-0.23436016,9.783826
351435346423309,-0.099125646,-0.2438543,9.800398
351435366276878,-0.1053616,-0.22604789,9.816276
351435386138961,-0.05923866,-0.2249042,9.842502
351435405992786,-0.08236857,-0.2284584,9.837403
351435425846483,-0.106138565,-0.22096303,9.850009
351435445700180,-0.11310974,-0.21278843,9.8984375
351435465554005,-0.09257165,-0.21878147,9.910698
351435485407702,-0.09147306,-0.2439726,9.889523
351435505260155,-0.08034589,-0.27282706,9.836656
351435525113852,-0.067995794,-0.2524463,9.811422
351435544967677,-0.07377465,-0.23419982,9.802419
351435564821374,-0.09828184,-0.20717263,9.804751
351435584675071,-0.09435578,-0.1989085,9.769928
351435604530414,-0.061620787,-0.22327995,9.739667
351435624384239,-0.034051698,-0.23395158,9.757045
351435644238064,-0.106526434,-0.2426228,9.799361
351435664091869,-0.12617859,-0.20838965,9.828361
351435683942982,-0.10606863,-0.21811858,9.87517
351435703796679,-0.12069623,-0.22255827,9.89879
351435723650376,-0.12977971,-0.22315492,9.88431
351435743503945,-0.13447139,-0.22118826,9.848746
351435763357642,-0.08025514,-0.22699046,9.828048
351435783211333,-0.032237433,-0.1973895,9.799478
351435803066870,-0.04086088,-0.17914282,9.7516575
351435822920567,-0.060061913,-0.17854825,9.760511
351435842774262,-0.07197383,-0.1963488,9.777968
351435862627958,-0.02884316,-0.17957105,9.759136
351435882481655,-0.06522771,-0.21370593,9.8090925
351435902336602,-0.11497239,-0.21428676,9.854303
351435922190298,-0.06344367,-0.2012848,9.842102
351435942043995,-0.074891225,-0.19675612,9.8359585
351435961897690,-0.0839371,-0.19736403,9.839025
351435981751386,-0.08985116,-0.19465497,9.8232
351436001605083,-0.07954707,-0.21517089,9.787587
351436021451236,-0.062748544,-0.23175071,9.844359
351436041304805,-0.04118191,-0.2391549,9.896742
351436061158374,-0.052780975,-0.22030696,9.939223
351436081011938,-0.09844351,-0.21362127,9.929729
351436100871297,-0.086467035,-0.21572477,9.897507
351436120724866,-0.09120909,-0.2326131,9.842298
351436140578561,-0.07710955,-0.21183184,9.793994
351436160432257,-0.031369153,-0.21082675,9.768941
351436180285826,-0.036699463,-0.22504237,9.759415
351436200149926,-0.025095532,-0.24531707,9.732532
351436220003878,-0.0546147,-0.22620486,9.789491
351436239857703,-0.067089975,-0.22021145,9.818882
351436259711654,-0.076002054,-0.22689256,9.837988
351436279565478,-0.09388298,-0.25511974,9.821771
351436299419431,-0.0667743,-0.2802722,9.826311
351436319276248,-0.04612747,-0.2767509,9.855202
351436339130329,-0.06725209,-0.30343246,9.860049
351436358984282,-0.03860973,-0.29561505,9.85868
351436378838235,-0.038637318,-0.25822255,9.853745
351436398702556,-0.03763605,-0.24907395,9.813796
351436418556765,-0.055177204,-0.26508716,9.799495
351436438411102,-0.016484074,-0.25978506,9.813884
351436458265311,-0.013593495,-0.23895091,9.829927
351436478119648,-0.05062078,-0.237074,9.832731
351436497972737,-0.09900735,-0.23537527,9.80635
351436517827074,-0.06831556,-0.24985977,9.791741
351436537681283,-0.027756773,-0.24858227,9.780271
351436557535492,-0.0346155,-0.2471777,9.774677
351436577389829,-0.076534554,-0.2586627,9.783201
351436597244038,-0.061421506,-0.24739668,9.80339
351436617097917,-0.04629484,-0.25482717,9.826045
351436636952254,-0.059941486,-0.24771032,9.866101
351436656806463,-0.056527197,-0.24088793,9.875933
351436676660672,-0.07134816,-0.23648603,9.867524
351436696517523,-0.06445579,-0.2305968,9.840041
351436716371732,-0.06338772,-0.2360573,9.831208
351436736226069,-0.06685037,-0.22805044,9.812854
351436756080384,-0.06112966,-0.23172905,9.815169
351436775934593,-0.021774605,-0.22154354,9.808437
351436795788928,0.014105486,-0.18780583,9.809876
351436815644935,-0.01991879,-0.18799514,9.784559
351436835499272,-0.077804595,-0.18522629,9.812024
351436855353607,-0.04404854,-0.18666647,9.831323
351436875207943,-0.03225184,-0.20554192,9.775884
351436895062280,-0.06532682,-0.22665738,9.790364
351436914904481,-0.06268788,-0.20112911,9.837809
351436934758561,-0.074941516,-0.18524176,9.87016
351436954612642,-0.085787,-0.2019802,9.836575
351436974467677,-0.047157522,-0.20809689,9.81853
351436994316546,-0.015568115,-0.20352727,9.842045
351437014170499,-0.055505235,-0.21246529,9.838645
351437034024578,-0.114295274,-0.23420466,9.844031
351437053878658,-0.060818568,-0.23020665,9.833242
351437073732739,-0.017224524,-0.18784493,9.815997
351437093586690,-0.06318996,-0.18163842,9.821092
351437113430623,-0.07823867,-0.21726386,9.80928
351437133284448,-0.068957075,-0.22833772,9.790329
351437153138271,-0.07866827,-0.21691008,9.804203
351437172992095,-0.038755704,-0.19893187,9.827864
351437192845920,-0.002410954,-0.20064652,9.842075
351437212703677,-0.018017689,-0.19839168,9.815659
351437232557630,-0.05332196,-0.20226415,9.8400955
351437252411455,-0.068166755,-0.20600027,9.877209
351437272265280,-0.06482147,-0.21919847,9.871501
351437292119353,-0.036740232,-0.22299391,9.85654
351437311973178,-0.03142559,-0.21140492,9.837887
351437331827003,-0.032450877,-0.2055909,9.821835
351437351680956,-0.048105586,-0.22390628,9.804765
351437371534781,-0.042673543,-0.21641165,9.757463
351437391388606,-0.0357514,-0.21344346,9.756667
351437411242625,-0.031731702,-0.20028508,9.775827
351437431096578,-0.018809384,-0.22065414,9.819438
351437450950403,-0.04606801,-0.24367237,9.849646
351437470804228,-0.026590088,-0.22912993,9.878684
351437490658053,-0.0047699357,-0.21767461,9.902164
351437510504202,-0.045140937,-0.2331871,9.875184
351437530357899,-0.090224914,-0.25088847,9.849496
351437550211596,-0.07345583,-0.25084564,9.8441515
351437570065293,-0.038439568,-0.24353588,9.8156185
351437589918990,-0.003284043,-0.23602416,9.774645
351437609772687,-0.017606145,-0.2513858,9.758559
351437629622172,-0.028456267,-0.2383498,9.763261
351437649475718,0.034706354,-0.19497587,9.76181
351437669329159,-0.003452383,-0.19477391,9.777543
351437689182600,-0.08456706,-0.23968284,9.77316
351437709043635,-0.058859237,-0.27607125,9.795875
351437728897204,-0.020687751,-0.28479642,9.8528385
351437748750901,-0.011773195,-0.2567575,9.90181
351437768604465,-0.025862541,-0.2458356,9.943335
351437788458162,-0.06339613,-0.25805143,9.95564
351437808315228,-0.08961965,-0.26413152,9.916543
351437828168924,-0.06250778,-0.2389972,9.87948
351437848022621,-0.024688246,-0.22353154,9.825768
351437867876316,-0.025846237,-0.20442773,9.799991
351437887730012,-0.03794339,-0.15890062,9.771665
351437907583837,-0.060675796,-0.15637392,9.725732
351437927436863,-0.047555175,-0.19591908,9.711922
351437947290559,-0.044730972,-0.20001137,9.707356
351437967144256,-0.052266773,-0.19590731,9.72713
351437986997953,-0.0651185,-0.19334757,9.795673
351438006853982,-0.054607246,-0.19839828,9.866289
351438026707679,-0.09592011,-0.20231044,9.910824
351438046561502,-0.1424084,-0.20760317,9.914714
351438066415198,-0.07310772,-0.21165513,9.9166565
351438086269023,-0.058830027,-0.18935148,9.882138
351438106128198,-0.0864582,-0.20866181,9.851152
351438125982022,-0.10642425,-0.18587747,9.842345
351438145835975,-0.074169934,-0.16999808,9.799725
351438165689798,-0.10921868,-0.1664326,9.787193
351438185543623,-0.10472811,-0.151816,9.786023
351438205397576,-0.06993568,-0.15625489,9.770965
351438225259813,-0.10617899,-0.1729703,9.746624
351438245113894,-0.14196709,-0.16727473,9.744155
351438264967975,-0.13826579,-0.17730126,9.755663
351438284822056,-0.14479259,-0.16253574,9.816985
351438304677995,-0.123485215,-0.18863101,9.852196
351438324532204,-0.1249327,-0.22485845,9.850008
351438344386285,-0.1877458,-0.20599861,9.888637
351438364240494,-0.14853151,-0.17139763,9.932093
351438384094703,-0.107054025,-0.19017103,9.900899
351438403948912,-0.2050072,-0.17866994,9.86965
351438423806777,-0.18884799,-0.17671905,9.818798
351438443661114,-0.09854673,-0.21647789,9.835364
351438463515579,-0.1204892,-0.19952175,9.8208065
351438483369916,-0.16594875,-0.17572129,9.781895
351438503224253,-0.122999944,-0.17143273,9.745399
351438523069150,-0.052395325,-0.19473255,9.725316
351438542923231,-0.03102797,-0.18388344,9.712444
351438562777440,-0.08789404,-0.17554714,9.740491
351438582631521,-0.1603792,-0.19282973,9.8150425
351438602480048,-0.12876977,-0.19720705,9.871845
351438622334001,-0.12890552,-0.17958206,9.90519
351438642187933,-0.13220377,-0.16797467,9.891565
351438662041886,-0.14369473,-0.16175146,9.869717
351438681895967,-0.1723484,-0.14901438,9.852184
351438701749920,-0.1234188,-0.141636,9.783137
351438721602557,-0.10666648,-0.14865932,9.746075
351438741456510,-0.14114118,-0.16007473,9.848111
351438761310330,-0.12507756,-0.17726962,9.919298
351438781164282,-0.08555781,-0.15802012,9.85753
351438801018235,-0.123210266,-0.12484274,9.818767
351438820876697,-0.15179542,-0.13835648,9.77475
351438840730649,-0.15793216,-0.16947417,9.74302
351438860584730,-0.17119825,-0.1454267,9.778905
351438880438809,-0.06364101,-0.14497863,9.834078
351438900289459,-0.074562915,-0.13928883,9.875438
351438920143412,-0.18571737,-0.13988128,9.857043
351438939997363,-0.1685388,-0.1371775,9.820062
351438959851315,-0.15916637,-0.12599042,9.8203745
351438979705268,-0.18568398,-0.14548828,9.817823
351438999559349,-0.13217159,-0.17092936,9.845018
351439019409315,-0.11502165,-0.15811631,9.866699
351439039263140,-0.13238528,-0.14741534,9.83138
351439059116963,-0.18672597,-0.13017759,9.817478
351439078970787,-0.14880264,-0.12388761,9.778213
351439098824612,-0.07783354,-0.13691208,9.739492
351439118674564,-0.10119023,-0.15522842,9.753165
351439138528260,-0.16097328,-0.16013631,9.797539
351439158381957,-0.16520202,-0.17059143,9.827341
351439178235652,-0.18815525,-0.12650993,9.828927
351439198089349,-0.18473752,-0.11577949,9.833652
351439217943046,-0.20349765,-0.12381698,9.842412
351439237789437,-0.22025745,-0.11820137,9.833282
351439257642878,-0.1866509,-0.12768611,9.831725
351439277496447,-0.14458433,-0.13527744,9.842818
351439297349888,-0.12563065,-0.17687932,9.845892
351439317205107,-0.15984465,-0.115899965,9.863274
351439337058676,-0.16886795,-0.08487734,9.844259
351439356912245,-0.12040323,-0.11032488,9.807495
351439376765686,-0.14965376,-0.121239886,9.787881
351439396619255,-0.14302668,-0.14600383,9.794411
351439416474566,-0.13394809,-0.12370646,9.784549
351439436328135,-0.16417971,-0.12381658,9.788459
351439456181704,-0.18493353,-0.12900987,9.799487
351439476035273,-0.17513174,-0.13022622,9.81216
351439495888842,-0.16626035,-0.12271908,9.810544
351439515742411,-0.14885123,-0.12060003,9.830778
351439535594994,-0.15251851,-0.13501078,9.843097
351439555448563,-0.18967551,-0.15085958,9.870771
351439575302004,-0.17046708,-0.13338034,9.865739
351439595155573,-0.15276758,-0.13869113,9.860138
351439615012452,-0.19068909,-0.11991647,9.874073
351439634866021,-0.18519428,-0.13424966,9.85894
351439654719567,-0.16206428,-0.11920083,9.84417
351439674573136,-0.15619962,-0.12784636,9.847533
351439694426705,-0.11923399,-0.12889285,9.8281355
351439714289916,-0.13756323,-0.13795649,9.761759
351439734143613,-0.19479094,-0.106748186,9.745646
351439753997438,-0.15053979,-0.0974321,9.784523
351439773851135,-0.1068638,-0.13378574,9.778636
351439793704826,-0.15704133,-0.13062134,9.766827
351439813558651,-0.16507968,-0.13141204,9.809511
351439833412566,-0.16131108,-0.15309905,9.88102
351439853266390,-0.2264773,-0.11260367,9.889159
351439873120215,-0.23886591,-0.11195209,9.885631
351439892974038,-0.19476715,-0.14255367,9.915689
351439912829589,-0.15821499,-0.14464717,9.908772
351439932683414,-0.19757272,-0.12998112,9.853871
351439952537365,-0.19784395,-0.13034496,9.808156
351439972391189,-0.12711035,-0.15637854,9.777595
351439992245014,-0.110288665,-0.15312523,9.757725
351440012098837,-0.10093747,-0.11730711,9.746505
351440031949301,-0.11536521,-0.10637999,9.750771
351440051803126,-0.11568034,-0.11194416,9.752604
351440071656949,-0.15942132,-0.10222116,9.778812
351440091510645,-0.1841878,-0.10910154,9.821095
351440111364470,-0.18599288,-0.11829922,9.877299
351440131216849,-0.15022673,-0.14411058,9.917787
351440151070545,-0.18519449,-0.10215294,9.936769
351440170924370,-0.18310949,-0.090567805,9.928528
351440190778065,-0.16995929,-0.10937431,9.922817
351440210639728,-0.19643062,-0.11142834,9.892182
351440230493553,-0.16572154,-0.1250674,9.839428
351440250347504,-0.1524434,-0.12892276,9.799068
351440270201456,-0.121227495,-0.11330924,9.784131
351440290055281,-0.09851509,-0.13485587,9.76296
351440309909232,-0.1477315,-0.119066745,9.722195
351440329764701,-0.115399584,-0.13124135,9.732612
351440349618782,-0.11021679,-0.13798018,9.765919
351440369472735,-0.15694572,-0.11831744,9.829866
351440389326685,-0.1743864,-0.14179756,9.859863
351440409180638,-0.200358,-0.15061375,9.874002
351440429043287,-0.24400333,-0.11147888,9.913607
351440448897495,-0.18519026,-0.14827466,9.938891
351440468751704,-0.15448822,-0.12659833,9.917501
351440488605911,-0.17925231,-0.1137802,9.853758
351440508453118,-0.15095253,-0.15325075,9.819288
351440528307199,-0.16143009,-0.14496931,9.799698
351440548161278,-0.17667814,-0.11917552,9.792446
351440568015358,-0.1714416,-0.12836759,9.802686
351440587869439,-0.11327214,-0.13294691,9.796147
351440607723646,-0.116124175,-0.12943207,9.778402
351440627571503,-0.15655075,-0.12831911,9.739719
351440647425456,-0.15095615,-0.15946928,9.732383
351440667279409,-0.13313212,-0.14698374,9.766459
351440687133359,-0.1444757,-0.11840629,9.794411
351440706987312,-0.15995383,-0.10488498,9.826841
351440726846197,-0.13021235,-0.14255407,9.861872
351440746700277,-0.1393405,-0.1505295,9.868059
351440766554230,-0.1719919,-0.14477167,9.872451
351440786408309,-0.18088274,-0.14743696,9.856981
351440806262389,-0.15404849,-0.14373265,9.842364
351440826116470,-0.136427,-0.12660983,9.834512
351440845963679,-0.15729098,-0.120421074,9.836823
351440865817631,-0.1594133,-0.14900069,9.832043
351440885671456,-0.121924035,-0.15546264,9.816211
351440905525407,-0.119186774,-0.16303949,9.820339
351440925380092,-0.11882815,-0.16372918,9.806326
351440945234045,-0.13845631,-0.14810872,9.79864
351440965087870,-0.1338408,-0.129293,9.787779
351440984941695,-0.12505509,-0.14586319,9.774953
351441004795648,-0.13395806,-0.16346504,9.772365
351441024639861,-0.1257657,-0.16402684,9.814482
351441044493557,-0.122447856,-0.16155623,9.843126
351441064347254,-0.15956412,-0.17086604,9.852
351441084201077,-0.19051555,-0.16392906,9.860108
351441104054773,-0.19469461,-0.12917572,9.922452
351441123908470,-0.09078642,-0.16808444,9.914581
351441143759892,-0.11391076,-0.17464142,9.890577
351441163613460,-0.17838682,-0.14900841,9.790761
351441183467157,-0.14786658,-0.2149392,9.729569
351441203320724,-0.15610415,-0.2160099,9.719993
351441223175141,-0.11371508,-0.18265818,9.764012
351441243028838,-0.09958281,-0.14816514,9.801021
351441262882535,-0.11094751,-0.13739125,9.817484
351441282736104,-0.14837001,-0.16508931,9.813261
351441302589801,-0.14651702,-0.18241882,9.788251
351441322448994,-0.16444975,-0.19062291,9.782286
351441342302819,-0.14912628,-0.16971701,9.8122835
351441362156644,-0.10436733,-0.14097671,9.841096
351441382010469,-0.14594746,-0.09794162,9.77517
351441401864294,-0.13879204,-0.14050408,9.7246895
351441421718119,-0.13732962,-0.13718079,9.778228
351441441572656,-0.20669925,-0.14693695,9.936725
351441461426481,-0.1569251,-0.20279685,10.010081
351441481280178,-0.0449896,-0.15074486,10.017399
351441501134003,-0.063538365,-0.056986526,9.963444
351441520982374,-0.14303897,-0.1037957,9.847561
351441540836071,-0.24433392,-0.11629185,9.726926
351441560689768,-0.09825901,-0.12529013,9.679996
351441580543465,0.05031287,-0.13629133,9.711014
351441600397162,-0.09228517,-0.14525925,9.793356
351441620250859,-0.16431808,-0.15335388,9.828717
351441640103272,-0.14975172,-0.106716484,9.772712
351441659956841,-0.13846563,-0.11335982,9.771958
351441679810518,-0.11674546,-0.15948902,9.812314
351441699664087,-0.1368745,-0.1408806,9.866559
351441719517656,-0.117114715,-0.12530793,9.894352
351441739374847,-0.13443612,-0.14763825,9.898334
351441759228544,-0.11886305,-0.14045292,9.908415
351441779082113,-0.030311354,-0.14990465,9.881917
351441798935810,-0.09670019,-0.14361173,9.850258
351441818795108,-0.15595387,-0.14018486,9.784586
351441838648933,-0.11112879,-0.16140655,9.78566
351441858502756,-0.08254988,-0.17444888,9.797084
351441878356580,-0.112970635,-0.15437841,9.767254
351441898210405,-0.10607565,-0.16195369,9.744696
351441918064228,-0.062869616,-0.16844791,9.751764
351441937920277,-0.05841541,-0.17187421,9.756862
351441957774102,-0.08901114,-0.15988722,9.773062
351441977627925,-0.06050376,-0.16468944,9.845417
351441997481749,-0.05277188,-0.16521545,9.93273
351442017335702,-0.13223276,-0.15453768,9.981189
351442037191969,-0.15308027,-0.18440427,10.017694
351442057046050,-0.12365873,-0.18105395,10.039533
351442076900003,-0.09835187,-0.1831878,9.968989
351442096753956,-0.11137108,-0.16817464,9.821892
351442116606164,-0.10310022,-0.15189153,9.644339
351442136460117,-0.030300435,-0.15607624,9.525356
351442156314068,-0.018450415,-0.17256613,9.510531
351442176167892,-5.6124775E-4,-0.14765318,9.581754
351442196021845,0.030507384,-0.13604856,9.660907
351442215875796,-0.0328648,-0.16031358,9.767222
351442235734285,-0.107714854,-0.17966805,9.898293
351442255588238,-0.1231752,-0.17958055,9.935344
351442275442189,-0.14732178,-0.17401858,9.984527
351442295296270,-0.18274385,-0.15264572,10.025075
351442315150223,-0.15898116,-0.15010993,10.0279455
351442335003202,-0.14545259,-0.15825042,9.981103
351442354857283,-0.081637666,-0.15807943,9.926275
351442374711364,-0.022205895,-0.1581327,9.857977
351442394565317,-0.009590631,-0.17615108,9.763482
351442414419398,-0.012068194,-0.17190513,9.706313
351442434273351,-0.055278968,-0.13073759,9.729906
351442454124752,-0.04920876,-0.12316441,9.732914
351442473978705,-0.060187053,-0.14186649,9.756382
351442493832786,-0.0892526,-0.15376064,9.747728
351442513686739,-0.083026454,-0.1916482,9.767622
351442533546240,-0.09379164,-0.21248537,9.813195
351442553400321,-0.12111909,-0.20517766,9.867096
351442573254530,-0.09683752,-0.1990476,9.8884735
351442593108611,-0.08258477,-0.19693075,9.934468
351442612962820,-0.11021219,-0.19609655,9.93663
351442632816705,-0.06761749,-0.20039718,9.901555
351442652670786,-0.056082927,-0.2135621,9.865664
351442672524867,-0.096831605,-0.19173719,9.83002
351442692378948,-0.046787202,-0.17073627,9.784861
351442712233029,-0.019708449,-0.17266466,9.75224
351442732087110,0.0038716136,-0.17049345,9.744958
351442751940732,-0.031600416,-0.18513604,9.721828
351442771794812,-0.12058894,-0.16135466,9.736181
351442791648893,-0.084436804,-0.19208908,9.739952
351442811502844,-0.072738916,-0.19714847,9.769321
351442831358936,-0.11322028,-0.18853241,9.807708
351442851213145,-0.110245585,-0.16372861,9.853665
351442871067224,-0.12823471,-0.16412264,9.89988
351442890921304,-0.1423213,-0.15032746,9.919488
351442910775385,-0.13365412,-0.18146811,9.9277315
351442930624114,-0.14284137,-0.16370328,9.921741
351442950478066,-0.12613818,-0.15049127,9.879896
351442970332147,-0.103252746,-0.16027093,9.861036
351442990186100,-0.1220713,-0.17673483,9.815719
351443010040178,-0.11427341,-0.1891155,9.75956
351443029894131,-0.07124566,-0.15091074,9.739697
351443049736819,-0.08826253,-0.15920956,9.760388
351443069590643,-0.1056365,-0.1857399,9.735824
351443089444596,-0.11797423,-0.19181368,9.721648
351443109298547,-0.1282241,-0.14307931,9.83147
351443129142997,-0.11962239,-0.1425244,9.882888
351443148996566,-0.1561273,-0.15217611,9.899898
351443168850263,-0.16327052,-0.15632841,9.897387
351443188703832,-0.0812842,-0.16281195,9.880477
351443208557529,-0.08054749,-0.18960816,9.867866
351443228411098,-0.16316056,-0.18187734,9.854798
351443248262071,-0.11407248,-0.16761659,9.849198
351443268115640,-0.039646614,-0.15804288,9.838664
351443287969209,-0.0760232,-0.15229005,9.816128
351443307822778,-0.13064583,-0.15864001,9.771848
351443327676347,-0.07213246,-0.16397607,9.717014
351443347527524,-0.017359452,-0.15819055,9.716109
351443367381093,-0.008441151,-0.14274202,9.758855
351443387234534,-0.058361758,-0.11921119,9.759156
351443407088103,-0.06295156,-0.11387888,9.781671
351443426942122,-0.031141406,-0.13026759,9.821081
351443446795563,-0.059567455,-0.13693024,9.858138
351443466649132,-0.12601005,-0.13251981,9.870809
351443486502573,-0.12017708,-0.13367623,9.899532
351443506356142,-0.09534869,-0.16145211,9.899962
351443526209583,-0.10236444,-0.1475726,9.880978
351443546064580,-0.059367184,-0.113925174,9.865214
351443565918149,-0.0997897,-0.105018,9.839832
351443585771590,-0.11305223,-0.12406628,9.815398
351443605625138,-0.08339101,-0.12215996,9.790108
351443625478707,-0.06542991,-0.11002322,9.766629
351443645336984,-0.059637647,-0.13980322,9.756889
351443665190553,-0.06172953,-0.14401388,9.765572
351443685044250,-0.09015125,-0.12851956,9.797284
351443704897819,-0.10791559,-0.1238415,9.834247
351443724760626,-0.13857731,-0.15049726,9.856871
351443744614323,-0.15383844,-0.16999623,9.844399
351443764468020,-0.12241753,-0.19117467,9.86482
351443784321837,-0.13898543,-0.14762534,9.914972
351443804175534,-0.10205458,-0.17784353,9.919786
351443824029229,-0.12124222,-0.1910945,9.910066
351443843884615,-0.16051644,-0.1651095,9.821264
351443863738440,-0.13066845,-0.2024971,9.800524
351443883592263,-0.11580003,-0.21206851,9.827115
351443903446087,-0.12595192,-0.18069492,9.848778
351443923299784,-0.14975065,-0.19572692,9.875325
351443943154950,-0.12873825,-0.22375225,9.874291
351443963008774,-0.097178124,-0.22213073,9.8944435
351443982862599,-0.10689013,-0.2120788,9.929311
351444002716294,-0.091054305,-0.21403612,9.957858
351444022568789,-0.113187,-0.19627205,10.019244
351444042422614,-0.11938163,-0.16021518,10.010075
351444062276309,-0.12321384,-0.14475803,10.007847
351444082130133,-0.04689016,-0.17240867,9.952445
351444101983830,-0.009028783,-0.17246278,9.903591
351444121837653,-0.16258414,-0.16293445,9.923002
351444141698542,-0.16667171,-0.18764572,10.032575
351444161552495,-0.07572118,-0.18941355,10.154282
351444181406446,-0.0561882,-0.144489,10.167963
351444201260398,-0.10313048,-0.12861474,10.120342
351444221114351,-0.18519187,-0.16415927,10.063679
351444240979537,-0.18940544,-0.1476676,10.030574
351444260833746,-0.08821264,-0.11288988,10.032932
351444280688083,-0.09369858,-0.104338445,10.03278
351444300542292,-0.094533436,-0.1261783,10.079327
351444320396501,-0.1140817,-0.11400507,10.11106
351444340250710,-0.12746868,-0.08268315,10.092244
351444360103509,-0.15170927,-0.120365635,10.09249
351444379957718,-0.118901215,-0.1526871,10.146431
351444399811927,-0.024424948,-0.1746822,10.140763
351444419666264,-0.10847412,-0.11884435,10.202053
351444439529713,-0.22227739,-0.06834498,10.244534
351444459384178,-0.11876505,-0.11596132,10.282458
351444479238771,-0.090499066,-0.13687898,10.236675
351444499093236,-0.11272484,-0.1360385,10.180724
351444518947829,-0.11715404,-0.16034277,10.2184105
351444538788410,-0.13022156,-0.14074108,10.207903
351444558642619,-0.14845489,-0.12430833,10.205551
351444578496956,-0.12239371,-0.12889649,10.251925
351444598351293,-0.11034854,-0.14068493,10.285921
351444618205502,-0.13645442,-0.15563117,10.274128
351444638059839,-0.17335407,-0.15152082,10.252349
351444657910568,-0.14589934,-0.15735799,10.291386
351444677764777,-0.09766379,-0.1759143,10.3365345
351444697618858,-0.12469568,-0.1503857,10.370824
351444717473045,-0.17971508,-0.108958215,10.423968
351444737321296,-0.20126598,-0.14278296,10.468618
351444757175377,-0.24306348,-0.13887277,10.432394
351444777029328,-0.17510648,-0.1469391,10.417717
351444796883408,-0.16983387,-0.124125145,10.452436
351444816737489,-0.20285445,-0.10390672,10.423335
351444836587479,-0.22485688,-0.120357096,10.367444
351444856441431,-0.22643429,-0.10965206,10.373393
351444876295256,-0.1356809,-0.12903413,10.356179
351444896149207,-0.056301355,-0.18837786,10.310693
351444916003159,-0.0707735,-0.17358011,10.340678
351444935857112,-0.06378547,-0.13701226,10.387326
351444955705174,-0.059435178,-0.1198385,10.395324
351444975558999,-0.123934664,-0.09199883,10.380057
351444995412824,-0.12086825,-0.13871776,10.4006405
351445015266649,-0.08039401,-0.17024547,10.411113
351445035116530,-0.12293486,-0.10501866,10.464063
351445054970227,-0.17658226,-0.08663525,10.475881
351445074823919,-0.15852998,-0.124089584,10.416601
351445094677615,-0.18978177,-0.09640203,10.425777
351445114531312,-0.12977983,-0.116946675,10.460712
351445134385007,-0.10211053,-0.14003628,10.414909
351445154232078,-0.13642533,-0.11115583,10.365377
351445174085647,-0.14037108,-0.0875275,10.429729
351445193939086,-0.17689067,-0.099618465,10.392253
351445213792654,-0.32342935,-0.1195625,10.361107
351445233646223,-0.27279764,-0.21811755,10.314804
351445253496622,-0.09365493,-0.27232534,10.313176
351445273350062,-0.060176447,-0.20084555,10.368489
351445293203503,-0.17740422,-0.1417379,10.385111
351445313056942,-0.2851382,-0.15273578,10.3878355
351445332911605,-0.17514096,-0.17574154,10.403247
351445352765046,-0.006191952,-0.1894138,10.424968
351445372618615,-0.051728237,-0.14788248,10.428982
351445392472184,-0.17942409,-0.19169477,10.446848
351445412325625,-0.19288969,-0.24885754,10.455394
351445432179194,-0.14930448,-0.23979671,10.420235
351445452033909,-0.13426752,-0.14998586,10.443258
351445471887350,-0.11859593,-0.1357341,10.392128
351445491740791,-0.108414784,-0.15550491,10.41352
351445511594360,-0.15428777,-0.130592,10.487065
351445531447801,-0.1321865,-0.11493196,10.462867
351445551298310,-0.11131105,-0.09251105,10.381951
351445571151751,-0.11358037,-0.05487807,10.378396
351445591005064,-0.055084977,-0.08099644,10.390504
351445610858505,-0.02995127,-0.05096083,10.414881
351445630711160,-0.08158698,-0.014431976,10.421464
351445650564601,-0.100096986,-0.02254573,10.455486
351445670417914,-0.041037258,-0.07930303,10.449466
351445690271227,-0.042120107,-0.07386022,10.43517
351445710124540,-0.09410738,-0.08399659,10.430433
351445729977981,-0.13218984,-0.16153224,10.439106
351445749826668,-0.15118046,-0.20047987,10.49232
351445769679981,-0.13874635,-0.20198642,10.447474
351445789533143,-0.1626514,-0.223309,10.422627
351445809386455,-0.22970508,-0.2618743,10.504434
351445829239640,-0.2044477,-0.18473756,10.515274
351445849103067,-0.12698834,-0.087772265,10.256535
351445868956507,-0.05368699,-0.073284745,10.379912
351445888810076,0.007145054,-0.11689425,10.396561
351445908663643,0.007940432,-0.07197464,10.444217
351445928526117,-0.050925896,-0.07475787,10.39414
351445948379814,-0.1251349,-0.17326944,10.412241
351445968233509,-0.19327226,-0.24189126,10.436577
351445988087206,-0.28058147,-0.23246324,10.3900385
351446007940775,-0.2610545,-0.27723593,10.343225
351446027794472,-0.123451956,-0.30727747,10.400192
351446047656771,-0.13426551,-0.35464323,10.465979
351446067510724,-0.19857322,-0.2873651,10.456414
351446087364671,-0.20658171,-0.17041151,10.459836
351446107218623,-0.09691824,-0.19219677,10.434523
351446127072448,-0.0022341455,-0.25777707,10.447268
351446146926412,-0.046088595,-0.106696665,10.554904
351446166780364,-0.3097098,0.2537978,10.587648
351446186634189,-0.15577862,0.1307351,10.653805
351446206488012,0.35281375,0.08347995,10.432505
351446226341964,0.37181363,-0.17751987,10.036051
351446246195789,-0.12307736,-0.15717897,10.547513
351446266055392,-0.07940404,0.08536312,10.459554
351446285909472,0.22247912,0.2458388,10.29466
351446305763425,0.4157233,-0.1559149,10.409628
351446325617506,0.24388535,-0.23527125,10.36058
351446345472335,-0.14848597,-0.3785318,10.038404
351446365326416,-0.3189908,0.034441736,11.187778
351446385180369,0.37983328,-0.06617129,11.026397
351446405034450,0.4704646,-0.62728804,10.486971
351446424888531,-0.08870228,-0.5703786,9.850712
351446444752522,-0.15276907,0.11901597,9.789993
351446464606859,0.5241113,0.13257536,9.749992
351446484461068,0.6095211,-0.1278212,9.539922
351446504315405,-0.09737587,-0.056221303,9.905766
351446524169614,-0.047919773,0.19688834,10.61378
351446544023951,0.64781886,0.13998522,10.778668
351446563877746,0.9566064,-0.26884046,10.309388
351446583732083,0.5631835,-0.8673124,9.672271
351446603586420,-0.2300478,-0.83390987,10.042416
351446623440629,-0.66206324,-0.15986845,10.485548
351446643302450,-0.25411108,-0.34890568,10.185809
351446663156915,-0.24770813,-0.737795,10.477526
351446683011508,-0.2886047,-1.0050197,10.73226
351446702865973,-0.20425084,-0.23030683,10.975668
351446722720566,-0.21559972,-0.7914677,8.86083
351446742566367,-0.65537405,-0.69035476,9.697468
351446762420683,-0.35508916,0.03798678,10.478612
351446782275020,0.4886148,0.65087914,10.835899
351446802129355,0.5695155,0.97974133,10.509031
351446821983819,0.24383272,0.47957867,9.6279125
351446841838156,-0.29149288,0.1693231,9.830406
351446861690852,0.124419406,-0.4225539,10.687128
351446881545188,0.306981,-0.659746,10.150563
351446901399525,-0.6807629,-0.44623914,9.354279
351446921253860,-0.9826558,-0.23458587,10.419226
351446941100804,-0.3217964,-0.26727152,10.438626
351446960955013,-0.12359444,-0.04116134,9.958363
351446980805257,-0.5891723,0.093352884,9.673269
351447000659466,-0.7772001,0.14596845,10.0461235
351447020513675,0.67156565,1.3855308,10.356749
351447040367756,0.6852612,0.8645228,10.205796
351447060215785,-0.002299164,0.35234812,9.40624
351447080069994,0.051875763,0.5383524,10.402543
351447099924069,0.44137663,-0.12753037,10.680718
351447119778149,0.81001264,-0.8749136,9.748869
351447139632230,-0.16341738,0.21976292,10.201579
351447159481665,-0.23364611,0.69634527,10.127305
351447179335745,-1.1831802,-1.719547,8.725829
351447199189698,-0.68027896,-0.9062897,8.541056
351447219043649,-0.20739745,-0.54661745,10.947452
351447238889337,0.68913984,-0.96990275,10.209794
351447258743162,0.1310626,-1.2830731,9.419685
351447278596857,-0.46355015,-0.3141723,10.146385
351447298450681,-0.6292594,0.18485692,10.270921
351447318304506,-1.0917269,-0.31291172,9.434255
351447338158201,-0.72235495,-1.0595069,9.241985
351447358005508,-0.31890222,-0.52216244,9.601614
351447377859077,-0.062947206,0.29026237,9.90115
351447397712646,-0.15732309,0.46569896,10.071443
351447417566083,-0.02215284,0.003662112,9.984945
351447437419652,-0.15694067,-0.3482619,9.897326
351447457277090,9.357946E-4,0.24686405,10.138298
351447477130658,0.2956993,0.45072573,10.498647
351447496984227,0.08200844,-0.072500706,10.573221
351447516837794,-0.7004584,-0.19697338,9.952502
351447536688494,-1.5946473,0.5931352,9.966912
351447556541935,-3.290214,-0.35792896,8.646797
351447576395502,-4.466854,-1.5763497,7.708903
351447596249070,-2.9855046,-1.3084426,9.2218
351447616102511,6.2464685,-0.3509026,8.156026
351447635956080,2.6354818,-1.7742836,8.953258
351447655811929,-0.39345795,1.1945748,12.235153
351447675665370,0.66835845,2.3037996,10.755342
351447695518939,2.5071971,3.5591362,11.822869
351447715372503,3.0002255,3.6349816,11.1635065
351447735226072,4.4903827,2.6132236,9.7067995
351447755081712,1.6162508,0.6497855,10.90751
351447774935152,-1.6401002,-0.6330291,12.70894
351447794788721,4.366222,-1.1310345,12.563549
351447814642288,5.695623,-1.4095134,9.919503
351447834501338,-3.3184369,1.6729422,8.660286
351447854355035,-10.443301,5.300382,10.238073
351447874208730,-6.9475913,0.46263897,9.836115
351447894062298,0.7375018,-2.3285685,7.378426
351447913915995,0.6160772,-2.6102927,6.1106935
351447933769690,-3.0465994,-1.8485987,6.3879204
351447953627891,-2.328123,-1.262972,6.9247923
351447973481588,-1.1374959,0.66645634,8.4004755
351447993335283,-0.14016782,-0.27076903,10.113948
351448013189107,-2.5364592,-1.2246064,11.07949
351448033042804,-0.9814029,-1.1944244,9.511395
351448052899099,4.718794,-1.7289193,9.664618
351448072752924,4.456396,0.84096414,9.160155
351448092606749,-3.103395,0.035450157,12.632228
351448112460569,-0.56318533,-0.27475035,13.924665
351448132314521,0.8846421,1.6262689,12.302421
351448152168346,0.7119264,0.40514743,13.553808
351448172027698,-0.6897435,-1.2974294,15.439211
351448191881650,0.4031357,-1.2870258,14.108129
351448211735603,0.5471361,-0.8908755,12.853265
351448231589554,7.166651,1.5267496,11.803292
351448251450145,7.552727,1.4635288,12.010746
351448271304354,7.0284657,-1.3070306,9.644235
351448291158563,5.6234055,-0.39020723,9.535713
351448311012644,4.1878657,-0.0075667836,7.309635
351448330866853,2.9581897,0.7855721,6.4895477
351448350721024,3.5891228,2.8249729,7.072955
351448370575233,3.8936303,0.9687812,9.684689
351448390429442,4.955122,-0.091817655,6.107666
351448410283523,3.9140756,-1.3444034,6.6292973
351448430137732,-1.4412714,2.0697346,8.272363
351448449991941,-2.3708024,-2.4948776,6.801932
351448469853488,-1.850722,-4.7727942,4.1610193
351448489707825,-6.599259,-1.6778882,2.424703
351448509562290,-4.8966303,-5.5856075,3.2683973
351448529416627,-2.9870343,-5.0072284,7.3337317
351448549267516,-2.995401,3.0383942,10.858718
351448569121725,-5.2944226,9.631071,11.915814
351448588976062,-4.785993,5.749244,11.654595
351448608830399,0.21484481,9.002648,6.552461
351448628684736,-0.19702113,2.690412,9.014436
351448648539073,3.7044156,-9.346346,14.333923
351448668391690,-1.510449,-5.4855514,16.401627
351448688246027,-5.8767443,6.276183,14.033804
351448708100215,-2.713238,0.32298273,13.847933
351448727954552,-0.48712087,-0.5099325,12.151356
351448747808889,2.9237378,0.07301966,9.350894
351448767657634,3.9054532,1.4555027,9.266352
351448787511842,1.169686,2.0319815,11.195922
351448807366051,-0.4740801,0.16562541,12.362495
351448827220258,4.5940957,3.016341,8.815863
351448847075216,2.1847692,10.744438,10.605767
351448866929425,-0.2505815,13.4526,9.768764
351448886783504,-9.31798,6.8989434,12.419956
351448906637712,-8.05624,7.1820993,15.250615
351448926491921,-0.37618417,10.303291,16.31819
351448946346000,-5.5803924,0.75863695,14.872198
351448966195979,-6.642681,0.9136017,1.708847
351448986050060,-5.7743583,-2.072924,1.1826992
351449005904141,1.1943718,-1.7780919,10.055462
351449025758094,2.573802,-1.1944429,9.917616
351449045612175,-0.9295483,-1.248412,7.646035
351449065460996,0.7872223,0.97411126,5.639589
351449085315071,2.0913787,-0.25887728,3.0367568
351449105169024,5.3395095,-2.433495,4.932444
351449125023103,5.296288,-0.756045,6.084605
351449144876129,4.6505566,1.3441509,4.015961
351449164730082,5.054596,2.1845887,2.165742
351449184583905,4.2882147,3.6505954,3.21483
351449204437857,2.5994992,5.407949,4.3317995
351449224291810,-3.402244,6.926918,7.055895
351449244145633,-4.072784,-0.41375348,7.4367223
351449263993136,-4.3572,-1.5802193,7.1726923
351449283846833,-6.6179376,0.68013966,11.268495
351449303700656,-3.546439,3.046237,11.503994
351449323554480,5.5806217,1.9325951,10.518295
351449343408177,4.5050454,2.0769017,13.71835
351449363258716,6.7698073,6.9899397,12.684024
351449383112413,8.896247,6.4729953,10.800734
351449402966110,-1.1516695,6.7167196,12.64398
351449422819679,-0.037970454,6.3054056,11.401233
351449442674674,1.6704412,6.3050947,11.06756
351449462528371,5.305185,3.6648898,12.556812
351449482382068,2.188756,0.30054358,10.22546
351449502235765,0.89449555,0.8811844,7.118041
351449522089462,0.86816883,1.328,7.131257
351449541943159,2.3517394,1.3235803,8.957405
351449561796436,2.1027613,1.8206307,9.807919
351449581650133,0.3736266,1.0188637,10.214867
351449601503830,-0.97636425,-0.053792387,9.634402
351449621357527,1.3337466,0.11369166,8.105011
351449641211224,3.0030918,0.21525,7.348396
351449661061953,1.17675,-0.21563533,6.91592
351449680915522,0.47367585,-0.50772625,8.13799
351449700769091,0.220619,-0.06909717,10.656088
351449720622660,-0.37709892,-0.4147686,10.027061
351449740476229,-1.1106163,-1.4140328,8.203747
351449760329798,-1.0548998,-1.8873916,8.386054
351449780186759,-0.06840343,-0.06204235,10.797567
351449800040435,-0.6849532,0.08286116,12.55533
351449819894004,-2.1347907,-2.5494394,8.64826
351449839747699,-0.9366956,-3.389978,4.78498
351449859599372,0.72985107,-0.6358083,7.742017
351449879452941,-0.55115575,-1.7432741,8.873505
351449899306508,-0.45240545,-2.7107997,6.0483575
351449919160076,0.77488226,0.62315917,10.95476
351449939013645,1.7183791,2.5150754,12.3915825
351449958868523,1.9273316,2.0091255,8.520965
351449978722091,1.0396357,1.3768648,8.472706
351449998575660,-0.84245414,-1.6330887,8.578166
351450018429227,-0.2605168,-1.154227,7.314056
351450038282923,-0.71780795,0.9361285,4.4902554
351450058136492,-1.9042116,2.037976,0.60582846
351450077997448,0.45214957,2.5813878,12.517651
351450097851272,-1.1043085,-1.1613548,19.849691
351450117705097,-2.3716125,-0.49362347,15.47196
351450137558792,-0.7760956,-0.8160799,11.697049
351450157413179,1.0613692,-1.0131872,9.186999
351450177267004,0.21477641,-0.8543279,10.056309
351450197120827,0.8597636,-0.31266358,11.187487
351450216974651,1.2304393,-0.7210032,11.251549
351450236828476,1.4847283,-0.76758784,10.565123
351450256679273,0.9482993,0.31775925,9.669172
351450276532969,1.1892422,0.24166545,9.364873
351450296386794,1.2380358,-0.082624555,10.056289
351450316240617,0.5292847,-1.0076206,10.105375
351450336094313,0.7433311,-0.67109853,10.017605
351450355948138,1.7400405,0.16778252,9.861376
351450375805575,0.3006205,-0.28393942,10.323226
351450395659399,-0.4210258,-1.2882935,9.74266
351450415513224,0.08248536,-1.301966,9.22344
351450435367047,-0.0925139,-0.4333287,10.039963
351450455229551,-0.20468564,0.22499315,10.924478
351450475083632,0.38350677,-0.9746917,10.077759
351450494937711,-0.3106291,-2.197561,10.581062
351450514791663,-0.743649,-1.9122758,10.033009
351450534645744,0.33805504,-1.3957263,8.45475
351450554501457,0.9183545,-0.29405597,8.595228
351450574355665,0.053201333,-0.1968215,9.861435
351450594209746,-0.021993607,-0.28282627,10.698345
351450614063825,0.1647929,-0.15027013,10.5459795
351450633917905,0.541388,0.12733054,9.590654
351450653771986,0.6296683,-0.22275017,9.359829
351450673622304,0.4897095,-0.6426894,9.609543
351450693476384,0.4118043,-0.91451776,9.771551
351450713330337,0.29778522,-1.2691424,9.980517
351450733184288,0.34803686,-1.0479398,9.63607
351450753040483,0.3936112,-0.7814966,8.850143
351450772894564,0.6437088,-0.62297046,8.963686
351450792748643,0.46367112,-0.19857566,9.52298
351450812602723,0.27938437,-0.08327539,9.962157
351450832456804,0.24523044,0.0657282,10.33509
351450852310883,0.2695614,-0.113650404,10.217306
351450872165056,0.29107654,-0.30180353,9.949399
351450892019137,0.27904904,-0.30992824,9.795143
351450911873216,0.30407503,-0.00881016,9.602322
351450931727168,0.29604122,-0.12129224,9.485811
351450951581249,0.32227054,-0.37816918,9.817765
351450971430556,0.38011461,-0.35475788,9.940174
351450991284508,0.49965295,-0.33281115,9.475003
351451011138589,0.4600517,-0.4745288,9.155807
351451030992540,0.35962692,-0.43134913,9.241123
351451050836606,0.30549613,-0.42140523,9.594547
351451070690431,0.2976271,-0.2501119,10.13976
351451090544126,0.22019072,-0.05510896,10.08014
351451110405422,0.25610086,-0.22412594,9.700853
351451130259247,0.4446105,-0.48506567,9.458452
351451150113070,0.32199687,-0.63140184,9.707327
351451169961288,0.7124708,-0.49915168,8.970806
351451189814985,0.7081152,-0.04095344,9.047299
351451209668680,0.10726763,-0.07655083,9.966635
351451229522376,0.1154195,-0.107756235,10.262742
351451249375945,0.1378828,-0.37034804,9.903003
351451269226589,0.44579414,-1.1259218,10.305506
351451289080157,0.6406759,-0.5549392,9.914014
351451308933726,0.4158945,0.86908185,9.534149
