UPTIMENANO,Ax,Ay,Az
351753551990441,-1.1369525,1.1157836,8.055982
351753571846825,-0.75632524,0.55862767,8.94776
351753591703337,-0.9011154,0.2194167,8.825004
351753611554942,-1.4757353,0.073844805,9.45881
351753631411326,-1.4741168,-0.5520537,10.373342
351753651267710,-1.2443652,-0.7131733,10.536419
351753671124094,-1.3233554,-0.29215172,10.008099
351753690980478,-1.1223518,-0.09309206,9.45031
351753710838756,-0.72178215,-0.21704742,9.462087
351753730695268,-0.55013734,-0.41532886,9.844599
351753750551780,-0.5601746,-0.41272375,10.042406
351753770408292,-0.58466536,-0.3484171,10.143094
351753790264804,-0.4585886,-0.32001236,10.153642
351753810100470,-0.33277372,-0.18687575,9.973775
351753829956214,-0.31450695,-0.07733735,9.608338
351753849811958,-0.40098533,-0.18845071,9.539576
351753869667830,-0.37150154,-0.35419098,9.751897
351753889523574,-0.28317523,-0.35050344,9.870574
351753909382353,-0.4609027,-0.22064584,9.882911
351753929238097,-0.84213495,-0.30758062,10.168202
351753949093841,-0.9497222,-0.4195397,10.241497
351753968949585,-0.6727487,-0.29983696,9.966672
351753988805329,-0.5127902,-0.24824843,9.9826565
351754008669588,-0.47042695,-0.24222143,10.154533
351754028525588,-0.3887266,-0.04060564,9.785779
351754048381588,-0.7050503,0.07697453,9.800881
351754068237588,-1.2546921,0.04071571,10.200848
351754088093588,-1.4898348,-0.39794543,11.115958
351754107954738,-1.094073,-0.7031831,10.810403
351754127810866,0.26030394,-0.36256853,8.507017
351754147666866,-0.36902496,0.89927715,7.3684883
351754167522994,-0.9276183,-0.45354873,9.316519
351754187378994,-0.9610544,-0.89670676,10.852889
351754207248006,-1.397986,-2.6521537,9.045335
351754227104390,-0.19827522,-2.7260933,10.831787
351754246960646,0.5778548,-1.1724931,11.19486
351754266817030,0.3873338,0.32060158,9.168205
351754286673414,-1.3816373,3.6829824,7.60441
351754306534192,-2.4475515,3.3199394,8.442541
351754326390704,-1.0319743,-1.0541505,10.08283
351754346247216,-0.61387694,-1.4444994,11.142975
351754366103728,-0.1242061,-0.7998244,10.316366
351754385960240,-0.86126935,-0.5632196,10.074676
351754405823158,-1.0971742,-0.6120378,9.565948
351754425679798,0.4293079,-0.064294845,8.621
351754445536566,0.3607871,0.57440954,8.698679
351754465393206,-0.24260291,-1.0468168,10.324164
351754485249846,0.36713845,-0.7304742,10.017633
351754505103170,0.3275424,0.47445145,9.56069
351754524959810,-0.69566816,0.5419625,9.409629
351754544816578,-0.3084591,0.5305461,9.031972
351754564673218,1.4415987,-0.09047058,8.520987
351754584529858,0.6883031,-0.57389855,9.333056
351754604388284,-2.0871754,-0.88394654,11.463807
351754624245052,-1.713391,-1.1255413,11.2804575
351754644101692,-0.46834102,-1.1873369,10.2986765
351754663958460,-1.3102263,-1.1849564,11.081788
351754683815228,-0.59798664,-0.051176235,9.332884
351754703677652,0.32445452,0.59204155,8.595914
351754723534420,-1.2706428,0.46535963,9.734638
351754743391316,-1.7130715,0.3773213,9.42953
351754763248084,-0.8744522,0.40003562,8.912225
351754783104980,-0.59816873,0.5986801,8.892623
351754802957256,1.2159647,-0.4808076,6.8803754
351754822814024,-1.331099,-0.39005607,8.446106
351754842670792,-2.0304768,0.067682885,11.154748
351754862527560,-0.9526224,-1.8346891,10.160908
351754882380043,-1.9667519,-0.52339745,9.908408
351754902236684,-2.7725523,-1.1948438,11.356474
351754922093323,-1.4800093,-1.2716907,11.121972
351754941950091,0.647138,-1.8220699,10.195218
351754961806732,0.6720853,-1.9358699,11.366554
351754981667316,0.18588604,-0.55981576,8.1173525
351755001516337,-0.10254978,1.5305179,5.453888
351755021372850,3.6927636,-3.444781,4.3685308
351755041229489,5.2164288,-7.3433323,3.3857148
351755061086001,1.2905897,-4.2036886,11.563931
351755080942642,0.34381694,-0.10470218,12.771662
351755100791528,-1.9235516,1.5675466,4.897344
351755120647912,1.7167128,0.059297655,1.2791859
351755140504297,3.248882,-3.2563064,0.8967247
351755160360680,-0.11820332,-6.9926333,1.3084692
351755180217192,-4.7173967,-5.425992,4.2175384
351755200073577,-8.824761,-2.0383697,10.78378
351755219929777,-5.947592,0.22104004,20.64338
351755239786161,-1.9967636,-2.6565795,20.243963
351755259642418,-4.195577,-3.6702466,16.14263
351755279498801,-3.6174002,-1.5908382,19.93534
351755299354679,-0.22754753,1.0000437,19.539162
351755319210936,-1.6654112,2.111276,8.840217
351755339067319,-5.9518747,4.2261887,-5.39255
351755358923575,-4.13964,0.16429652,2.7950153
351755378779832,1.6609211,-3.06607,15.982226
351755398638135,4.095955,2.0634892,6.194088
351755418494391,2.430687,-6.8668685,4.697882
351755438350648,-2.1476984,-5.406449,2.0928304
351755458206903,-1.0999036,-4.4070477,5.105004
351755478063159,-3.0286052,-3.6918218,7.6471777
351755497919544,-1.6262522,-1.6751126,7.517038
351755517752599,-0.25950363,-3.3423302,6.632942
351755537608343,-4.1964703,-3.7153344,10.675104
351755557464216,-5.667764,-4.261468,11.679012
351755577320087,-1.9544009,3.8107908,11.836417
351755597180798,0.9659634,0.38224393,11.590883
351755617036671,-1.3823403,5.0795856,11.3125
351755636892542,-1.0499064,3.4301736,15.910932
351755656748286,0.1880184,3.54376,18.396427
351755676604159,0.837506,2.6494207,18.233244
351755696465101,3.3095815,1.2594595,16.739262
351755716320973,7.711176,5.2530303,17.592821
351755736176974,10.202633,1.5308057,14.093544
351755756032845,5.4839,-9.645354,7.8090477
351755775888845,1.417083,-6.8680787,7.891292
351755795744718,3.8159604,-3.3518882,7.543337
351755815605221,3.4887938,-2.9752235,5.8479524
351755835461221,2.3321154,-2.2283764,7.6842294
351755855317350,0.5178818,-2.2556067,8.628637
351755875173349,-0.28690457,-1.9802942,7.8163066
351755895037966,4.6708527,-2.9252234,8.111583
351755914894223,8.37963,-2.2377691,12.628147
351755934750478,4.8287964,5.3978167,12.086503
351755954606606,4.2041173,3.4434693,10.980525
351755974462863,3.1325095,2.067354,10.6070795
351755994322610,-2.3081038,2.1339283,8.554213
351756014178994,-3.2097268,-1.667126,11.005327
351756034035251,-1.4680325,-4.707044,17.438633
351756053891634,-9.094162,7.155253,15.256362
351756073747890,-10.049332,-2.241108,7.995278
351756093604275,-8.746682,-8.607023,4.6655126
351756113464978,-2.2850215,1.052358,7.6845284
351756133321362,-0.117130406,1.046633,5.676214
351756153177619,0.054812856,-0.025649786,6.37566
351756173034002,3.1560507,2.9348335,7.178848
351756192896700,2.5939567,1.8878407,6.6431565
351756212753213,1.5588427,0.73873746,4.975657
351756232609724,-1.1015049,1.289873,7.366784
351756252466364,-1.6579868,-0.26408312,10.286407
351756272322877,-2.09273,-0.18661524,14.185231
351756292179388,-2.4940023,-0.72427875,14.485365
351756312039916,-2.702402,0.27251,13.029194
351756331896557,-2.1651475,1.8612584,11.196972
351756351753324,-0.75328064,0.20404634,11.045939
351756371610092,-1.0066855,0.19593728,9.7024555
351756391466733,-1.0792776,0.9477776,9.817435
351756411327198,-0.31723303,0.13867183,10.180502
351756431183966,0.016044935,-1.4798716,7.426952
351756451040735,4.2498665,-0.60058546,1.9253067
351756470897630,2.1574087,4.9342237,8.145602
351756490754550,1.3236763,1.5287488,9.995508
351756510611447,0.64308953,-0.8434164,9.029405
351756530468214,-2.32196,-0.463735,8.887552
351756550325110,-3.476991,-2.2339551,6.1079597
351756570182007,-3.6474829,-4.14933,7.146795
351756590038774,-3.0842376,-3.667757,11.409724
351756609897998,-2.616148,-2.3635662,11.399615
351756629754895,-1.6077152,-2.0061843,11.385024
351756649611790,-0.8566541,-0.71356654,9.530352
351756669468686,-1.8011366,0.6354666,8.311818
351756689325583,-3.1278892,-1.6744599,9.756408
351756709186636,-1.6188698,-0.8965382,11.21287
351756729043532,-1.722115,-0.98287296,13.513809
351756748900557,-2.5808897,-0.037635427,17.90961
351756768757452,1.2544596,2.5290673,11.185474
351756788617531,1.3053886,1.459412,10.616555
351756808474556,-0.33060598,1.830584,11.41613
351756828331579,-0.23873673,1.881938,10.616419
351756848188731,-0.220352,2.2387156,10.515508
351756868045756,0.6226792,-0.34169817,12.74654
351756887902779,0.8599261,-2.4727082,12.449815
351756907756152,-2.4138432,-0.81902707,8.981743
351756927613177,-0.58321416,2.2979608,4.351867
351756947470200,-1.9721384,-0.6960204,6.5045443
351756967327224,-0.8368252,-0.9026873,10.2218
351756987184249,0.909338,0.6172688,10.080758
351757007039809,0.81281173,0.51144123,8.9845915
351757026896833,0.51682085,0.1270748,8.896136
351757046753858,0.9120691,0.40830317,8.608063
351757066610881,0.22959462,1.3356134,6.65178
351757086467905,-1.3780209,1.4667397,5.8376484
351757106325058,-3.50082,0.4409972,9.131293
351757126165508,-5.895627,-8.565899,13.455611
351757146022020,-2.697481,-6.5702972,13.241296
351757165878533,0.006137859,-1.2881707,10.362751
351757185735044,0.8981299,-1.6283848,9.380346
351757205595323,3.8921392,-4.0578947,10.70922
351757225451964,6.3009295,-4.5329676,11.878691
351757245308603,2.7497687,-1.4124842,10.813369
351757265165115,0.81915927,0.21172823,8.972553
351757285021756,-0.449124,0.10685732,9.720185
351757304870575,-1.7326806,0.2866558,10.107081
351757324727087,-1.8293539,0.5841752,9.77948
351757344583472,-0.9604884,0.1711022,9.652362
351757364439983,-0.6329479,-0.24284884,9.821487
351757384296367,-0.93486726,-0.49038985,9.599428
351757404152880,-1.1718525,-0.5100697,9.531578
351757424005222,-0.85534996,-0.37943232,9.952744
351757443861606,-0.48469064,-0.057313032,9.659063
351757463717863,-0.5898643,-0.066041745,9.829874
351757483574246,-0.70974624,-0.18941298,9.83742
351757503433891,-0.66558564,0.07432568,9.365347
351757523290276,-0.503519,0.031016339,10.002183
351757543146787,-0.11310484,-0.1582271,10.099924
351757563003171,-0.09934021,-0.5666768,9.882469
351757582859556,-0.40043563,-0.5779306,9.732708
351757602714056,-0.63603616,-0.3908372,9.739782
351757622570312,-0.8151303,-0.25143582,9.912237
351757642426697,-0.42165747,-0.24672712,10.100693
351757662282952,-0.10780851,-0.18161114,10.028184
351757682139336,-0.080454536,-0.27649978,10.434783
351757701995593,-0.17635906,0.33847374,10.122384
351757721856000,-0.28493765,0.3078807,9.782296
351757741712384,-0.551995,0.057941422,9.727144
351757761568897,-0.696805,-0.034616064,9.51896
351757781425280,-0.6610607,0.17614572,9.358349
351757801281452,-0.84348,0.4763214,9.47655
351757821137837,-0.25093916,-0.6366945,9.38973
351757840994220,-9.3831297E-4,-0.99324334,9.5391445
351757860850604,-0.599534,-1.5634875,9.602508
351757880706989,-0.8752373,-1.6036234,9.100087
351757900563372,-0.4212861,-0.3136597,8.403303
351757920413529,-0.055185795,0.46525246,8.4123125
351757940269786,0.43691373,0.4320595,9.394131
351757960125913,0.9063704,0.27646935,9.752809
351757979982170,0.42684764,0.3269036,9.921311
351757999838427,-0.6892361,-0.44970202,10.076982
351758019696208,-1.481945,-1.4013495,10.150618
351758039552465,-1.2201275,-0.5391556,9.738455
351758059408722,-0.111111484,-0.023030447,9.433797
351758079264979,0.70655257,-0.16221184,9.402412
351758099122326,0.48612422,-0.29785657,9.506222
351758118978583,-0.41451782,-0.47053862,9.630246
351758138834840,-1.0406058,-0.2795074,9.725673
351758158690969,-1.0219396,0.21397755,9.757996
351758178547226,-0.6954657,0.40083548,9.61248
351758198403483,-0.43424797,0.18269129,9.505148
351758218265866,-0.39322966,-0.4373924,9.390869
351758238122251,-0.34641996,-0.73013526,9.329766
351758257978636,-0.35722187,-0.48496178,9.392518
351758277835021,-0.56515664,-0.15541245,9.396796
351758297691406,-0.7533842,0.09033941,9.447588
351758317554051,-0.68040496,0.33109948,9.560741
351758337410564,-0.38327155,0.18009046,9.531031
351758357267205,-0.3699219,-0.04113077,9.456583
351758377123718,-0.48117572,-0.16021685,9.4106455
351758396985489,-0.57903165,-0.30312914,9.445848
351758416842258,-0.60587573,-0.33469608,9.48668
351758436699006,-0.3948067,-0.20120034,9.418837
351758456555647,-0.32873923,-0.045191053,9.369465
351758476412416,-0.20310691,-0.049708005,9.363675
351758496269185,-0.27532038,-0.13853927,9.361032
351758516128886,-0.4711727,-0.16862735,9.349284
351758535985783,-0.55538064,-0.14268062,9.300001
351758555842552,-0.54812956,-0.12736449,9.251213
351758575699321,-0.5013626,-0.11418396,9.190699
351758595556090,-0.4748563,-0.13957937,9.228875
351758615412579,-0.45690823,-0.08593374,9.266374
351758635269348,-0.45140576,-0.013251471,9.277547
351758655126117,-0.4123123,-0.019813897,9.237324
351758674982886,-0.427548,-0.20980412,9.235258
351758694839655,-0.44024506,-0.33583525,9.279989
351758714696424,-0.39752865,-0.20196638,9.245473
351758734555285,-0.3754956,-0.010119076,9.2598295
351758754412182,-0.42196715,0.0062869196,9.229386
351758774268951,-0.45499724,-0.14465071,9.182264
351758794125704,-0.43157282,-0.24903691,9.138654
351758813982783,-0.44847786,-0.25440308,9.1334715
351758833839552,-0.48533842,-0.15828514,9.191226
351758853696447,-0.42938605,-0.11251239,9.193707
351758873553343,-0.3764962,-0.20563045,9.209962
351758893410240,-0.38353902,-0.2769021,9.205955
351758913262271,-0.32975203,-0.2615098,9.258988
351758933119039,-0.26922783,-0.18379933,9.282417
351758952975808,-0.28772795,-0.21484847,9.270142
351758972832345,-0.30526242,-0.25725695,9.194993
351758992689114,-0.30684206,-0.29343164,9.145594
351759012545883,-0.3767192,-0.25979722,9.1835785
351759032384920,-0.36893037,-0.17197806,9.213772
351759052241302,-0.36736673,-0.14285097,9.228946
351759072097687,-0.36398467,-0.17994615,9.233804
351759091954198,-0.37070698,-0.18586566,9.243262
351759111806335,-0.37431538,-0.18141112,9.288956
351759131662720,-0.32806957,-0.1552735,9.306401
351759151518975,-0.32003295,-0.21454106,9.244094
351759171375359,-0.32244202,-0.25410575,9.195565
351759191231744,-0.28550276,-0.21689062,9.178515
351759211090699,-0.31188008,-0.1186543,9.138389
351759230946956,-0.34212303,-0.1405849,9.141515
351759250803341,-0.36724025,-0.18766043,9.171967
351759270659726,-0.38883036,-0.21842636,9.196825
351759290516111,-0.3845304,-0.24136765,9.218779
351759310372496,-0.36091304,-0.22788197,9.195063
351759330225157,-0.3389955,-0.21204627,9.20993
351759350081414,-0.35419294,-0.16982132,9.217839
351759369937799,-0.37553144,-0.13109584,9.218853
351759389794056,-0.35261902,-0.11268972,9.235689
351759409652789,-0.34992528,-0.20373552,9.239569
351759429509174,-0.37842423,-0.23214413,9.22696
351759449365431,-0.3878609,-0.20853645,9.224215
351759469221816,-0.36946198,-0.16783462,9.199652
351759489078201,-0.3683302,-0.17146328,9.19799
351759508926838,-0.35551023,-0.19085519,9.173124
351759528782967,-0.33671844,-0.2115217,9.15856
351759548638968,-0.3649767,-0.1949174,9.168643
351759568495097,-0.42426878,-0.20376374,9.175194
351759588351226,-0.43470877,-0.22390196,9.215505
351759608207355,-0.37226295,-0.2025701,9.211456
351759628070810,-0.36706418,-0.16459371,9.194208
351759647927067,-0.3772245,-0.1392572,9.183743
351759667783324,-0.4206447,-0.15453517,9.170273
351759687639431,-0.40338436,-0.16006024,9.195944
351759707503910,-0.36178634,-0.16826639,9.231516
351759727360295,-0.34974244,-0.13219649,9.224785
351759747216680,-0.3414324,-0.09177668,9.202299
351759767073062,-0.3648395,-0.12697275,9.198493
351759786929319,-0.3832572,-0.17487839,9.212205
351759806785702,-0.3748311,-0.2096615,9.210257
351759826636163,-0.37642002,-0.25420848,9.163627
351759846492420,-0.36067623,-0.17901264,9.132122
351759866348675,-0.32729316,-0.17543826,9.132428
351759886204931,-0.31071717,-0.2707101,9.182109
351759906061060,-0.33850077,-0.27637067,9.193042
351759925921314,-0.2803977,-0.3142122,9.212213
351759945777698,-0.30396065,-0.23460214,9.233837
351759965633955,-0.29724386,-0.17789981,9.25587
351759985490210,-0.19906648,-0.24283646,9.2692175
351760005352129,-0.16987799,-0.26488575,9.259724
351760025208642,-0.16435643,-0.3451374,9.183952
351760045065027,-0.19782288,-0.42180002,9.177542
351760064921409,-0.17292634,-0.34317172,9.189576
351760084777922,-0.17102869,-0.3297969,9.146653
351760104634305,-0.13373065,-0.37225524,9.15539
351760124497950,-0.082114264,-0.38915622,9.18076
351760144354591,-0.13969816,-0.395725,9.2251425
351760164211102,-0.16425878,-0.40905082,9.242034
351760184067742,-0.10510828,-0.3690985,9.26027
351760203924383,-0.04155544,-0.3850889,9.261572
351760223789501,0.04136739,-0.4448714,9.2316475
351760243646397,0.12456585,-0.4082064,9.225812
351760263503166,0.024339467,-0.40502408,9.253843
351760283360063,-0.0015501002,-0.39845294,9.223967
351760303224094,0.027863083,-0.35234037,9.232428
351760323081119,0.11348606,-0.37844622,9.304161
351760342938272,0.13475195,-0.43517667,9.325862
351760362795297,0.101623304,-0.41550076,9.306675
351760382652322,0.05160453,-0.33555546,9.318068
351760402509347,0.034909375,-0.39167204,9.329409
351760422366366,0.024084682,-0.44975188,9.305279
351760442223519,0.08247005,-0.3747492,9.31726
351760462080672,0.11048973,-0.35948372,9.391563
351760481937825,0.08573016,-0.4104808,9.371852
351760501794850,0.03486559,-0.42191675,9.346601
351760521653303,0.08473075,-0.40081167,9.354494
351760541510584,0.16230512,-0.42956263,9.424557
351760561367737,0.1148564,-0.39963242,9.468415
351760581225018,0.042868093,-0.36252874,9.433746
351760601082171,0.023072544,-0.35328895,9.414918
351760620939452,0.02994034,-0.41050157,9.414047
351760640788241,0.0801228,-0.4587356,9.375696
351760660645266,0.07863335,-0.40556678,9.394824
351760680502163,0.08640877,-0.3528973,9.486835
351760700359188,0.030546308,-0.37767833,9.626936
351760720220134,0.14616272,-0.40218058,9.659982
351760740077159,0.15465449,-0.39455265,9.593467
351760759934182,0.15155622,-0.38529247,9.578437
351760779791206,0.09903119,-0.341225,9.532119
351760799648231,0.13374725,-0.34706095,9.4632435
351760819505157,0.23593149,-0.38293228,9.4711
351760839362181,0.25696176,-0.40371707,9.499113
351760859219206,0.2535043,-0.44947234,9.572307
351760879076357,0.16709976,-0.39467904,9.647101
351760898933381,0.10372639,-0.33092552,9.700948
351760918790406,0.124367766,-0.33974713,9.697432
351760938632734,0.16720052,-0.3361977,9.681326
351760958489374,0.16101618,-0.33141395,9.677635
351760978346143,0.12532008,-0.34937325,9.669467
351760998202910,0.14082944,-0.39258394,9.628774
351761018047294,0.19228914,-0.41762462,9.62432
351761037903807,0.22681633,-0.40617523,9.666169
351761057761360,0.22247872,-0.387166,9.706943
351761077617872,0.19392432,-0.345885,9.70736
351761097474385,0.16404042,-0.33361107,9.74115
351761117319139,0.11873952,-0.35812792,9.742773
351761137175396,0.13055344,-0.36619374,9.715643
351761157031525,0.1212331,-0.34621674,9.706914
351761176887782,0.13535449,-0.3863357,9.703847
351761196743911,0.14496148,-0.37197337,9.681774
351761216600168,0.14706804,-0.3547283,9.707163
351761236459143,0.1628842,-0.38829833,9.729104
351761256315272,0.16201201,-0.3666306,9.753996
351761276171529,0.1775493,-0.34847057,9.799338
351761296027786,0.1415901,-0.37999064,9.849712
351761315883667,0.068758115,-0.36735344,9.8446865
351761335739924,0.08583838,-0.35825485,9.811787
351761355596181,0.090049356,-0.3770362,9.792563
351761375452438,0.10664159,-0.3680025,9.762008
351761395308695,0.16904739,-0.39179572,9.73029
351761415165080,0.20831488,-0.3911931,9.731142
351761435015499,0.20202167,-0.4186989,9.697253
351761454871500,0.15918538,-0.39849412,9.718262
351761474727629,0.10342955,-0.38633272,9.768172
351761494583630,0.10193953,-0.3957331,9.762707
351761514439759,0.112677135,-0.34923163,9.800493
351761534290286,0.1365849,-0.3569972,9.841965
351761554146287,0.13321684,-0.40051204,9.832716
351761574002160,0.1074349,-0.3954381,9.7785425
351761593858012,0.050164234,-0.37697658,9.765301
351761613715365,0.04593238,-0.40557924,9.764094
351761633571238,0.12789069,-0.40597522,9.761765
351761653427111,0.19066836,-0.3974833,9.78242
351761673282984,0.15558569,-0.3733593,9.789985
351761693138985,0.09860739,-0.36321914,9.773203
351761712994858,0.105807595,-0.34697667,9.747973
351761732860263,0.13282755,-0.37786064,9.743532
351761752716264,0.15159151,-0.41216406,9.739763
351761772572386,0.14989297,-0.38528422,9.778864
351761792428386,0.14423428,-0.35582486,9.832379
351761812284387,0.12753142,-0.35785124,9.821496
351761832142654,0.10745276,-0.36078063,9.807113
351761851998782,0.10367395,-0.35116595,9.815217
351761871854911,0.102115996,-0.39278552,9.777531
351761891710910,0.13040154,-0.38184497,9.771274
351761911571172,0.18092032,-0.3546526,9.788683
351761931427429,0.1907244,-0.38732743,9.782759
351761951283556,0.17375487,-0.37828133,9.761288
351761971139812,0.13093434,-0.34156504,9.800263
351761990995941,0.14029624,-0.3765172,9.833341
351762010852196,0.17846434,-0.38333446,9.799677
351762030710915,0.14537689,-0.3418454,9.757047
351762050567172,0.085038275,-0.38023916,9.760689
351762070423427,0.11987958,-0.42047364,9.746567
351762090279683,0.26120198,-0.2929783,9.774547
351762110135940,0.27568054,-0.3007413,9.7962265
351762129999723,0.24845457,-0.32669175,9.808291
351762149856236,0.20752472,-0.30073372,9.817404
351762169712621,0.2297814,-0.3079934,9.823489
351762189569006,0.25632796,-0.3347182,9.782169
351762209429501,0.24319084,-0.32144234,9.773471
351762229286014,0.22986372,-0.29110685,9.785826
351762249142655,0.274597,-0.31716478,9.811707
351762268999168,0.2762972,-0.31546196,9.775464
351762288855681,0.29690322,-0.30051237,9.802773
351762308712194,0.27309656,-0.27191985,9.844784
351762328578273,0.25404224,-0.28002545,9.7596245
351762348435170,0.21214758,-0.28115308,9.771059
351762368291939,0.20913886,-0.29539406,9.771673
351762388148836,0.29415786,-0.31003356,9.764687
351762408005605,0.3107231,-0.27365947,9.783317
351762427869084,0.2586837,-0.2782078,9.777814
351762447726109,0.211095,-0.33277884,9.773648
351762467583134,0.19891155,-0.31570125,9.7923975
351762487440287,0.21155836,-0.28908834,9.836342
351762507297312,0.27558345,-0.32038835,9.816507
351762527154337,0.22971545,-0.28596556,9.764219
351762547010668,0.20704712,-0.27828452,9.7752285
351762566867800,0.25989512,-0.3328557,9.755224
351762586724825,0.23541857,-0.33401856,9.7382345
351762606581850,0.16610353,-0.27147976,9.821323
351762626431383,0.23076937,-0.3075928,9.808286
351762646288152,0.28700942,-0.3110129,9.7794895
351762666145049,0.23508824,-0.27343926,9.763263
351762686001946,0.22706681,-0.2861886,9.738552
351762705858843,0.24922356,-0.3184975,9.732477
351762725719556,0.22606137,-0.27959013,9.765884
351762745576453,0.24902257,-0.25603124,9.801757
351762765433350,0.27131632,-0.27809617,9.791743
351762785290247,0.24904458,-0.2726711,9.797798
351762805147134,0.2150485,-0.28793612,9.805171
351762825004031,0.23712185,-0.3187917,9.790008
351762844847956,0.25389427,-0.30839795,9.798114
351762864704596,0.24127212,-0.27697036,9.815178
351762884561365,0.3005124,-0.28676587,9.776823
351762904418004,0.2984989,-0.29488453,9.765522
351762924272032,0.21699958,-0.30013907,9.790509
351762944128673,0.17716675,-0.3235559,9.771231
351762963985312,0.21039906,-0.3082894,9.756026
351762983841952,0.23216158,-0.3088094,9.784605
351763003698593,0.24251454,-0.31470874,9.801068
351763023544582,0.19424914,-0.3093565,9.776893
351763043400966,0.17545688,-0.3084039,9.7852335
351763063257479,0.19207822,-0.33136737,9.816727
351763083113862,0.20331661,-0.36748463,9.811906
351763102966265,0.17666568,-0.33300984,9.810431
351763122822778,0.18813528,-0.30978364,9.796879
351763142670799,0.2170304,-0.3072236,9.718499
351763162526927,0.21330011,-0.29720733,9.727523
351763182383184,0.17169315,-0.2992639,9.785177
351763202239311,0.20284083,-0.39976326,9.774342
351763222092600,0.21831253,-0.33315086,9.808692
351763241948729,0.20385899,-0.27549657,9.865879
351763261804730,0.23691145,-0.36250955,9.837377
351763281660856,0.17238344,-0.31804428,9.778544
351763301516985,0.16102767,-0.31267232,9.722812
351763321372984,0.18251346,-0.37483728,9.72824
351763341232340,0.17584693,-0.3513301,9.750583
351763361088597,0.21559823,-0.30492094,9.785949
351763380944724,0.23100802,-0.31659833,9.864095
351763400800852,0.17594528,-0.3326782,9.896143
351763420657109,0.15099409,-0.31444523,9.9119425
351763440509122,0.14678177,-0.28453407,9.876187
351763460365250,0.18238378,-0.3148175,9.802802
351763480221251,0.17723936,-0.3197043,9.752495
351763500077250,0.203554,-0.2973654,9.733352
351763519928599,0.29325414,-0.33255473,9.726404
351763539784472,0.2537227,-0.32189986,9.7243
351763559640345,0.19536842,-0.27278715,9.733531
351763579496218,0.20178373,-0.30663514,9.7714815
351763599352091,0.19048584,-0.27490553,9.800936
351763619208087,0.20919314,-0.28078035,9.828657
351763639066477,0.23097381,-0.2966467,9.814163
351763658922350,0.19253936,-0.2995247,9.813762
351763678778221,0.16755809,-0.27910417,9.806683
351763698634093,0.17885804,-0.30129313,9.77797
351763718489966,0.25110963,-0.28037733,9.759472
351763738355462,0.30226418,-0.2488747,9.757658
351763758211590,0.24563782,-0.25832424,9.780348
351763778067591,0.17495559,-0.2661341,9.795188
351763797923718,0.18575746,-0.27344933,9.747973
351763817781030,0.213503,-0.3395788,9.759735
351763837637159,0.21859126,-0.335443,9.795299
351763857493158,0.21072212,-0.32711276,9.77746
351763877349286,0.18456854,-0.26087755,9.796302
351763897205415,0.1860651,-0.28958017,9.782339
351763917061542,0.20773502,-0.33917353,9.783488
351763936925509,0.21045151,-0.3182705,9.813977
351763956781766,0.1931534,-0.31998608,9.807955
351763976638021,0.18367097,-0.30421472,9.793631
351763996494277,0.16498931,-0.2750408,9.797415
351764016350534,0.18069342,-0.31085566,9.793715
351764036212481,0.21648592,-0.33969095,9.77981
351764056068866,0.2144348,-0.32869953,9.799589
351764075925379,0.17449132,-0.3246939,9.799022
351764095781759,0.17599551,-0.2982896,9.788565
351764115638791,0.21006216,-0.25893417,9.76599
351764135495304,0.21493408,-0.27347428,9.766167
351764155351815,0.21193208,-0.30058736,9.760953
351764175208327,0.20158535,-0.3080912,9.780092
351764195064840,0.20937113,-0.31304377,9.798512
351764214921223,0.21815026,-0.30719414,9.810661
351764234779814,0.20446359,-0.2893492,9.816595
351764254636327,0.22639474,-0.28281093,9.843447
351764274492838,0.27881005,-0.21588436,9.830466
351764294349351,0.26042366,-0.20688094,9.80892
351764314205992,0.24783297,-0.2077743,9.81157
351764334067721,0.2697747,-0.22955799,9.800249
351764353924490,0.3157282,-0.24871218,9.776193
351764373781259,0.32278997,-0.20995988,9.757874
351764393638028,0.29998785,-0.18291326,9.745238
351764413494797,0.28996485,-0.24475384,9.713574
351764433351566,0.24522282,-0.24998459,9.720019
351764453199959,0.2950542,-0.2323405,9.752754
351764473056472,0.39734972,-0.20980251,9.804796
351764492913113,0.3004097,-0.1649346,9.796585
351764512769626,0.21377578,-0.2199275,9.799348
351764532627461,0.20723385,-0.2452703,9.82682
351764552484102,0.2704344,-0.2416163,9.840438
351764572340743,0.30499658,-0.23153797,9.850031
351764592197384,0.28349265,-0.20596546,9.830082
351764612054025,0.28196773,-0.20193459,9.796063
351764631910338,0.22910686,-0.20712903,9.7791
351764651766851,0.36461234,-0.24871595,9.774675
351764671623492,0.35191834,-0.23394345,9.747487
351764691480005,0.35213232,-0.15760267,9.735277
351764711336646,0.29216647,-0.15097675,9.757804
351764731193287,0.23447998,-0.20797387,9.748073
351764751054163,0.326476,-0.13070703,9.769239
351764770910803,0.39173394,-0.103079,9.782028
351764790767444,0.3562691,-0.11750302,9.792319
351764810624083,0.31260744,-0.10399344,9.80739
351764830481857,0.31239468,-0.08573228,9.853891
351764850338498,0.3653864,-0.063251875,9.844509
351764870195265,0.36490622,-0.044718657,9.845103
351764890051905,0.356109,-0.07495714,9.841343
351764909908546,0.36186284,-0.09591241,9.818537
351764929763698,0.35370043,-0.029457524,9.796328
351764949620338,0.3279961,-0.008368598,9.769376
351764969477107,0.35686252,-0.040404644,9.760804
351764989333746,0.3720332,-0.043977376,9.751636
351765009190386,0.35916558,-0.03947,9.748099
351765029047027,0.36942628,-0.05516414,9.743488
351765048892427,0.34080312,-0.075141795,9.78437
351765068742171,0.29414386,-0.008132042,9.815364
351765088598556,0.3270789,0.012137523,9.802405
351765108455067,0.3778488,-0.006008921,9.7676735
351765128307471,0.37281886,-0.041910436,9.7920685
351765148163856,0.35611874,-0.061744045,9.794211
351765168020111,0.3276506,-0.06545749,9.797509
351765187876367,0.29055497,-0.026879665,9.832981
351765207732624,0.32690668,-0.024576338,9.846034
351765227589007,0.3515015,-0.023994464,9.793301
351765247437455,0.35461044,-0.08826492,9.775611
351765267293584,0.3380775,-0.13103911,9.788143
351765287149713,0.3621797,-0.12599418,9.7620945
351765307005842,0.34848824,-0.08142661,9.76158
351765326861971,0.30043423,-0.03571535,9.782343
351765346713548,0.323207,-0.04765914,9.73592
351765366569548,0.34388345,-0.123495705,9.737655
351765386425549,0.3801971,-0.11464153,9.765008
351765406281676,0.31593797,-0.11002218,9.771792
351765426142826,0.29151455,-0.088216275,9.76362
351765445998955,0.30611184,-0.091960214,9.820871
351765465855082,0.29415202,-0.11557463,9.820119
351765485711210,0.3414796,-0.12864123,9.807432
351765505567339,0.32403195,-0.12197202,9.806428
351765525423466,0.33322105,-0.1660997,9.829177
351765545275139,0.3787204,-0.18805587,9.797762
351765565131140,0.34841207,-0.13547094,9.772439
351765584987269,0.2819514,-0.11566984,9.79819
351765604843270,0.2894978,-0.16920647,9.783543
351765624699399,0.30495307,-0.18165457,9.754374
351765644561800,0.32901704,-0.118305154,9.774895
351765664417929,0.3918292,-0.13540582,9.780863
351765684274186,0.345307,-0.14078864,9.768736
351765704130315,0.24501088,-0.13097633,9.744249
351765723985724,0.26809782,-0.18553561,9.770718
351765743841853,0.33527476,-0.21370976,9.795129
351765763697844,0.30159393,-0.13283037,9.837355
351765783553972,0.31091598,-0.1417647,9.837883
351765803410101,0.3086958,-0.16852842,9.828525
351765823266228,0.2726181,-0.1735366,9.76081
351765843120718,0.31804657,-0.14944042,9.7615385
351765862976847,0.3446551,-0.14564268,9.7609825
351765882832974,0.311322,-0.12454067,9.754572
351765902688974,0.30461016,-0.12069157,9.773773
351765922545103,0.33488673,-0.10901391,9.799393
351765942400544,0.35476258,-0.11506545,9.82
351765962256544,0.30553523,-0.1245223,9.830529
351765982112673,0.26668411,-0.13467436,9.823388
351766001968672,0.2904531,-0.1340295,9.799991
351766021827033,0.30622506,-0.09972954,9.77822
351766041683162,0.31581247,-0.07933058,9.770485
351766061539161,0.27911645,-0.102388896,9.733173
351766081395161,0.27185655,-0.16395643,9.808785
351766101251290,0.31425902,-0.17896798,9.866479
351766121107289,0.37247676,-0.11286833,9.900766
351766140963643,0.3215114,-0.04182818,9.89228
351766160819644,0.2452624,-0.09121776,9.885862
351766180675643,0.25560755,-0.17368372,9.787344
351766200531643,0.29363945,-0.16707867,9.730687
351766220387772,0.33194306,-0.10211577,9.7510805
351766240247839,0.39643365,-0.12586732,9.776493
351766260103968,0.3282391,-0.1342198,9.765235
351766279960097,0.27203465,-0.1050809,9.771229
351766299816221,0.30402172,-0.09181437,9.799963
351766319672349,0.29823714,-0.16816348,9.806781
351766339528478,0.28201878,-0.19530949,9.775766
351766359387059,0.27042747,-0.18387733,9.769228
351766379243315,0.27806652,-0.16605707,9.783062
351766399099572,0.2667974,-0.14994156,9.77168
351766418955827,0.29446498,-0.16071725,9.785253
351766438817703,0.322071,-0.1677876,9.785311
351766458674088,0.3200121,-0.15654805,9.811243
351766478530471,0.32617703,-0.162365,9.826657
351766498386855,0.32144973,-0.19137083,9.788954
351766518243368,0.30181235,-0.19966397,9.779745
351766538099491,0.24652426,-0.18040651,9.751362
351766557956004,0.26545438,-0.15289716,9.741034
351766577812517,0.28076026,-0.16952409,9.731464
351766597668902,0.2703491,-0.2072701,9.7540245
351766617525410,0.278205,-0.22022238,9.744466
351766637381795,0.29194477,-0.20668057,9.743633
351766657235338,0.2792467,-0.19052409,9.785166
351766677091722,0.25735822,-0.18311593,9.816504
351766696948107,0.2625878,-0.1508573,9.814336
351766716804490,0.2629254,-0.1453122,9.81255
351766736672384,0.2971833,-0.18048523,9.815729
351766756529025,0.33996418,-0.21414225,9.766794
351766776385536,0.2790407,-0.18449229,9.744119
351766796242176,0.22192404,-0.14230388,9.790065
351766816098817,0.3106321,-0.17543787,9.780864
351766835953857,0.32118097,-0.1623179,9.752044
351766855810369,0.2772259,-0.1356735,9.747369
351766875667010,0.26784134,-0.19709773,9.772247
351766895523521,0.22873163,-0.18640502,9.797778
351766915380162,0.25282612,-0.16750365,9.8360615
351766935236675,0.31361303,-0.15571365,9.833036
351766955090818,0.28444526,-0.15026681,9.831325
351766974947203,0.24831688,-0.15428865,9.844361
351766994803716,0.2987324,-0.17853865,9.812918
351767014660223,0.31627148,-0.16634184,9.810536
351767034511859,0.2663471,-0.15534605,9.840584
351767054368372,0.27185005,-0.16105019,9.811344
351767074224755,0.28687444,-0.16741157,9.774582
351767094078725,0.27553248,-0.15189095,9.76181
351767113935110,0.28876114,-0.17113449,9.753891
351767133791621,0.3268887,-0.15613845,9.753056
351767153640228,0.33839846,-0.14219746,9.751774
351767173496485,0.303305,-0.15897974,9.768402
351767193352740,0.28313872,-0.12244378,9.771164
351767213208997,0.2712209,-0.0998749,9.804988
351767233065254,0.32353923,-0.09451169,9.842229
351767252917885,0.34675202,-0.11445011,9.854385
351767272774014,0.32587978,-0.12733121,9.849521
351767292630271,0.29035464,-0.13482232,9.848446
351767312486528,0.3150715,-0.109334305,9.841166
351767332339529,0.33223024,-0.118809156,9.815036
351767352195658,0.34117833,-0.10930971,9.778611
351767372051787,0.34471974,-0.10720595,9.769636
351767391908044,0.3475518,-0.10382625,9.748536
351767411764173,0.34191576,-0.098052435,9.72913
351767431620302,0.33040938,-0.08890751,9.709477
351767451475735,0.32552907,-0.10770323,9.708259
351767471331736,0.2781894,-0.11490738,9.759473
351767491187865,0.19660617,-0.11392244,9.807403
351767511043994,0.26451018,-0.15434483,9.824722
351767530900123,0.29955497,-0.14153072,9.863287
351767550754210,0.27333334,-0.10914578,9.9065485
351767570610211,0.26913962,-0.12617882,9.913046
351767590466340,0.27872851,-0.12605596,9.872759
351767610322341,0.28614905,-0.090078026,9.862389
351767630180682,0.31369796,-0.07842693,9.831252
351767650036811,0.30235723,-0.09219703,9.773695
351767669892791,0.29308778,-0.0966098,9.758323
351767689748920,0.30628836,-0.10252556,9.734671
351767709605049,0.2974035,-0.1154123,9.675215
351767729461050,0.28092566,-0.105150945,9.696677
351767749305563,0.26656002,-0.13413243,9.736654
351767769161436,0.27722085,-0.13695921,9.722939
351767789017175,0.27164084,-0.0957231,9.763354
351767808873047,0.29842228,-0.09985858,9.781391
351767828728920,0.29545924,-0.11549024,9.81508
351767848589872,0.25737086,-0.09380063,9.835955
351767868445744,0.27320543,-0.086840965,9.86819
351767888301745,0.2779109,-0.096164115,9.87452
351767908157616,0.27466184,-0.10736155,9.8862915
351767928013488,0.30131367,-0.124226116,9.830979
351767947869489,0.3080606,-0.13232443,9.749772
351767967724088,0.22682323,-0.11555517,9.760641
351767987579961,0.2606063,-0.10080618,9.745286
351768007435706,0.3428516,-0.1137033,9.68523
351768027291579,0.32532516,-0.120942466,9.637854
351768047147749,0.2878302,-0.15580969,9.664194
351768067003622,0.29630074,-0.16469188,9.717628
351768086859493,0.27496862,-0.13362435,9.769766
351768106715365,0.2889039,-0.099995635,9.848103
351768126571110,0.29395974,-0.116584815,9.873056
351768146428804,0.2909598,-0.13833217,9.8724985
351768166284548,0.29459646,-0.11680169,9.891016
351768186140421,0.302876,-0.12945715,9.890161
351768205996292,0.3216843,-0.10355054,9.882227
351768225852164,0.3116217,-0.091751754,9.825581
351768245707909,0.32605818,-0.10718529,9.776315
351768265561766,0.33115208,-0.1357605,9.755555
351768285417511,0.31388804,-0.11507706,9.712348
351768305273384,0.2803654,-0.11887612,9.6949835
351768325129129,0.28337333,-0.119606994,9.707503
351768344998130,0.317601,-0.117064856,9.736997
351768364854259,0.3307365,-0.093348056,9.774166
351768384710388,0.2846816,-0.10409192,9.810259
351768404566517,0.2685529,-0.11753721,9.80602
351768424422646,0.28064358,-0.12720084,9.850196
351768444286881,0.2556362,-0.12786087,9.866244
351768464143138,0.3112172,-0.13440378,9.870377
351768483999523,0.3245858,-0.1376486,9.883926
351768503855780,0.2847557,-0.1112766,9.892286
351768523712165,0.2989884,-0.13056256,9.791075
351768543568422,0.26457813,-0.11765414,9.756573
351768563427025,0.25235802,-0.12401992,9.763718
351768583283410,0.3555787,-0.14255391,9.7382965
351768603139795,0.31914777,-0.098778784,9.732653
351768622996308,0.26817343,-0.096176185,9.750547
351768642851865,0.27044335,-0.15444848,9.786001
351768662708250,0.23798974,-0.18541358,9.769543
351768682564635,0.2033673,-0.12124783,9.784353
351768702421128,0.25788212,-0.11087207,9.789648
351768722277513,0.29640603,-0.112032026,9.799534
351768742133898,0.27591723,-0.109867364,9.799559
351768761985579,0.2953565,-0.12217727,9.819838
351768781841964,0.30432445,-0.122310825,9.840576
351768801698217,0.28259218,-0.1462588,9.870607
351768821554601,0.25507307,-0.115285404,9.895677
351768841410858,0.28969657,-0.09357352,9.852311
351768861271624,0.29058146,-0.11045323,9.812413
351768881128008,0.24020024,-0.119996704,9.811082
351768900984393,0.28511354,-0.11394685,9.759272
351768920840776,0.32153714,-0.108907424,9.72016
351768940692138,0.31439215,-0.110691674,9.701461
351768960548395,0.3373214,-0.12277574,9.687938
351768980404778,0.31420535,-0.10795642,9.706407
351769000258883,0.256308,-0.09747153,9.767659
351769020115140,0.28920072,-0.10696512,9.792626
351769039971397,0.2601106,-0.104394905,9.813548
351769059825248,0.22227263,-0.08499274,9.862736
351769079681505,0.25103262,-0.1452777,9.908756
351769099537762,0.250976,-0.14508967,9.864791
351769119394019,0.26530206,-0.11840519,9.817004
351769139250276,0.3158741,-0.122339636,9.832971
351769159107196,0.32482755,-0.11575365,9.770919
351769178963452,0.3179482,-0.082498625,9.742442
351769198819709,0.30944946,-0.093129955,9.732364
351769218676092,0.3052085,-0.13589598,9.710653
351769238532001,0.29616886,-0.14321488,9.718612
351769258388258,0.24348114,-0.11276488,9.759775
351769278244641,0.29252777,-0.13257894,9.750891
351769298101025,0.26790613,-0.15938129,9.749166
351769317957282,0.21058007,-0.110916264,9.794835
351769337813665,0.26074636,-0.14110516,9.817366
351769357664203,0.30037308,-0.13995758,9.825809
351769377520204,0.26697403,-0.11042386,9.83027
351769397376331,0.27606943,-0.11322937,9.868499
351769417232459,0.25828102,-0.113614,9.84922
351769437088588,0.2759015,-0.10702385,9.840487
351769456952225,0.29034117,-0.0969715,9.820957
351769476808610,0.29866198,-0.11601213,9.809539
351769496664867,0.25057974,-0.12833562,9.801078
351769516521124,0.26230943,-0.12668419,9.788285
351769536375023,0.29797444,-0.10594452,9.742512
351769556231152,0.29105493,-0.094943725,9.7407255
351769576087409,0.2836906,-0.10346927,9.736012
351769595943666,0.28203195,-0.119427,9.721225
351769615799923,0.251226,-0.10265504,9.751186
351769635656180,0.25596797,-0.10931652,9.775298
351769655507889,0.3209185,-0.107335865,9.799233
351769675364018,0.3353942,-0.09630675,9.817513
351769695220147,0.25283128,-0.08623108,9.868653
351769715076276,0.22689565,-0.10725563,9.871752
351769734932277,0.261021,-0.1262583,9.824818
351769754783321,0.251094,-0.11559285,9.846768
351769774639321,0.3154135,-0.09759157,9.831079
351769794495322,0.33734852,-0.08599347,9.774723
351769814351321,0.28564394,-0.07005877,9.754442
351769834207321,0.25282735,-0.10457673,9.771082
351769854063322,0.2789537,-0.12332042,9.774254
351769873869493,0.24579667,-0.08817682,9.78062
351769893724469,0.26560256,-0.080127925,9.820657
351769913579446,0.2987039,-0.11398874,9.827039
351769933434549,0.2802655,-0.077009045,9.804066
351769953303314,0.29143193,-0.013503769,9.802095
351769973158547,0.31824762,-0.048226506,9.796504
351769993013908,0.27920103,-0.044310115,9.812665
351770012869141,0.28577968,-0.027552009,9.808882
351770032724374,0.35367367,-0.020590628,9.812221
351770052587513,0.31837484,-0.041847493,9.809818
351770072442996,0.2756016,-0.04500475,9.804847
351770092298357,0.28809297,-0.052470706,9.782884
351770112153716,0.28247082,-0.049665477,9.766556
351770132009204,0.27219307,-0.04082083,9.775846
351770151864565,0.27515933,-0.014854744,9.79529
351770171730323,0.2659726,-0.006450426,9.775821
351770191585811,0.2923501,0.0012038527,9.792411
351770211441428,0.31836465,-0.0033402408,9.815805
351770231296915,0.29910964,-0.00926945,9.805905
351770251156642,0.25536776,-0.028616149,9.803856
351770271012259,0.26758453,-0.018511413,9.811499
351770290867874,0.2891591,0.04180193,9.806698
351770310723491,0.27124128,0.04694323,9.8016615
351770330579108,0.22742724,0.07271297,9.789086
351770350446665,0.26779443,0.027537722,9.724638
351770370302538,0.2804287,0.003005761,9.752594
351770390158283,0.2402469,0.0041855243,9.828417
351770410014156,0.2776936,0.05931738,9.814118
351770429869901,0.30396727,0.080452286,9.7855
351770449725774,0.29087415,0.034822803,9.778666
351770469593557,0.30572912,0.024783641,9.802128
351770489449558,0.2956634,0.017979126,9.817324
351770509305687,0.26474506,-0.0445069,9.811141
351770529161816,0.3261461,-0.031858284,9.819729
351770549018037,0.42256492,-0.0034284333,9.821208
351770568874166,0.3814984,0.009897624,9.82602
351770588730167,0.32526094,-0.042708743,9.849386
351770608586296,0.31730583,-0.069383755,9.821982
351770628442425,0.27972904,-0.05184007,9.793626
351770648298554,0.32767546,0.0051581273,9.780322
351770668147485,0.3525462,-0.014263717,9.773378
351770688003486,0.3033192,-0.04622421,9.730237
351770707859359,0.2928955,-0.067818634,9.696301
351770727715360,0.30407783,-0.03183336,9.718311
351770747571361,0.28188127,0.0011193932,9.752334
351770767434012,0.25097898,0.03311094,9.780991
351770787290140,0.27113053,0.016515857,9.810462
351770807146269,0.29266432,0.026163604,9.818382
351770827002396,0.25870994,0.010763275,9.823424
351770846867223,0.25208446,-0.0069508473,9.829147
351770866723608,0.24894379,-0.036492698,9.804012
351770886579863,0.2570001,0.0035385329,9.791451
351770906436247,0.26999712,0.06906834,9.778245
351770926292504,0.28440145,0.09017489,9.760944
351770946148887,0.26832068,0.058477003,9.787016
351770966006027,0.24103679,0.026880575,9.79727
351770985862412,0.26860717,0.034845598,9.753734
351771005718795,0.21582861,0.038283896,9.800605
351771025575179,0.23766151,0.054866146,9.816794
351771045431564,0.30747363,0.04824486,9.796943
351771065290922,0.26943046,0.052671663,9.793629
351771085147562,0.27347755,0.017075477,9.8200035
351771105004203,0.24593872,-0.022652976,9.806323
351771124860714,0.23686798,-0.019232724,9.790156
351771144710463,0.31536803,0.044443145,9.7986765
351771164567104,0.33971113,0.076900624,9.796243
351771184423743,0.28847322,0.04414261,9.786741
351771204280255,0.22718662,0.010842162,9.803913
351771224136896,0.26695374,-0.002012058,9.786893
351771243993535,0.27902654,-0.009771494,9.754922
351771263846707,0.2581646,-0.002417369,9.770734
351771283703348,0.2911115,0.028965205,9.810384
351771303559989,0.31212106,0.037229646,9.854815
351771323416630,0.25942314,0.028436448,9.87388
351771343273143,0.19559866,0.013456008,9.927633
351771363127274,0.23657389,-0.02003126,9.839219
351771382983915,0.32526094,0.021365846,9.777316
351771402840556,0.34749505,0.055491246,9.741089
351771422697197,0.3258451,0.056218643,9.668952
351771442537378,0.2966566,0.021061327,9.699623
351771462393251,0.24790516,0.004163964,9.756545
351771482249124,0.29309857,0.021747269,9.809237
351771502104997,0.31956992,0.032602344,9.861835
351771521960870,0.22842409,0.016336026,9.896341
351771541816743,0.20390117,-0.027826633,9.886716
351771561680010,0.23093764,-0.021458538,9.843441
351771581536139,0.29593778,0.021962568,9.777773
351771601392140,0.35228387,0.030900067,9.754114
351771621248141,0.301902,0.025812052,9.778884
351771641104142,0.30853173,-0.0026645663,9.764522
351771660961885,0.27441183,0.0156052755,9.760473
351771680817886,0.27175394,0.012643767,9.769511
351771700674015,0.29324707,-0.017172713,9.819377
351771720530016,0.24206199,-0.032273613,9.80572
351771740385995,0.18809639,-0.07254628,9.812127
351771760241996,0.21904199,-0.06146565,9.804687
351771780086457,0.28417102,-0.04353273,9.793738
351771799942329,0.28499353,-0.02631691,9.774602
351771819798202,0.27393258,-0.024156922,9.754441
351771839654073,0.27076107,-0.058774818,9.777389
351771859512664,0.24657872,-0.052341763,9.845352
351771879368537,0.26724258,-0.009140207,9.839895
351771899224408,0.3141094,-0.006879689,9.825121
351771919080280,0.27658218,-0.07383967,9.801459
351771938936153,0.2177589,-0.13123989,9.76885
351771958804783,0.24368607,-0.12743193,9.748012
351771978660911,0.26011842,-0.09809329,9.766499
351771998517040,0.23796019,-0.12699986,9.803426
351772018373295,0.22976966,-0.14515315,9.792735
351772038229423,0.26032734,-0.091098726,9.791978
351772058085552,0.28177607,-0.09003468,9.780341
351772077946050,0.2716999,-0.11416628,9.772832
351772097802434,0.29049653,-0.0969155,9.779806
351772117658691,0.2902195,-0.08100115,9.791741
351772137515074,0.26199663,-0.11335704,9.792512
351772157374305,0.26708025,-0.12687314,9.814646
351772177230690,0.29975602,-0.0929699,9.809041
351772197087073,0.31972483,-0.112505056,9.828594
351772216943457,0.18449686,-0.107403144,9.858608
351772236799842,0.21718383,-0.08303583,9.805311
351772256655154,0.30808914,-0.08552231,9.73401
351772276511410,0.31563032,-0.08460201,9.739582
351772296367667,0.33070466,-0.12246108,9.77998
351772316224050,0.29488924,-0.10392893,9.782589
351772336080306,0.22570936,-0.0524352,9.803285
351772355936563,0.20441236,-0.04037239,9.824243
351772375798198,0.2667677,-0.08650201,9.8285475
351772395654582,0.26704723,-0.09204802,9.79645
351772415510967,0.24413502,-0.055150162,9.808925
351772435367478,0.2789612,-0.027870683,9.790923
351772455227391,0.26945683,0.004455263,9.805453
351772475083904,0.24427421,0.01024676,9.803603
351772494940543,0.29080567,-0.005369119,9.798954
351772514797055,0.29192406,-0.022071555,9.801164
351772534653696,0.15918367,-0.054506212,9.840796
351772554510335,0.15965955,-0.0902878,9.837367
351772574357991,0.24101034,-0.092624985,9.814925
351772594214376,0.29008853,-0.055316154,9.833232
351772614070759,0.2909246,-0.015472251,9.825052
351772633927271,0.29583725,0.027926484,9.781341
351772653783656,0.24902053,0.060573503,9.778845
351772673643143,0.27546227,0.03607736,9.769117
351772693499656,0.32630396,-0.0040968703,9.76082
351772713356169,0.27391943,-0.017495483,9.793687
351772733212554,0.21868946,0.0071385656,9.786733
351772753062064,0.29088977,-0.016391689,9.760971
351772772918449,0.25769195,-0.050889093,9.764679
351772792774832,0.23537429,-0.043304615,9.776217
351772812631088,0.28870592,0.01390998,9.765307
351772832487473,0.24907772,0.01515794,9.770071
351772852343728,0.24085364,-0.040687315,9.768623
351772872199760,0.28872526,-0.04467648,9.82425
351772892056017,0.2452894,-0.013290483,9.844051
351772911912272,0.21272175,-5.8902235E-4,9.848194
351772931768656,0.24916041,0.019487895,9.856931
351772951624913,0.27005005,0.03603386,9.841559
351772971477804,0.2650927,0.031225543,9.829776
351772991333933,0.2303952,-0.0026463699,9.811836
351773011190190,0.21914206,0.0014333981,9.807034
351773031046316,0.24841863,-0.0030885998,9.783566
351773050901396,0.2710625,0.030827904,9.778586
351773070757653,0.28084338,0.066133276,9.778243
351773090613780,0.25618395,0.07775303,9.769357
351773110470036,0.24377023,0.060047958,9.772955
351773130326165,0.24749921,0.04652581,9.804881
351773150177601,0.23861068,0.027889375,9.828657
351773170034139,0.23201941,0.026785368,9.843163
351773189890396,0.24552378,0.015804393,9.842129
351773209746651,0.2911599,0.007867613,9.83269
351773229602907,0.3340221,0.006693506,9.8246155
351773249459164,0.30125946,0.04330115,9.786277
351773269309575,0.280216,0.01992125,9.802432
351773289165832,0.28364277,0.015145567,9.811701
351773309021961,0.29591563,-0.012733153,9.80332
351773328878090,0.32240206,-0.0100986855,9.735473
351773348728319,0.25978407,-0.03756222,9.722812
351773368584192,0.2469924,-0.045420457,9.756911
351773388440065,0.32233736,0.0028871552,9.761992
351773408295938,0.30146667,0.050630596,9.748512
351773428151811,0.2239893,-0.0015758746,9.766966
351773448007684,0.21294674,-0.07418353,9.785622
351773467868933,0.23263036,-0.089309126,9.792212
351773487724806,0.22102378,-0.07248426,9.828071
351773507580807,0.273634,-0.04901959,9.831849
351773527436808,0.25913876,-0.044462137,9.777669
351773547292681,0.17068851,-0.071734495,9.789511
351773567147286,0.23760396,-0.055635996,9.825052
351773587003159,0.29155257,-0.048548453,9.835988
351773606859160,0.276706,-0.014334434,9.825686
351773626715161,0.23745364,-0.011710597,9.795754
351773646571162,0.25733253,-0.01829788,9.776967
351773666427035,0.18821117,-0.021234758,9.779965
351773686285706,0.12833007,-0.040001974,9.773869
351773706141683,0.23021789,-0.05855472,9.757074
351773725997684,0.3010236,-0.05311092,9.770151
351773745853685,0.2752934,-0.07019798,9.808673
351773765697738,0.21807002,-0.07733444,9.81136
351773785553611,0.1799106,-0.04722958,9.802354
351773805409352,0.19715284,-0.020776961,9.810713
351773825265096,0.25501966,-0.033854906,9.821967
351773845120841,0.25426096,-0.053060625,9.806708
351773864981265,0.23822196,-0.040744692,9.799862
351773884837137,0.2200938,-0.023741053,9.776468
351773904692882,0.259867,-0.040150356,9.7562475
351773924548753,0.26471362,-0.033542562,9.70531
351773944404625,0.23470281,-0.04054972,9.729753
351773964260498,0.25415668,-0.01704015,9.776848
351773984109445,0.29054368,0.01785609,9.785426
351774003965189,0.20145062,0.0020676102,9.808412
351774023820934,0.19362272,-0.08274374,9.811181
351774043676677,0.26129702,-0.09823413,9.820557
351774063536646,0.25039303,-0.025567109,9.814324
351774083392519,0.25652882,0.023066975,9.800756
351774103248390,0.2502884,-0.0054888693,9.791439
351774123104262,0.25537854,-0.04620344,9.778176
351774142960007,0.2648384,-0.059814624,9.815978
351774162816000,0.24421735,-0.085089155,9.853665
351774182671744,0.27557117,-0.06817982,9.888381
351774202527489,0.25597566,-0.012539124,9.878123
351774222383232,0.2610043,-0.01874801,9.832845
351774242238976,0.19291353,-0.050544504,9.803191
351774262094721,0.21671918,-0.02638048,9.755747
351774281950024,0.303162,0.013575876,9.732676
351774301805896,0.3024205,0.024933474,9.767735
351774321661641,0.21921402,-0.03040533,9.780441
351774341517384,0.21213812,-0.03999995,9.766122
351774361379814,0.19673926,-0.012551268,9.754159
351774381235687,0.23846519,-0.0022162872,9.781347
351774401091558,0.24138083,-0.0024384966,9.819858
351774420947430,0.1946776,-0.02659607,9.826124
351774440803303,0.15862766,-0.057307523,9.813226
351774460668939,0.21484643,-0.027069932,9.785089
351774480524939,0.26128292,0.006032092,9.8018675
351774500381068,0.26026654,0.028720032,9.795961
351774520237195,0.23929372,0.009449651,9.803053
351774540093323,0.22427593,-7.173135E-5,9.817419
351774559949452,0.24548736,0.014069791,9.809229
351774579803776,0.24210419,0.023095509,9.827666
351774599659776,0.21810064,-0.006452179,9.77977
351774619515905,0.19447051,-0.026626749,9.774579
351774639372032,0.21841833,-0.020432508,9.769491
351774659233736,0.2367101,0.0047111316,9.729574
351774679089865,0.21587026,0.013335404,9.734551
351774698946120,0.1985959,-0.0030916207,9.7812195
351774718802248,0.22223252,-0.005918459,9.8038845
351774738658505,0.23307984,0.02306688,9.797539
351774758514760,0.26993024,0.040770978,9.80034
351774778372139,0.29646757,0.03353852,9.813118
351774798228396,0.25344878,0.005749376,9.815189
351774818084651,0.23394558,0.022786284,9.814736
351774837940907,0.25662753,0.042875886,9.800725
351774857797164,0.2768427,0.036525704,9.778941
351774877656516,0.23226114,-0.005278062,9.8151865
351774897512772,0.21744494,-0.055693746,9.813497
351774917369029,0.26977092,-0.017305218,9.770203
351774937225412,0.31228253,0.04404631,9.759457
351774957078054,0.28032225,0.043701038,9.803365
351774976934311,0.26189828,-0.007280278,9.785811
351774996790566,0.23452953,-0.022659399,9.756579
351775016646822,0.2254779,0.009784689,9.768796
351775036503079,0.28541085,0.014045105,9.807685
351775056359334,0.26425132,0.011066316,9.817952
351775076214403,0.25387815,0.010741722,9.812938
351775096070660,0.22537516,0.008238083,9.820231
351775115926915,0.21199968,-0.010549846,9.856941
351775135783299,0.24553593,0.03161436,9.852247
351775155639556,0.24840875,0.016721966,9.825481
351775175487974,0.24777745,-0.033543535,9.770238
351775195344230,0.24103309,-0.035479147,9.761711
351775215200359,0.2516742,-0.024204448,9.774179
351775235056614,0.23323543,0.019282762,9.779195
351775254907653,0.21039054,0.0067909057,9.760716
351775274763782,0.24360588,-0.023279143,9.786846
351775294620037,0.25741437,0.0090399245,9.788279
351775314476165,0.29133034,0.06079031,9.762995
351775334332422,0.25794655,0.05178508,9.786039
351775354188549,0.21485548,0.05294995,9.814685
351775374039463,0.2181704,0.05151917,9.819499
351775393895464,0.21379195,0.062160898,9.8503475
351775413751463,0.18825929,0.025343258,9.861251
351775433607463,0.20771141,-0.03751074,9.828634
351775453463464,0.23583037,-0.022601308,9.81341
351775473324022,0.28412828,0.057248127,9.795835
351775493180150,0.26000795,0.067430034,9.775597
351775513036279,0.17900208,0.01722237,9.759971
351775532892406,0.20545124,0.04671567,9.758822
351775552742079,0.24232385,0.0816534,9.781414
351775572597952,0.19176665,0.0654497,9.819781
351775592453823,0.1987163,0.032756377,9.857305
351775612309695,0.201963,0.040885333,9.844143
351775632165568,0.20523453,0.059426647,9.845219
351775652021439,0.23197274,0.054488625,9.815381
351775671875434,0.2332473,0.041791584,9.777864
351775691731307,0.18888724,0.019430485,9.806077
351775711587050,0.2092831,0.051437948,9.782615
351775731442922,0.2846591,0.09218315,9.719119
351775751298795,0.26153022,0.09563567,9.7042265
351775771151234,0.21908583,0.065467894,9.745082
351775791006978,0.21687832,0.014143354,9.769505
351775810862723,0.19857132,-0.0061970823,9.789463
351775830718466,0.23941684,0.076221,9.835728
351775850574210,0.22858998,0.0920404,9.86796
351775870429955,0.1363425,0.06622616,9.8934555
351775890282748,0.11205857,-0.018906062,9.914614
351775910138364,0.17080855,-0.04573052,9.895864
351775929993981,0.23801911,0.055453587,9.849138
351775949849596,0.2697905,0.0934999,9.8095
351775969712886,0.2223299,0.04361687,9.785671
351775989568631,0.20023733,0.009795733,9.766288
351776009424374,0.23533882,0.07194303,9.730437
351776029280246,0.23517348,0.0777344,9.70714
351776049135991,0.21869513,0.015074533,9.7097435
351776068991740,0.20208918,-0.012568298,9.743692
351776088847612,0.21438016,0.015095742,9.784552
351776108703357,0.23382144,-0.015660273,9.809692
351776128559228,0.20667368,-0.034171056,9.832461
351776148415100,0.22276823,0.0034147555,9.855578
351776168270845,0.2365577,0.012333081,9.843608
351776188124930,0.19260192,-0.03534474,9.856894
351776207980546,0.14480999,-0.031576082,9.860317
351776227836291,0.21947706,-0.034323223,9.794346
351776247692034,0.23180859,-0.045968555,9.741182
351776267550217,0.19767217,-0.038998183,9.758282
351776287405962,0.25651634,-0.052925427,9.76002
351776307261833,0.2392005,-0.023719558,9.743798
351776327117705,0.1698042,-0.011280141,9.718473
351776346973450,0.1909057,-0.051331546,9.731963
351776366831252,0.24343559,-0.07847097,9.765852
351776386687124,0.23521575,-0.019299984,9.794743
351776406542997,0.17864995,-0.012934887,9.840066
351776426398996,0.12095504,-0.11211808,9.884854
351776446254868,0.17853324,-0.14468883,9.888999
351776466110741,0.23357056,-0.10885992,9.905786
351776485979083,0.2506776,-0.07814995,9.86346
351776505835339,0.19162835,-0.09713425,9.819164
351776525691468,0.15786241,-0.1314344,9.805379
351776545547723,0.23027602,-0.14181659,9.7747555
351776565400657,0.2562332,-0.12459774,9.74167
351776585256786,0.2276419,-0.067667715,9.757278
351776605112913,0.21281779,-0.09930241,9.705157
351776624969041,0.20111075,-0.113564566,9.702162
351776644825170,0.1582502,-0.08701298,9.73374
351776664686539,0.20811448,-0.103473045,9.753265
351776684542667,0.24327445,-0.091519825,9.816365
351776704398924,0.14609851,-0.051068116,9.861392
351776724255179,0.21107152,-0.088632174,9.878163
351776744111435,0.2600975,-0.09707428,9.8576565
351776763967564,0.17624217,-0.056617904,9.836129
351776783821911,0.20957398,-0.07368997,9.839481
351776803678039,0.20548433,-0.09082767,9.766214
351776823534296,0.24527863,-0.07617924,9.688367
351776843390551,0.2593607,-0.07548416,9.739201
351776863240169,0.1931413,-0.09579551,9.873264
351776883096170,0.15889266,-0.062841035,9.8722315
351776902952169,0.27560973,-0.04007632,9.796726
351776922808169,0.20149384,-0.068212196,9.76827
351776942664170,0.10645747,-0.18185371,9.797406
351776962520297,0.1132297,-0.17293464,9.777849
351776982374103,0.14510456,0.018767158,9.8070965
351777002230104,0.23714036,0.050288554,9.841058
351777022086103,0.22241934,-0.009797161,9.807315
351777041942103,0.11842702,-0.011882169,9.792317
351777061798104,0.21138632,0.0041173445,9.780866
351777081646295,0.27488393,0.0039617107,9.78919
351777101502167,0.21070123,0.0011238599,9.806071
351777121358040,0.18265542,-0.060987383,9.804693
351777141213911,0.17510422,-0.08173047,9.801681
351777161070057,0.16607177,-0.09738044,9.786388
351777180926058,0.25259483,-0.14055073,9.740821
351777200782833,0.27324265,-0.17786293,9.735139
351777220638705,0.20506804,-0.21002093,9.765676
351777240494578,0.15551981,-0.19985414,9.800875
351777260350449,0.1837996,-0.15564951,9.802925
351777280199397,0.1685052,-0.1416612,9.832071
351777300055142,0.15964834,-0.16224337,9.816279
351777319910885,0.1672024,-0.16756743,9.760604
351777339766629,0.17962746,-0.18658404,9.7448015
351777359622374,0.20830593,-0.19270357,9.777909
351777379475577,0.19487396,-0.17688727,9.773938
351777399331193,0.17671582,-0.153451,9.759353
351777419186810,0.16161777,-0.110066146,9.8146
351777439042425,0.19804744,-0.13264565,9.823789
351777458901131,0.20904928,-0.11388144,9.810768
351777478756876,0.19239098,-0.07678355,9.813887
351777498612491,0.16870491,-0.1342219,9.795658
351777518468235,0.12961012,-0.13972642,9.789063
351777538323852,0.13248391,-0.087490775,9.772319
351777558179595,0.19580168,-0.070402764,9.786618
351777578037253,0.19059612,-0.07504979,9.787743
351777597892998,0.110733666,-0.070868015,9.787225
351777617748741,0.1139793,-0.10843204,9.786969
351777637604485,0.22680709,-0.12848215,9.786641
351777657460230,0.26001865,-0.08852908,9.817631
351777677318813,0.21071605,-0.023206538,9.8280525
351777697174557,0.1635568,-0.026131073,9.810849
351777717030302,0.129033,-0.086135164,9.821961
351777736886045,0.15517965,-0.11996976,9.823738
351777756736133,0.20032981,-0.13434209,9.821397
351777776591750,0.19401875,-0.10978037,9.880494
351777796447365,0.14488903,-0.09093798,9.856109
351777816302981,0.16286261,-0.12955338,9.817183
351777836158598,0.18041922,-0.11492302,9.787178
351777856014213,0.15967238,-0.09657602,9.753824
351777875869006,0.16875313,-0.15002358,9.739171
351777895724623,0.17695385,-0.17393187,9.719332
351777915580110,0.17290714,-0.15259159,9.744588
351777935435726,0.1755959,-0.12225018,9.815318
351777955291343,0.16652091,-0.13260406,9.81298
351777975156064,0.13860485,-0.12171123,9.818906
351777995011808,0.111148424,-0.11033261,9.86666
351778014867553,0.16510661,-0.15533105,9.875103
351778034723296,0.14197834,-0.13965683,9.841728
351778054578912,0.13080539,-0.11593437,9.792468
351778074434657,0.15405919,-0.16024359,9.773845
351778094290278,0.15588951,-0.1583597,9.759333
351778114146022,0.13819548,-0.13243172,9.736084
351778134001895,0.17349117,-0.1681428,9.732303
351778153857638,0.1782694,-0.15658736,9.743088
351778173713693,0.1389437,-0.12021562,9.74671
351778193569438,0.12010799,-0.13487527,9.754538
351778213425183,0.114124686,-0.12517235,9.788353
351778233281056,0.13098747,-0.102707505,9.849011
351778253136801,0.16260304,-0.11292848,9.8707695
351778272997434,0.12616172,-0.11133249,9.91577
351778292853301,0.14161673,-0.1299754,9.904855
351778312709302,0.17398943,-0.13333939,9.883389
351778332565301,0.17115906,-0.0948292,9.842301
351778352421173,0.14877422,-0.09197695,9.816569
351778372277174,0.14696845,-0.13024539,9.764694
351778392137464,0.19272256,-0.109284036,9.70047
351778411993464,0.24348842,-0.119477086,9.666959
351778431849593,0.18473078,-0.1180515,9.681282
351778451705592,0.1349857,-0.09382684,9.749816
351778471571070,0.14805275,-0.13204262,9.783013
351778491427327,0.15953644,-0.122675695,9.814942
351778511283582,0.16092886,-0.1356842,9.856084
351778531139838,0.1336117,-0.14595646,9.884878
351778550996095,0.11497022,-0.10552965,9.879797
351778570850179,0.1146204,-0.08999913,9.890792
351778590706436,0.20913817,-0.12955609,9.876666
351778610562693,0.26707527,-0.14116047,9.824559
351778630418950,0.2111549,-0.12414473,9.775105
351778650275207,0.16324115,-0.13648607,9.741642
351778670131464,0.17303343,-0.16940802,9.743019
351778689986623,0.15347207,-0.14422138,9.734484
351778709842880,0.18279438,-0.10548375,9.723124
351778729699009,0.19328094,-0.11810042,9.738474
351778749555258,0.1465221,-0.13802034,9.721101
351778769409489,0.13437386,-0.13819167,9.736108
351778789265746,0.16966443,-0.14272095,9.787937
351778809121873,0.15981664,-0.12445703,9.823694
351778828978001,0.15086287,-0.09622329,9.846345
351778848834258,0.15236217,-0.09319474,9.885844
351778868690385,0.10269681,-0.113689244,9.892899
351778888534659,0.099428736,-0.12155406,9.850173
351778908390532,0.17567928,-0.13250533,9.79119
351778928246403,0.23150744,-0.09488305,9.776363
351778948102403,0.21844673,-0.07594048,9.768752
351778967958276,0.15214866,-0.0656581,9.7742605
351778987815873,0.1418116,-0.05987779,9.80983
351779007671746,0.18403335,-0.09780155,9.787946
351779027527747,0.200303,-0.11081817,9.776887
351779047383620,0.1822822,-0.07085668,9.783218
351779067231502,0.13862795,-0.054247376,9.78332
351779087087375,0.10864296,-0.06066224,9.773136
351779106943118,0.12853444,-0.065239206,9.7996855
351779126798990,0.18918973,-0.096520446,9.805572
351779146654735,0.20359771,-0.09713991,9.790664
351779166510606,0.09106492,-0.060572553,9.834959
351779186360125,0.12876844,-0.056917153,9.867514
351779206215870,0.21300909,-0.06986333,9.842208
351779226071613,0.19632152,-0.08688253,9.802981
351779245927357,0.23158477,-0.12199135,9.798396
351779265783102,0.19039427,-0.0958649,9.819712
351779285637236,0.092917025,-0.073847644,9.775985
351779305492980,0.11708198,-0.10203572,9.715221
351779325348725,0.2364297,-0.10603869,9.714991
351779345204468,0.22029705,-0.080710575,9.781281
351779365054543,0.15318805,-0.06588085,9.779545
351779384910160,0.19891171,-0.082687125,9.778262
351779404765777,0.19570182,-0.05070322,9.772462
351779424621266,0.2176177,-0.07205318,9.786991
351779444476883,0.21221736,-0.08046135,9.785151
351779464332372,0.13182761,-0.041256443,9.80452
351779484191067,0.21253254,-0.06684009,9.796795
351779504046556,0.23410653,-0.032860365,9.709169
351779523902173,0.19027513,0.009839379,9.680111
351779543757790,0.12737677,-0.05728095,9.806637
351779563613279,0.038381208,-0.11699969,9.947871
351779583475254,0.15279426,-0.09470755,9.977812
351779603330999,0.28968114,0.025184926,9.972776
351779623186744,0.20521478,-0.003304078,9.901982
351779643042617,0.06528687,-0.09998814,9.7538395
351779662898362,0.022961918,-0.048860524,9.672516
351779682754107,0.17937781,-0.015889717,9.736119
351779702607358,0.29648203,-0.057558604,9.769871
351779722462975,0.2303469,-0.058046054,9.797849
351779742318720,0.13705833,-0.018657215,9.78878
351779762174337,0.15577288,-0.07068128,9.737799
351779782027723,0.15409894,-0.09566363,9.748931
351779801883212,0.16398004,-0.058785696,9.79424
351779821738827,0.18976958,-0.037844144,9.799856
351779841594443,0.20230077,-0.039159458,9.805879
351779861449932,0.19302109,-0.04478103,9.857552
351779881306297,0.18103626,-0.029026492,9.859256
351779901161913,0.17080835,-0.058273993,9.827959
351779921017530,0.13057311,-0.07163153,9.80429
351779940873017,0.17353708,-0.05297996,9.786256
351779960728633,0.21953689,-0.016603058,9.788785
351779980584122,0.20675687,-0.018104188,9.760332
351780000442236,0.15045904,-0.040579118,9.765034
351780020297724,0.14606544,-0.03986627,9.75421
351780040153341,0.18436936,-0.024674255,9.738692
351780060008958,0.22930546,0.0037584554,9.745484
351780079874791,0.20451185,0.015422665,9.803268
351780099730664,0.16888382,-6.436875E-4,9.835995
351780119586537,0.16793706,-0.0034473697,9.879335
351780139442404,0.16701913,-0.022079978,9.891598
351780159298277,0.15009263,-0.010327161,9.886824
351780179159739,0.15165646,-0.020905975,9.887309
351780199015739,0.14814399,-0.016032752,9.8406515
351780218871740,0.1707722,0.022150705,9.785745
351780238727739,0.23584367,0.05761222,9.722619
351780258583739,0.23694971,0.059874445,9.683723
351780278439868,0.18771553,0.04314119,9.671606
351780298294293,0.16870415,0.044541452,9.711889
351780318150293,0.21393806,0.04331374,9.773438
351780338006422,0.254275,0.013663047,9.8017845
351780357862421,0.21390684,0.0045929123,9.826128
351780377725237,0.09194501,0.010091134,9.901226
351780397581494,0.10293367,-0.0037943807,9.904886
351780417437749,0.13049364,-7.453012E-4,9.849188
351780437293878,0.14942424,0.017547958,9.820034
351780457150135,0.24226773,0.023441935,9.853324
351780477004910,0.22614121,-0.0067200987,9.815073
351780496861039,0.17168373,-0.0014938586,9.790274
351780516717296,0.16103896,-0.0059758886,9.771302
351780536573425,0.18957552,-0.0027489746,9.748178
351780556429554,0.1672654,0.0105880825,9.759964
351780576285683,0.14042488,0.007429853,9.788168
351780596147176,0.1612615,-0.05107,9.805717
351780616003433,0.18349665,-0.043002952,9.809477
351780635859818,0.17502114,-0.0025427616,9.788043
351780655716075,0.1848785,-0.0036856818,9.808482
351780675566254,0.15726699,-0.030541405,9.815806
351780695422383,0.13614158,-0.035946134,9.815029
351780715278512,0.19754979,-0.01113382,9.8258095
351780735134641,0.20644,-0.0033886344,9.832899
351780754990898,0.18976568,-0.011698057,9.827287
351780774847010,0.16807872,0.0037043816,9.800441
351780794697713,0.20146373,-0.014201702,9.762283
351780814553714,0.17646456,-0.010257384,9.779609
351780834409841,0.16764116,0.0032706398,9.780778
351780854265969,0.2324288,-0.01759871,9.7797985
351780874121970,0.20281564,-0.043594,9.796787
351780893969357,0.14318745,-0.032912947,9.803944
351780913825229,0.16556095,-0.0036880306,9.764536
351780933681102,0.19205317,0.0054103206,9.7714
351780953536973,0.18420145,-0.04660535,9.79002
351780973388146,0.1968311,-0.056468394,9.770825
351780993243891,0.19500683,-0.011447718,9.830464
351781013099636,0.19770877,0.016254658,9.854166
351781032955381,0.20520501,-0.004686897,9.835195
351781052811126,0.16852428,-0.0734378,9.845191
351781072666871,0.11601059,-0.084878184,9.817114
351781092511244,0.18970586,-0.048557077,9.819746
351781112366733,0.19205703,-0.031739984,9.783367
351781132222348,0.163411,-0.060128454,9.79231
351781152077836,0.2019319,-0.02107165,9.760568
351781171933453,0.20383368,4.6464207E-4,9.749204
351781191790901,0.18779515,-0.011152434,9.779135
351781211646517,0.14827056,-0.05426621,9.797001
351781231502134,0.17218712,-0.060724646,9.796771
351781251357749,0.18437828,-0.041377146,9.808178
351781271211229,0.18094388,-0.008569746,9.846342
351781291066846,0.15794738,-0.046622526,9.872179
351781310922333,0.13738774,-0.03805066,9.849496
351781330777950,0.17717685,-0.022226319,9.842174
351781350633567,0.2214443,-0.010400913,9.81294
351781370489056,0.18296374,-0.010120556,9.788533
351781390340225,0.12887123,-0.027801605,9.779136
351781410195586,0.17170292,-0.037168548,9.758971
351781430051075,0.21457504,-0.024910979,9.722305
351781449906436,0.1989466,0.0012775891,9.719044
351781469761925,0.16628881,-0.0244308,9.742976
351781489624204,0.14350583,-0.038429517,9.7502985
351781509479693,0.13773014,-0.034898907,9.750045
351781529335310,0.1683765,-0.025045704,9.777282
351781549190799,0.19231986,-0.015598951,9.81579
351781569046288,0.17153709,-0.029378857,9.825835
351781588901777,0.12498892,-0.00738089,9.835083
351781608750196,0.14456761,-0.05778415,9.81844
351781628605557,0.13360025,-0.068736106,9.825267
351781648460918,0.172141,-0.04443139,9.828707
351781668316279,0.22869411,-0.0025215575,9.802774
351781688177138,0.21358068,-0.006255513,9.778379
351781708032627,0.12751345,-0.052855175,9.777933
351781727888116,0.11904177,-0.09647129,9.770812
351781747743583,0.14273535,-0.06913744,9.775987
351781767598944,0.15453753,-0.03160327,9.790178
351781787457125,0.18022862,-0.031668294,9.797619
351781807312741,0.17784551,-0.014722224,9.792643
351781827168230,0.15642165,-0.014571647,9.799819
351781847023717,0.16348939,-0.031423263,9.810009
351781866879333,0.1755354,-0.05815146,9.819601
351781886734822,0.17561366,-0.035110444,9.839986
351781906590815,0.20671436,0.0052220076,9.843834
351781926446303,0.19826654,-0.005764608,9.843364
351781946301792,0.15251333,-0.038254637,9.84295
351781966157279,0.101464525,-0.054506935,9.839086
351781986020406,0.12663035,-0.04857899,9.813686
351782005876151,0.16679253,-0.004565653,9.810228
351782025731768,0.14947903,-0.0048424243,9.854438
351782045587513,0.15353881,-0.03704411,9.859978
351782065443258,0.14243065,-0.016830096,9.87379
351782085297365,0.12766814,0.027651817,9.910195
351782105153109,0.16636913,-0.003252572,9.9199505
351782125008854,0.17026266,-0.053735916,9.930128
351782144864469,0.14763449,-0.022832576,9.968813
351782164720213,0.16063793,-0.02126838,10.004973
351782184575958,0.18918711,-0.017188612,9.97735
351782204438199,0.15427521,0.004575855,9.893595
351782224294071,0.15126784,0.018952908,9.895657
351782244149944,0.13898055,-0.04673385,9.987247
351782264005815,0.097800925,-0.10894774,10.112644
351782283863731,0.16538079,-0.0428566,10.12573
351782303719604,0.20442316,0.024668127,10.122931
351782323575603,0.17126498,0.00719424,10.10468
351782343431603,0.14400694,-0.051004183,10.059793
351782363287604,0.13292973,-0.037058823,9.972425
351782383149949,0.16602604,-0.040420394,9.985671
351782403005950,0.14503022,-0.07337369,10.052166
351782422862079,0.14514045,-0.101549335,10.093273
351782442718208,0.16537833,-0.04340231,10.112003
351782462574337,0.14629665,-0.043701556,10.1405945
351782482430466,0.11614619,-0.0773239,10.142188
351782502289393,0.10611131,-0.07443638,10.114055
351782522145522,0.15844941,-0.064261295,10.152702
351782542001651,0.17738597,-0.07073252,10.216032
351782561857780,0.1674549,-0.04859095,10.236118
351782581717517,0.20150042,-0.04577911,10.205303
351782601573774,0.20067643,-0.069139324,10.222365
351782621430031,0.12598187,-0.085723035,10.201431
351782641286288,0.11299953,-0.07515981,10.193078
351782661142545,0.14607728,-0.060004402,10.231563
351782680998930,0.17399171,-0.05211888,10.270939
351782700850823,0.17402928,-0.08141884,10.250998
351782720706952,0.13550867,-0.07145813,10.250671
351782740563081,0.1062115,-0.07199853,10.282474
351782760419065,0.15712686,-0.10560478,10.277582
351782780275194,0.18472089,-0.0823939,10.259929
351782800128401,0.16197914,-0.07219109,10.338423
351782819984529,0.111753404,-0.09402552,10.396675
351782839840658,0.1273615,-0.117228456,10.384779
351782859696785,0.10814853,-0.062363725,10.400042
351782879548202,0.081018396,-0.07079816,10.434222
351782899404203,0.09725114,-0.10453597,10.431164
351782919260202,0.113210715,-0.08450548,10.424196
351782939116202,0.095610045,-0.021322832,10.401308
351782958972203,0.08840783,-0.06625894,10.371497
351782978828202,0.066382475,-0.103322506,10.357614
351782998680199,0.10956458,-0.09535918,10.340655
351783018536072,0.12491993,-0.04614544,10.345238
351783038392073,0.05101494,-0.06058007,10.34359
351783058247946,0.0768736,-0.087967746,10.335768
351783078103819,0.12957658,-0.09768571,10.351161
351783097961362,0.14973961,-0.09763394,10.361906
351783117817486,0.14137858,-0.10607941,10.379239
351783137673487,0.15553306,-0.10173823,10.399103
351783157529486,0.12506251,-0.08683589,10.39574
351783177382823,0.11232831,-0.07130812,10.405493
351783197238696,0.1720559,-0.112941526,10.421721
351783217089434,0.17593834,-0.08280902,10.42798
351783236945306,0.18485479,-0.041920923,10.411872
351783256801179,0.16958609,-0.05736585,10.4078865
351783276657050,0.14347401,-0.047466137,10.432421
351783296504851,0.1431496,-0.07441228,10.412327
351783316360596,0.21065435,-0.06339351,10.368202
351783336216341,0.20001492,-0.02592314,10.348672
351783356072082,0.1744499,-0.033307955,10.358417
351783375927827,0.12977055,-0.04419031,10.367165
351783395779035,0.12887384,-0.043038446,10.370174
351783415634779,0.21928485,-0.0575668,10.378381
351783435490396,0.22899295,-0.049429756,10.375954
351783455346011,0.1358091,-0.01870581,10.399089
351783475202731,0.089113876,-0.027784778,10.439872
351783495058348,0.15639459,-0.060456786,10.41501
351783514913963,0.20230548,-0.037310824,10.398946
351783534769579,0.17474595,-0.034442857,10.432066
351783554625196,0.15116775,-0.048899293,10.433994
351783574480811,0.08797814,-0.021578414,10.437265
351783594332748,0.11201083,-0.015412744,10.448921
351783614188365,0.15190195,-0.052939147,10.415555
351783634043854,0.18048748,-0.052480433,10.348989
351783653899471,0.120537154,0.014551971,10.366274
351783673754960,0.1308851,0.0066482136,10.415558
351783693606682,0.17178208,0.010868087,10.431856
351783713462042,0.15469053,0.03558809,10.406081
351783733317403,0.11537875,0.012600994,10.358212
351783753172890,0.08528478,-0.10554576,10.377611
351783773028250,0.077233806,-0.11767075,10.39682
351783792883611,0.18569492,-0.030127667,10.409741
351783812733355,0.20362778,0.004290997,10.466379
351783832588715,0.14283441,-0.02673699,10.465434
351783852443948,0.12759815,-0.023680246,10.449033
351783872299179,0.17677061,0.0015280009,10.411027
351783892161361,0.21361078,-0.03897904,10.408215
351783912016722,0.16207184,-0.045185473,10.426798
351783931872081,0.17815107,-0.010069435,10.428583
351783951727441,0.20649166,-0.027389253,10.407959
351783971582802,0.16047154,-0.053553734,10.3904505
351783991443769,0.11158546,-0.017263524,10.385682
351784011299257,0.1471742,-2.964914E-4,10.390433
351784031154746,0.21463943,-0.03474866,10.373399
351784051010233,0.17790593,-0.014557991,10.389633
351784070865722,0.15198763,-0.03377365,10.375977
351784090721083,0.15706968,-0.05491725,10.4007
351784110578584,0.18031177,-0.059593454,10.400972
351784130434197,0.17030327,-0.07124558,10.444338
351784150289686,0.13504851,-0.07277706,10.478118
351784170145173,0.13869499,-0.088878654,10.417756
351784190004990,0.1459488,-0.10011902,10.448936
351784209860607,0.19129543,-0.08247058,10.423678
351784229716222,0.21185762,-0.040812034,10.368214
351784249571966,0.14581849,-0.037880536,10.385398
351784269427583,0.13653642,-0.033170424,10.389623
351784289291455,0.19648473,-0.038603984,10.381182
351784309147328,0.20564696,-0.0504132,10.375798
351784329003201,0.16950092,-0.07276752,10.416591
351784348859074,0.17311762,-0.048419096,10.503585
351784368714947,0.18822812,-0.0016689689,10.341516
351784388570820,0.17578533,0.03557107,10.311103
351784408430873,0.16855451,0.09589412,10.360392
351784428286746,0.20685813,0.17304339,10.35224
351784448142747,0.18374695,0.10428489,10.346532
351784467998620,0.1548181,0.023107706,10.39439
351784487856535,0.15707576,0.0082375845,10.375446
351784507712536,0.1437403,0.007535762,10.322327
351784527568537,0.15775312,0.0044494118,10.31885
351784547424538,0.2079391,0.010930618,10.323982
351784567280539,0.21750812,-0.030610824,10.245999
351784587136540,0.19791774,-0.035161674,10.235428
351784606988153,0.17846061,-0.05426629,10.291102
351784626844154,0.20070635,-0.036236204,10.323505
351784646700027,0.026691504,-0.032808904,10.218019
351784666556028,0.24118195,-0.16036336,10.210779
351784686411901,0.12140839,-0.027186424,10.258202
351784706275564,0.17951111,0.017030058,10.260093
351784726131693,0.16485183,-0.030003592,10.214722
351784745987822,0.059690073,-0.084434986,10.180721
351784765843800,0.05410547,0.010524961,10.164784
351784785699136,0.1368127,-0.112098664,10.12529
351784805555265,0.19609715,-0.14831649,10.204167
351784825411520,0.069489725,-0.060232237,10.240456
351784845267648,0.1380691,-0.010875751,10.168873
351784865123777,0.12707637,-0.058758568,10.150913
351784884979904,0.10365301,-0.13955148,10.131382
351784904824652,0.1622988,-0.1362992,10.13489
351784924680653,0.04192922,-0.20434552,10.1722145
351784944536524,-0.5866024,0.4421062,10.638832
351784964392396,1.0814681,0.3452482,10.076382
351784984248269,0.6849106,-0.80303484,9.9827
351785004099032,0.028571308,-0.41149276,9.676935
351785023954904,0.104027025,-0.28800532,9.977779
351785043810649,0.01601611,0.42221463,10.293365
351785063666520,0.40806046,0.77413833,10.607405
351785083519773,1.0187988,0.9654114,10.339733
351785103375646,0.12006984,-0.7004385,9.062786
351785123231389,-0.79335266,-0.5904851,10.293826
351785143087133,0.28789896,0.067780145,9.757262
351785162942878,0.40548655,-0.32599005,9.22286
351785182798749,-0.48617038,0.10018831,10.04221
351785202651982,-0.62604284,0.12639847,10.466545
351785222507727,0.24268937,0.17924239,10.448435
351785242363344,1.4881662,-0.027389405,9.772573
351785262219089,1.0769452,-0.19938596,9.755242
351785282074834,-0.5663657,0.1719484,10.022054
351785301924593,-0.48580068,0.108277485,9.922589
351785321780210,0.23995623,-0.27729377,9.741866
351785341635699,0.22596994,-0.22245531,10.012044
351785361491316,0.032176446,-0.04623769,9.970066
351785381348161,0.6414987,0.47938395,10.085618
351785401203650,1.1066778,0.3651893,9.529451
351785421059139,-0.6179029,-0.5322477,9.782072
351785440914628,-0.6345535,-1.1547542,9.265919
351785460770245,-0.478757,-0.12633248,10.259102
351785480625734,-0.41363892,1.2450392,10.557741
351785500476487,0.3774649,0.10774301,9.402558
351785520331976,-0.0063633285,-0.27705723,9.776454
351785540187337,-0.7142802,-0.85170764,9.697086
351785560042826,-1.8861787,-1.1467465,9.849933
351785579898315,-2.0528786,-0.41920385,10.251199
351785599751024,-1.8214707,-2.5143285,8.599178
351785619606385,5.5608783,-7.580494,2.9481316
351785639461746,9.155392,2.9469519,12.609654
351785659317235,4.7761583,3.0187662,12.995499
351785679172573,4.023891,3.7142808,10.684102
351785699027934,1.4367139,6.965342,11.909303
351785718886617,-9.830878,11.856592,14.99651
351785738741978,-6.6397614,2.147638,9.733111
351785758597467,3.6724718,-3.4325805,4.188323
351785778452823,2.9247594,-2.841269,6.952886
351785798306569,0.28517836,-2.4963827,10.621291
351785818161930,-0.95941734,-5.74472,10.366368
351785838017289,6.5608454,-11.881695,5.031444
351785857872649,-0.63796943,0.46207833,10.621912
351785877727882,-3.7487063,12.298346,11.84123
351785897589861,2.114542,3.584,9.169643
351785917445349,2.3753269,0.24325968,8.958369
351785937300838,2.450669,1.4554247,11.193384
351785957156325,-1.1125059,-0.28038862,11.925596
351785977011813,-4.800815,-0.89756423,12.578463
351785996867302,1.5507197,2.6853504,13.572757
351786016727039,2.0907977,2.495738,12.679611
351786036582654,0.3544242,1.7389545,13.002964
351786056438143,-0.6961398,1.377235,13.323417
351786076293758,-1.5189297,0.55449677,13.093653
351786096149022,-0.9619177,0.25817102,12.94928
351786116004639,0.43913025,0.976437,11.400957
351786135860254,-0.23871197,2.2671099,9.83326
351786155715870,1.2404189,2.3141754,7.6821537
351786175571487,2.925754,1.3591233,7.3680983
351786195435197,-0.19132017,0.30857745,9.593236
351786215290941,-6.460884,6.1015744,11.2835455
351786235146686,-5.574176,2.0375535,11.799155
351786255002431,-1.7747432,2.2268202,10.219906
351786274858176,1.0181762,0.31655988,8.661379
351786294713921,-8.021614,0.7443257,9.596318
351786314579520,-6.431459,-3.6683476,11.586766
351786334435521,-3.0106883,-6.7635193,11.26861
351786354291522,-1.8764644,-7.6824546,10.392227
351786374147651,-0.9709916,-8.849307,8.3293915
351786394009856,1.2557732,-15.215021,9.911618
351786413866113,3.351555,-16.803492,11.568488
351786433722242,2.570814,-10.380067,10.580839
351786453578499,1.4994437,0.06312697,7.4341197
351786473434628,-0.3459598,2.598655,8.269237
351786493290885,-3.0125306,4.959262,9.13174
351786513146868,-2.8324504,6.839182,7.4025764
351786533003125,-1.2997146,3.8523455,6.849561
351786552859254,-0.4914948,0.6898213,7.5066924
351786572715383,-0.15083362,-0.5804645,7.61334
351786592571640,0.7030541,-3.3487039,7.0020866
351786612429231,0.25895858,-6.508238,6.2714224
351786632285488,-0.5241743,-2.2749093,4.4719872
351786652141617,-2.9747872,0.99448514,1.8021219
351786671997874,-4.2532063,-2.5694728,0.9463624
351786691856719,0.66505533,2.3745956,6.2194405
351786711713104,-1.7061565,4.9350033,8.969175
351786731569361,-2.7961226,6.5463543,10.346031
351786751425618,-1.9428575,4.7870336,10.307669
351786771281875,-1.0471152,-1.333886,7.8459597
351786791138127,-3.6331375,0.9790348,9.994269
351786810993390,0.350232,2.5133526,8.417097
351786830849775,1.3464895,-1.0200471,5.974438
351786850706030,-1.2989376,-0.93766564,7.729077
351786870562286,0.855189,-0.018966563,9.359363
351786890418671,0.179872,-1.5004169,10.478374
351786910264011,1.9799154,-0.23118937,10.731392
351786930120139,6.284101,1.2159214,9.025425
351786949976268,1.3436137,0.14958335,8.067953
351786969832267,-0.7395774,0.3755961,9.5730715
351786989680880,-1.4735516,-0.7377198,10.123228
351787009536881,-0.18099146,-1.4636436,10.662466
351787029392882,-1.0267771,1.7097185,11.339207
351787049248883,-2.2683985,2.3418162,11.237452
351787069104884,-1.1594925,0.06934208,10.17497
351787088960880,0.7801722,0.2025785,9.241394
351787108810127,-0.34606734,0.7606923,8.535746
351787128666000,-0.53033346,-1.5678077,10.940207
351787148521743,-1.1999763,-1.8185334,10.8184185
351787168377615,-0.03261274,-0.8235658,9.945135
351787188233488,-1.5183362,-0.17047228,9.288575
351787208084144,-2.250113,-0.13627063,9.074248
351787227939760,-1.0074927,-0.7205538,10.524454
351787247795505,-0.07363901,-1.0075482,11.069536
351787267651120,-0.47911575,-0.37133005,9.75217
351787287506967,-0.9060301,0.77883995,8.247081
351787307362584,-0.9657998,0.08758798,9.833902
351787327218199,-0.043750484,-2.6547358,13.048159
351787347073943,-0.84514534,-1.3518553,10.773924
351787366929560,-0.91101557,2.3844178,6.92155
351787386785303,-0.9302009,2.9524426,8.318804
351787406633751,-1.0579671,1.120532,10.395121
351787426489240,-1.927274,1.3074375,9.079542
351787446344599,-4.5503163,1.6226717,8.444442
351787466200087,-1.6981753,1.3030076,8.409552
351787486055576,-0.37170753,0.72472364,8.56679
351787505903890,0.1821011,1.4222819,7.249322
351787525759250,0.6161948,3.0916917,5.7645764
351787545614611,0.83876944,1.0813961,6.429513
351787565469842,4.4652786,-9.848082,11.634967
351787585325202,-1.4977843,-9.333898,15.185418
351787605180435,-10.931943,3.3769107,14.616992
351787625038057,-3.6420553,5.245761,10.652189
351787644893417,-0.57099533,1.283075,8.536342
351787664748650,-1.1928667,-0.5867755,9.667946
351787684604009,-1.2817453,-1.3068296,10.459856
351787704459656,-0.46774226,-0.9006007,10.678287
351787724314889,0.28663304,0.6136764,9.708096
351787744170120,-0.8378984,0.84227026,9.36564
351787764031144,-2.3692079,0.26842687,9.961835
351787783886377,-2.1505215,-0.07490506,10.177797
351787803745614,-0.80742884,-0.052772854,9.933144
351787823600846,-0.71741676,-0.08576407,10.079159
351787843456207,-0.9864002,0.03479993,10.30243
351787863311438,-0.15300925,-0.037532967,9.639425
351787883166798,0.36422735,0.44525713,8.940217
351787903022031,-0.46780264,0.65182346,9.0315895
351787922882285,-0.82208806,0.2574643,9.3329
351787942737645,-1.0541756,0.014554357,9.79574
351787962593006,-0.35411727,0.0763498,10.448125
351787982448365,0.5271295,-0.3216174,10.31306
351788002305847,0.062860884,-0.48559695,10.126297
351788022161208,-0.5972756,-0.20044963,10.500656
351788042016695,-0.8280059,0.0059892135,10.281067
351788061872183,-0.7793046,0.12822197,9.620582
351788081727672,-0.61641055,0.46604174,9.352469
351788101586327,-0.23066999,0.17529199,9.572248
351788121441815,0.24805063,-0.1374909,9.692592
351788141297304,0.44442612,-0.17512059,9.711029
351788161152919,0.21172369,-0.12114029,9.83503
351788181008407,-0.16541074,0.06046594,9.85214
351788200864024,-0.24745962,0.09316353,9.742674
351788220722358,-0.34119925,-0.033691965,9.775164
351788240577974,-0.43131125,-0.045165304,9.798865
351788260433719,-0.21088307,-0.104157895,9.966955
351788280289334,-0.2657766,-0.06899742,9.951083
351788300148844,-0.48984587,-0.003615803,9.851324
351788320004589,-0.0016038064,-0.13544485,10.247694
351788339860332,0.5025107,-0.22792003,9.945597
351788359716204,0.010382989,-0.011186497,9.637357
351788379571949,-0.2856015,0.10321809,9.688914
351788399427162,-0.29069254,0.08704444,9.771987
351788419283034,-0.24267018,0.11002681,9.781636
351788439138907,-0.06273543,0.13135527,9.708897
351788458994650,0.14016019,0.12723674,9.569493
351788478850522,0.001867445,0.09831323,9.543055
351788498706395,-0.22640647,0.12958384,9.627601
351788518554623,-0.40306565,0.037666384,9.793117
351788538410239,-0.34761974,-0.043586165,9.811882
351788558265856,-0.23192888,-0.059994534,9.649379
351788578121599,-0.07974392,0.04744492,9.444629
351788597979598,0.007245429,0.06454564,9.481565
351788617835215,-0.26204222,-0.10864236,9.747078
351788637690830,-0.3122039,-0.31932262,9.980239
351788657546574,-0.2323421,0.025095075,9.523375
351788677402191,-0.17152093,0.7077707,8.936378
351788697257806,0.017247096,0.18889196,9.106273
351788717078228,-0.25893056,-0.3067215,9.970364
351788736933205,-0.5725545,-0.54466426,10.639378
351788756788180,-0.11251619,-0.6457964,10.599964
