UPTIMENANO,Ax,Ay,Az
68929044178359,-1.5687379,8.959767999999999,-1.0442286
68929064034488,-1.5615528,8.959767999999999,-1.0609937
68929083882607,-1.5160475,8.981323,-1.099314
68929103738608,-1.5184423999999999,8.978928999999999,-1.1448194
68929123594586,-1.5184423999999999,8.962164,-1.1400293
68929143450459,-1.5160475,8.978928999999999,-1.0490186000000001
68929163305424,-1.5328126,8.990903999999999,-1.0178833
68929183161425,-1.5447876,8.993299,-1.0729688
68929203017426,-1.5567628,9.005274,-1.1376343
68929222873427,-1.5256275,8.998089,-1.1328443000000001
68929242729300,-1.4920973,8.966953,-1.0609937
68929262578955,-1.5088624,8.986114,-1.0106983
68929282434828,-1.5112573999999999,8.969349000000001,-1.1112891000000003
68929302290573,-1.5304176,8.954978,-1.1879296999999998
68929322146446,-1.5232325,8.923843,-1.1400293
68929342002191,-1.4681469999999999,8.916658,-1.0777588
68929361858064,-1.4729371,8.964559,-1.0538087
68929381710115,-1.4897022,8.964559,-1.0490186000000001
68929401565860,-1.5088624,8.981323,-1.0681788
68929421421605,-1.4849122,9.002879,-1.1256591999999999
68929441277350,-1.4920973,8.993299,-1.0921290000000001
68929461127973,-1.4825171,8.995694,-1.0753639
68929480983590,-1.4825171,8.962164,-1.1136841999999998
68929500839207,-1.5136524,8.957374,-1.1304493
68929520694696,-1.5304176,8.938213000000001,-1.094524
68929540550313,-1.5304176,8.947792999999999,-1.0873389
68929560401626,-1.5376027,8.964559,-1.1256591999999999
68929580257115,-1.5399976,8.974138,-1.0777588
68929600112583,-1.5208374,8.976534,-1.0705738
68929619968072,-1.5208374,8.962164,-1.1041040000000002
68929639823433,-1.5232325,8.943004,-1.089734
68929659678922,-1.5112573999999999,8.947792999999999,-1.1064991000000002
68929679541311,-1.5304176,8.964559,-1.0777588
68929699396928,-1.5519726999999999,8.959767999999999,-1.0657837
68929719252545,-1.5567628,8.959767999999999,-1.0777588
68929739108162,-1.5256275,8.962164,-1.0801538
68929758971257,-1.5232325,8.940608000000001,-1.0753639
68929778827002,-1.5376027,8.943004,-1.0777588
68929798682619,-1.5447876,8.940608000000001,-1.0873389
68929818538364,-1.5352076000000001,8.981323,-1.0873389
68929838394109,-1.5471827,9.067544,-1.099314
68929858249726,-1.5615528,9.129814999999999,-1.0825489
68929878108525,-1.5567628,9.09868,-1.0849438999999999
68929897964142,-1.4944923,9.069939999999999,-1.0921290000000001
68929917819887,-1.4897022,9.010064,-1.0753639
68929937675632,-1.5352076000000001,9.014853500000001,-1.0346485
68929957531377,-1.5783178999999998,9.077125,-1.0106983
68929977392864,-1.585503,9.081914999999999,-1.0466236
68929997248609,-1.5519726999999999,9.093889,-1.1112891000000003
68930017104482,-1.5112573999999999,9.08431,-1.1041040000000002
68930036960355,-1.4944923,9.093889,-1.0705738
68930056814364,-1.5064673000000002,9.086704,-1.0849438999999999
68930076670214,-1.5639478,9.113049499999999,-1.1256591999999999
68930096526087,-1.6070582,9.15616,-1.1184741000000002
68930116381960,-1.583108,9.201666000000001,-1.089734
68930136237833,-1.5495777,9.228010000000001,-1.0298585
68930156093706,-1.5280225,9.206455,-1.0657837
68930175951291,-1.5423926000000001,9.16574,-1.1567944
68930195807164,-1.5663428,9.115445,-1.1783496
68930215663165,-1.5567628,9.072334,-1.1064991000000002
68930235519038,-1.5591576999999999,9.137,-1.0562036
68930255375039,-1.5663428,9.218430499999998,-1.089734
68930275239220,-1.5543678,9.256751,-1.1951148999999999
68930295095349,-1.5591576999999999,9.292676,-1.2094848999999999
68930314951478,-1.5687379,9.295072,-1.1208692
68930334807479,-1.6070582,9.283096,-1.0825489
68930354660304,-1.6214283,9.256751,-1.096919
68930374516433,-1.5735278999999998,9.244776,-1.1400293
68930394372434,-1.5423926000000001,9.273516,-1.1687696
68930414228435,-1.5519726999999999,9.295072,-1.1687696
68930434084564,-1.590293,9.328602,-1.1663746000000002
68930453940565,-1.5926881000000002,9.333391,-1.1615845
68930473807160,-1.5328126,9.321417,-1.1663746000000002
68930493663545,-1.5519726999999999,9.345366499999999,-1.1735597
68930513519930,-1.583108,9.352551,-1.1041040000000002
68930533376187,-1.5926881000000002,9.323812,-1.101709
68930553232550,-1.590293,9.347761,-1.1543995
68930573086895,-1.5974781999999998,9.395662,-1.1520045
68930592943280,-1.5783178999999998,9.436378,-1.1591895
68930612799537,-1.5687379,9.457932000000001,-1.1543995
68930632655922,-1.590293,9.457932000000001,-1.1591895
68930652512179,-1.6166383,9.457932000000001,-1.1855347
68930672368564,-1.6166383,9.465117,-1.1639795
68930692224389,-1.6214283,9.465117,-1.101709
68930712080646,-1.6286133999999999,9.4435625,-1.0657837
68930731936903,-1.6238233,9.467513,-1.0921290000000001
68930751793288,-1.6094532,9.479486999999999,-1.1543995
68930771645925,-1.6118482,9.489068,-1.1879296999999998
68930791502182,-1.6190332,9.496253,-1.1567944
68930811358439,-1.5998731000000002,9.515413,-1.1328443000000001
68930831214568,-1.6118482,9.503438000000001,-1.1256591999999999
68930851070825,-1.6357985000000002,9.484278,-1.1328443000000001
68930870927082,-1.6262183000000001,9.508227999999999,-1.1208692
68930890778463,-1.6262183000000001,9.515413,-1.1376343
68930910634592,-1.6262183000000001,9.520203,-1.1543995
68930930490849,-1.6070582,9.544153,-1.1639795
68930950346978,-1.5950831,9.524992999999998,-1.1879296999999998
68930970203107,-1.6070582,9.534574000000001,-1.1472143999999997
68930990047630,-1.6501685000000001,9.534574000000001,-1.1088941
68931009903503,-1.6597486000000001,9.539363,-1.1064991000000002
68931029759354,-1.6094532,9.534574000000001,-1.1615845
68931049615355,-1.5639478,9.520203,-1.1520045
68931069462500,-1.583108,9.541758999999999,-1.1663746000000002
68931089318245,-1.6094532,9.541758999999999,-1.1136841999999998
68931109173990,-1.6070582,9.508227999999999,-1.1328443000000001
68931129029607,-1.6166383,9.489068,-1.1520045
68931148885352,-1.6238233,9.496253,-1.0873389
68931168740969,-1.6022681,9.522598,-1.1591895
68931188591698,-1.6070582,9.544153,-1.2406201000000001
68931208447187,-1.6214283,9.539363,-1.1855347
68931228302804,-1.6525636000000001,9.572892999999999,-1.1328443000000001
68931248158293,-1.6381934999999999,9.584868,-1.1256591999999999
68931268013782,-1.6022681,9.570497999999999,-1.1711646
68931287868357,-1.5974781999999998,9.592053,-1.1687696
68931307723846,-1.6094532,9.575289,-1.1687696
68931327579335,-1.6310083999999998,9.568104,-1.1136841999999998
68931347434696,-1.6310083999999998,9.577683,-1.1088941
68931367288267,-1.6286133999999999,9.551338000000001,-1.1735597
68931387143756,-1.6142433,9.529783,-1.2046948999999998
68931406999245,-1.6262183000000001,9.510622999999999,-1.1448194
68931426854606,-1.6381934999999999,9.522598,-1.1304493
68931446710095,-1.6573536,9.544153,-1.1687696
68931466565584,-1.6525636000000001,9.5561285,-1.1567944
68931486425377,-1.6310083999999998,9.565708,-1.1304493
68931506280845,-1.6142433,9.599238,-1.099314
68931526136334,-1.5998731000000002,9.568104,-1.1400293
68931545991951,-1.6310083999999998,9.551338000000001,-1.1615845
68931565847440,-1.6477735,9.572892999999999,-1.1615845
68931585702843,-1.6765138,9.570497999999999,-1.1328443000000001
68931605558460,-1.6357985000000002,9.544153,-1.1304493
68931625413949,-1.575923,9.489068,-1.1424243
68931645269438,-1.5687379,9.498648,-1.1807446000000001
68931665125055,-1.6142433,9.534574000000001,-1.1472143999999997
68931684980544,-1.6477735,9.577683,-1.1280543
68931704833327,-1.6357985000000002,9.580078,-1.1496094
68931724688688,-1.6166383,9.620794,-1.1376343
68931744544177,-1.575923,9.584868,-1.1567944
68931764399538,-1.585503,9.546548,-1.2046948999999998
68931784256015,-1.6453785,9.517808,-1.1807446000000001
68931804111376,-1.6693287,9.505833,-1.1232642
68931823966737,-1.6429833999999999,9.503438000000001,-1.1424243
68931843822098,-1.6190332,9.522598,-1.219065
68931863677459,-1.6238233,9.572892999999999,-1.2334352
68931883538074,-1.6334034,9.594449000000001,-1.1903248
68931903393691,-1.6262183000000001,9.589659,-1.1496094
68931923249180,-1.6357985000000002,9.601633999999999,-1.1639795
68931943104669,-1.6238233,9.5561285,-1.1783496
68931962960158,-1.5926881000000002,9.517808,-1.223855
68931982815752,-1.6142433,9.505833,-1.2070899
68932002670773,-1.6477735,9.491463000000001,-1.1855347
68932022526262,-1.6262183000000001,9.510622999999999,-1.1783496
68932042381751,-1.6118482,9.520203,-1.22146
68932062237112,-1.6214283,9.568104,-1.214275
68932082092899,-1.6094532,9.572892999999999,-1.2022998
68932101948516,-1.6022681,9.5633135,-1.1903248
68932121804005,-1.6334034,9.604028999999999,-1.1352394
68932141659622,-1.6501685000000001,9.577683,-1.1639795
68932161515111,-1.6405883999999997,9.534574000000001,-1.2621753
68932181377616,-1.6118482,9.503438000000001,-1.2478052
68932201233233,-1.587898,9.491463000000001,-1.1615845
68932221088978,-1.6381934999999999,9.532178,-1.1472143999999997
68932240944595,-1.6357985000000002,9.565708,-1.1543995
68932260800340,-1.6094532,9.570497999999999,-1.2118799999999998
68932280656085,-1.6190332,9.5633135,-1.2525953
68932300519566,-1.6429833999999999,9.541758999999999,-1.1687696
68932320375439,-1.6573536,9.558523,-1.1304493
68932340231312,-1.6501685000000001,9.575289,-1.1807446000000001
68932360087185,-1.6357985000000002,9.577683,-1.2573853000000002
68932379947138,-1.6262183000000001,9.551338000000001,-1.2765454
68932399803267,-1.6310083999999998,9.508227999999999,-1.2454101999999998
68932419659268,-1.6381934999999999,9.505833,-1.2022998
68932439515269,-1.6429833999999999,9.496253,-1.1543995
68932459371247,-1.6381934999999999,9.522598,-1.2358301999999999
68932479227248,-1.6573536,9.532178,-1.2861254999999998
68932499085827,-1.6357985000000002,9.560919,-1.2046948999999998
68932518941956,-1.6166383,9.558523,-1.1567944
68932538797957,-1.6070582,9.5489435,-1.2406201000000001
68932558654086,-1.6286133999999999,9.520203,-1.2645704
68932578510215,-1.6501685000000001,9.496253,-1.2525953
68932598364980,-1.6932789000000001,9.575289,-1.1783496
68932618220981,-1.6932789000000001,9.625584,-1.1567944
68932638077110,-1.6597486000000001,9.620794,-1.2549903
68932657933111,-1.6238233,9.596844,-1.3196558
68932677785716,-1.6070582,9.5633135,-1.2478052
68932697641717,-1.6645386000000002,9.546548,-1.1711646
68932717497718,-1.6070582,9.508227999999999,-1.2022998
68932737353719,-1.6070582,9.479486999999999,-1.3052857
68932757209720,-1.6525636000000001,9.493857,-1.2933106
68932777065593,-1.6310083999999998,9.539363,-1.2525953
68932796920930,-1.6310083999999998,9.529783,-1.1567944
68932816776931,-1.6190332,9.536968,-1.1543995
68932836632804,-1.6286133999999999,9.5489435,-1.2837305
68932856488805,-1.6142433,9.517808,-1.2981006000000002
68932876344806,-1.6501685000000001,9.524992999999998,-1.2070899
68932896196491,-1.6477735,9.570497999999999,-1.1687696
68932916052492,-1.6310083999999998,9.565708,-1.2597803
68932935908344,-1.6405883999999997,9.565708,-1.3028906999999998
68932955764217,-1.6334034,9.546548,-1.2837305
68932975614062,-1.6453785,9.496253,-1.2525953
68932995469807,-1.6741188000000002,9.501043,-1.2046948999999998
68933015325552,-1.6669337,9.536968,-1.1663746000000002
68933035181297,-1.6477735,9.594449000000001,-1.2621753
68933055037042,-1.6214283,9.513017999999999,-1.2909156000000002
68933074892787,-1.6405883999999997,9.457932000000001,-1.22625
68933094745686,-1.6381934999999999,9.491463000000001,-1.1879296999999998
68933114601431,-1.6118482,9.493857,-1.1975098
68933134457048,-1.6238233,9.520203,-1.2621753
68933154312793,-1.6573536,9.558523,-1.3100758
68933174168538,-1.6669337,9.594449000000001,-1.2981006000000002
68933194015539,-1.6669337,9.637559,-1.214275
68933213871028,-1.6573536,9.649534,-1.1975098
68933233726517,-1.6477735,9.611214,-1.2430152
68933253582134,-1.6190332,9.527389,-1.2861254999999998
68933273438865,-1.6549585999999998,9.513017999999999,-1.2669654
68933293294482,-1.6429833999999999,9.477093,-1.2310401000000002
68933313149971,-1.6310083999999998,9.453142,-1.2645704
68933333005460,-1.6190332,9.457932000000001,-1.2981006000000002
68933352860949,-1.6310083999999998,9.496253,-1.2981006000000002
68933372716438,-1.6477735,9.5489435,-1.2741505
68933392572671,-1.6453785,9.513017999999999,-1.22625
68933412428266,-1.6262183000000001,9.522598,-1.2070899
68933432283755,-1.6453785,9.553733,-1.2166698999999999
68933452139244,-1.6621436,9.584868,-1.1975098
68933471994861,-1.6334034,9.589659,-1.2573853000000002
68933491851222,-1.6262183000000001,9.587264,-1.3148658000000002
68933511706711,-1.6214283,9.587264,-1.2813355
68933531562328,-1.6477735,9.601633999999999,-1.2286451
68933551417817,-1.6405883999999997,9.577683,-1.223855
68933571273306,-1.6310083999999998,9.527389,-1.2645704
68933591128795,-1.6381934999999999,9.467513,-1.2382251
68933610983358,-1.6310083999999998,9.472302,-1.2621753
68933630838847,-1.6501685000000001,9.479486999999999,-1.2573853000000002
68933650694336,-1.6669337,9.489068,-1.2549903
68933670549825,-1.6573536,9.527389,-1.2837305
68933690403948,-1.6597486000000001,9.582474000000001,-1.2981006000000002
68933710259309,-1.6597486000000001,9.592053,-1.2573853000000002
68933730114670,-1.6645386000000002,9.592053,-1.22146
68933749970031,-1.6693287,9.5633135,-1.1927198
68933769825392,-1.6573536,9.568104,-1.2310401000000002
68933789683239,-1.6357985000000002,9.577683,-1.2717555
68933809538728,-1.6022681,9.527389,-1.2765454
68933829394089,-1.6357985000000002,9.505833,-1.2525953
68933849249578,-1.6860938,9.498648,-1.2430152
68933869105067,-1.6717237,9.477093,-1.2933106
68933888960407,-1.6597486000000001,9.4507475,-1.3172607
68933908820736,-1.5998731000000002,9.479486999999999,-1.2837305
68933928676225,-1.6046631000000002,9.503438000000001,-1.2334352
68933948531842,-1.6381934999999999,9.5489435,-1.2070899
68933968387331,-1.6693287,9.572892999999999,-1.2454101999999998
68933988247314,-1.6765138,9.604028999999999,-1.3148658000000002
68934008102931,-1.6525636000000001,9.616004,-1.2885206
68934027958548,-1.6525636000000001,9.616004,-1.1831397
68934047814293,-1.6310083999999998,9.568104,-1.1879296999999998
68934067669910,-1.6190332,9.520203,-1.3148658000000002
68934087522177,-1.6214283,9.479486999999999,-1.3627661
68934107377794,-1.6094532,9.481883,-1.3004956
68934127233411,-1.6286133999999999,9.505833,-1.219065
68934147089028,-1.6597486000000001,9.522598,-1.2310401000000002
68934166944645,-1.6597486000000001,9.553733,-1.2885206
68934186800262,-1.6573536,9.568104,-1.331631
68934206658683,-1.6549585999999998,9.589659,-1.2981006000000002
68934226514300,-1.6525636000000001,9.599238,-1.223855
68934246370045,-1.6549585999999998,9.637559,-1.22625
68934266225790,-1.6429833999999999,9.592053,-1.2693603999999998
68934286091563,-1.6214283,9.553733,-1.3100758
68934305947436,-1.6166383,9.496253,-1.2837305
68934325803309,-1.6381934999999999,9.441168,-1.2597803
68934345659310,-1.6405883999999997,9.388477,-1.2334352
68934365515160,-1.6118482,9.395662,-1.2478052
68934385371033,-1.583108,9.388477,-1.2957056999999998
68934405231678,-1.6022681,9.469908,-1.3843212999999999
68934425087807,-1.6621436,9.560919,-1.3388159
68934444943808,-1.6836988000000002,9.639954,-1.2549903
68934464799809,-1.6813037,9.6758795,-1.1975098
68934484655810,-1.6262183000000001,9.644744000000001,-1.2382251
68934504511659,-1.6022681,9.613608000000001,-1.3436059999999999
68934524367788,-1.6142433,9.582474000000001,-1.3028906999999998
68934544223789,-1.6549585999999998,9.5561285,-1.2382251
68934564079918,-1.6405883999999997,9.520203,-1.2909156000000002
68934583928855,-1.6142433,9.469908,-1.3507911
68934603784856,-1.6310083999999998,9.457932000000001,-1.3436059999999999
68934623640729,-1.6310083999999998,9.445957,-1.3028906999999998
68934643496730,-1.6477735,9.457932000000001,-1.2909156000000002
68934663352603,-1.6645386000000002,9.484278,-1.3028906999999998
68934683208604,-1.6765138,9.524992999999998,-1.3364209999999999
68934703064399,-1.6477735,9.568104,-1.3412110000000002
68934722920272,-1.6501685000000001,9.599238,-1.3028906999999998
68934742776273,-1.6621436,9.6615095,-1.2430152
68934762632146,-1.6621436,9.6615095,-1.214275
68934782488147,-1.6549585999999998,9.582474000000001,-1.2549903
68934802342332,-1.6405883999999997,9.539363,-1.3100758
68934822198205,-1.5998731000000002,9.496253,-1.3531861
68934842054055,-1.6238233,9.481883,-1.3124708
68934861909800,-1.6310083999999998,9.486672,-1.2837305
68934881761729,-1.6429833999999999,9.4435625,-1.2981006000000002
68934901617474,-1.6549585999999998,9.457932000000001,-1.3268408999999999
68934921473219,-1.6669337,9.491463000000001,-1.3052857
68934941328964,-1.6381934999999999,9.489068,-1.331631
68934961184837,-1.6094532,9.524992999999998,-1.2909156000000002
68934981040582,-1.6357985000000002,9.596844,-1.2693603999999998
68935000893347,-1.6813037,9.608819,-1.3100758
68935020749092,-1.6693287,9.587264,-1.3388159
68935040604709,-1.6142433,9.560919,-1.3124708
68935060460454,-1.5926881000000002,9.580078,-1.2693603999999998
68935080316199,-1.583108,9.592053,-1.2525953
68935100165142,-1.6405883999999997,9.570497999999999,-1.2717555
68935120020631,-1.6741188000000002,9.524992999999998,-1.2957056999999998
68935139876248,-1.6525636000000001,9.505833,-1.2909156000000002
68935159731865,-1.6142433,9.486672,-1.2621753
68935179587482,-1.590293,9.453142,-1.3076807
68935199442971,-1.6046631000000002,9.4435625,-1.2981006000000002
68935219288172,-1.6549585999999998,9.465117,-1.3076807
68935239143533,-1.6813037,9.505833,-1.3052857
68935258998894,-1.6597486000000001,9.572892999999999,-1.2981006000000002
68935278854255,-1.6357985000000002,9.651928999999999,-1.2765454
68935298706184,-1.6525636000000001,9.666299,-1.2478052
68935318561398,-1.6238233,9.635164,-1.2669654
68935338416759,-1.6429833999999999,9.572892999999999,-1.2933106
68935358271992,-1.6118482,9.560919,-1.2861254999999998
68935378127225,-1.6573536,9.524992999999998,-1.2645704
68935397973530,-1.6597486000000001,9.546548,-1.3100758
68935417828507,-1.6334034,9.503438000000001,-1.3412110000000002
68935437683612,-1.6429833999999999,9.457932000000001,-1.3124708
68935457538717,-1.6381934999999999,9.4435625,-1.2669654
68935477393694,-1.6357985000000002,9.455538,-1.2382251
68935497248799,-1.6429833999999999,9.501043,-1.3076807
68935517103100,-1.6286133999999999,9.510622999999999,-1.334026
68935536958205,-1.6381934999999999,9.570497999999999,-1.3004956
68935556813182,-1.6549585999999998,9.577683,-1.2645704
68935576668159,-1.6453785,9.553733,-1.2813355
68935596517762,-1.6310083999999998,9.536968,-1.2981006000000002
68935616372611,-1.5950831,9.577683,-1.2981006000000002
68935636227460,-1.6166383,9.632769,-1.3052857
68935656082437,-1.6597486000000001,9.623189,-1.2885206
68935675937286,-1.6405883999999997,9.575289,-1.2861254999999998
68935695791325,-1.6501685000000001,9.546548,-1.2957056999999998
68935715646046,-1.6405883999999997,9.501043,-1.2861254999999998
68935735500895,-1.6262183000000001,9.472302,-1.3172607
68935755355616,-1.6094532,9.436378,-1.331631
68935775210465,-1.5998731000000002,9.4435625,-1.3531861
68935795065162,-1.6166383,9.453142,-1.3436059999999999
68935814925529,-1.6166383,9.491463000000001,-1.3220508
68935834780378,-1.6453785,9.522598,-1.3172607
68935854635227,-1.6453785,9.565708,-1.2957056999999998
68935874490076,-1.6525636000000001,9.601633999999999,-1.3028906999999998
68935894348813,-1.6669337,9.616004,-1.3124708
68935914203790,-1.6525636000000001,9.613608000000001,-1.2717555
68935934058639,-1.6501685000000001,9.584868,-1.2885206
68935953913616,-1.6381934999999999,9.551338000000001,-1.2933106
68935973768593,-1.6310083999999998,9.534574000000001,-1.3268408999999999
68935993623442,-1.6357985000000002,9.515413,-1.3579761000000001
68936013488439,-1.6357985000000002,9.496253,-1.3579761000000001
68936033343544,-1.6525636000000001,9.474698,-1.3052857
68936053198649,-1.6717237,9.486672,-1.2933106
68936073053882,-1.6645386000000002,9.453142,-1.331631
68936092908987,-1.6286133999999999,9.496253,-1.3651612
68936112769962,-1.6334034,9.536968,-1.3268408999999999
68936132625195,-1.6621436,9.560919,-1.2717555
68936152480556,-1.6693287,9.611214,-1.2861254999999998
68936172335789,-1.6405883999999997,9.587264,-1.3148658000000002
68936192189730,-1.6118482,9.560919,-1.3148658000000002
68936212044963,-1.6070582,9.565708,-1.3148658000000002
68936231900196,-1.6310083999999998,9.560919,-1.2789403999999998
68936251755429,-1.6765138,9.551338000000001,-1.2669654
68936271610640,-1.6549585999999998,9.541758999999999,-1.2885206
68936291465873,-1.6429833999999999,9.534574000000001,-1.2981006000000002
68936311326910,-1.6286133999999999,9.527389,-1.3196558
68936331182271,-1.6142433,9.498648,-1.3507911
68936351037760,-1.6453785,9.489068,-1.3196558
68936370893121,-1.6669337,9.508227999999999,-1.2693603999999998
68936390748482,-1.6405883999999997,9.515413,-1.2861254999999998
68936410607665,-1.6142433,9.503438000000001,-1.3292358999999998
68936430463154,-1.6070582,9.508227999999999,-1.3364209999999999
68936450318771,-1.6477735,9.539363,-1.2861254999999998
68936470174260,-1.6621436,9.570497999999999,-1.2597803
68936490038623,-1.6501685000000001,9.568104,-1.2909156000000002
68936509894368,-1.6046631000000002,9.577683,-1.2885206
68936529750113,-1.5950831,9.546548,-1.2861254999999998
68936549605858,-1.6046631000000002,9.5489435,-1.2645704
68936569461603,-1.6453785,9.541758999999999,-1.2525953
68936589317348,-1.6501685000000001,9.527389,-1.2933106
68936609176647,-1.6286133999999999,9.493857,-1.3100758
68936629032520,-1.6094532,9.508227999999999,-1.3268408999999999
68936648888521,-1.6262183000000001,9.515413,-1.2837305
68936668744394,-1.6357985000000002,9.515413,-1.2406201000000001
68936688600267,-1.6334034,9.570497999999999,-1.2573853000000002
68936708459306,-1.6357985000000002,9.580078,-1.2957056999999998
68936728315179,-1.6286133999999999,9.568104,-1.3124708
68936748171157,-1.6190332,9.541758999999999,-1.2789403999999998
68936768027158,-1.6022681,9.491463000000001,-1.223855
68936787883159,-1.5974781999999998,9.493857,-1.2382251
68936807739160,-1.6310083999999998,9.529783,-1.2669654
68936827602103,-1.6310083999999998,9.553733,-1.2669654
68936847458232,-1.6357985000000002,9.572892999999999,-1.2621753
68936867314361,-1.6214283,9.560919,-1.2430152
68936887170490,-1.6070582,9.546548,-1.2478052
68936907024297,-1.5926881000000002,9.544153,-1.2741505
68936926880426,-1.6118482,9.541758999999999,-1.2717555
68936946736555,-1.6525636000000001,9.524992999999998,-1.2502003000000002
68936966592684,-1.6405883999999997,9.510622999999999,-1.2813355
68936986448685,-1.6142433,9.472302,-1.2693603999999998
68937006298718,-1.5974781999999998,9.486672,-1.219065
68937026154719,-1.6381934999999999,9.517808,-1.2046948999999998
68937046010592,-1.6190332,9.5633135,-1.2717555
68937065866593,-1.6286133999999999,9.565708,-1.2837305
68937085722594,-1.6166383,9.584868,-1.2549903
68937105578467,-1.6262183000000001,9.596844,-1.2502003000000002
68937125428178,-1.6214283,9.572892999999999,-1.2382251
68937145284051,-1.6477735,9.551338000000001,-1.2549903
68937165139924,-1.6573536,9.544153,-1.2502003000000002
68937184995797,-1.6381934999999999,9.515413,-1.2669654
68937204842314,-1.6334034,9.508227999999999,-1.2669654
68937224697909,-1.6429833999999999,9.505833,-1.2981006000000002
68937244553526,-1.6190332,9.529783,-1.3100758
68937264409143,-1.6166383,9.5489435,-1.2909156000000002
68937284264760,-1.6573536,9.532178,-1.2406201000000001
68937304121639,-1.6836988000000002,9.546548,-1.2430152
68937323977384,-1.6669337,9.529783,-1.2693603999999998
68937343833001,-1.6166383,9.527389,-1.2693603999999998
68937363688618,-1.6214283,9.572892999999999,-1.2837305
68937383544235,-1.6238233,9.611214,-1.2957056999999998
68937403399852,-1.6238233,9.584868,-1.22146
68937423251661,-1.6286133999999999,9.575289,-1.2358301999999999
68937443107278,-1.6621436,9.546548,-1.2813355
68937462962895,-1.6597486000000001,9.541758999999999,-1.2885206
68937482818384,-1.6453785,9.529783,-1.3076807
68937502673691,-1.6214283,9.536968,-1.3076807
68937522529308,-1.6549585999999998,9.527389,-1.2334352
68937542384797,-1.6765138,9.510622999999999,-1.2573853000000002
68937562240286,-1.6645386000000002,9.510622999999999,-1.3364209999999999
68937582095775,-1.6334034,9.508227999999999,-1.3052857
68937601951392,-1.6022681,9.529783,-1.2406201000000001
68937621800777,-1.6190332,9.524992999999998,-1.2525953
68937641656138,-1.6573536,9.517808,-1.2909156000000002
68937661511627,-1.6765138,9.517808,-1.2957056999999998
68937681366988,-1.6453785,9.560919,-1.2885206
68937701222454,-1.6453785,9.577683,-1.2406201000000001
68937721075815,-1.6334034,9.572892999999999,-1.2334352
68937740931176,-1.6429833999999999,9.544153,-1.2525953
68937760786665,-1.6573536,9.539363,-1.2645704
68937780642026,-1.6621436,9.534574000000001,-1.2741505
68937800503897,-1.6813037,9.575289,-1.2454101999999998
68937820359258,-1.6765138,9.575289,-1.2070899
68937840214747,-1.6381934999999999,9.558523,-1.2070899
68937860070236,-1.6214283,9.513017999999999,-1.2358301999999999
68937879925725,-1.585503,9.513017999999999,-1.2478052
68937899781086,-1.6262183000000001,9.508227999999999,-1.2454101999999998
68937919637251,-1.6477735,9.481883,-1.2358301999999999
68937939492612,-1.6214283,9.520203,-1.1807446000000001
68937959348101,-1.6262183000000001,9.587264,-1.1831397
68937979203462,-1.6046631000000002,9.632769,-1.2094848999999999
68937999058951,-1.6046631000000002,9.656719,-1.2310401000000002
68938018914928,-1.6118482,9.625584,-1.214275
68938038770417,-1.6429833999999999,9.594449000000001,-1.1615845
68938058625778,-1.6310083999999998,9.532178,-1.1448194
68938078481139,-1.5783178999999998,9.508227999999999,-1.2094848999999999
68938098331734,-1.5998731000000002,9.493857,-1.2310401000000002
68938118187095,-1.6214283,9.486672,-1.2070899
68938138042456,-1.5950831,9.510622999999999,-1.1927198
68938157897817,-1.583108,9.510622999999999,-1.2334352
68938177753029,-1.5950831,9.503438000000001,-1.2022998
68938197608390,-1.6022681,9.546548,-1.1400293
68938217460837,-1.6238233,9.580078,-1.1496094
68938237316198,-1.6501685000000001,9.570497999999999,-1.1783496
68938257171431,-1.6453785,9.582474000000001,-1.1831397
68938277026664,-1.6070582,9.599238,-1.1831397
68938296881897,-1.5974781999999998,9.599238,-1.2022998
68938316737852,-1.6142433,9.570497999999999,-1.1879296999999998
68938336593085,-1.6238233,9.5633135,-1.1927198
68938356448318,-1.6429833999999999,9.539363,-1.1903248
68938376303679,-1.6405883999999997,9.520203,-1.2022998
68938396158912,-1.6429833999999999,9.501043,-1.1879296999999998
68938416014145,-1.6286133999999999,9.536968,-1.2022998
68938435880076,-1.6357985000000002,9.541758999999999,-1.219065
68938455735693,-1.6214283,9.5489435,-1.1999048
68938475591182,-1.6094532,9.551338000000001,-1.1687696
68938495446799,-1.6357985000000002,9.572892999999999,-1.2094848999999999
68938515304952,-1.6741188000000002,9.572892999999999,-1.22146
68938535160569,-1.6573536,9.532178,-1.1759547
68938555016186,-1.5974781999999998,9.541758999999999,-1.1520045
68938574871803,-1.5998731000000002,9.606423,-1.1663746000000002
68938594727420,-1.6405883999999997,9.599238,-1.1543995
68938614582305,-1.6477735,9.580078,-1.1927198
68938634437922,-1.6334034,9.577683,-1.2286451
68938654293517,-1.6429833999999999,9.529783,-1.1879296999999998
68938674149134,-1.6166383,9.534574000000001,-1.1975098
68938694004879,-1.6166383,9.517808,-1.1999048
68938713860496,-1.6477735,9.515413,-1.214275
68938733711865,-1.6836988000000002,9.469908,-1.1615845
68938753567354,-1.6525636000000001,9.493857,-1.1711646
68938773422971,-1.6046631000000002,9.522598,-1.2454101999999998
68938793278460,-1.6094532,9.570497999999999,-1.2741505
68938813125665,-1.6573536,9.601633999999999,-1.2094848999999999
68938832981026,-1.6789087,9.623189,-1.1639795
68938852836387,-1.6693287,9.623189,-1.1352394
68938872691748,-1.6429833999999999,9.625584,-1.1639795
68938892547109,-1.6262183000000001,9.575289,-1.214275
68938912403652,-1.6310083999999998,9.536968,-1.2286451
68938932259013,-1.6310083999999998,9.510622999999999,-1.2430152
68938952114502,-1.6549585999999998,9.481883,-1.2286451
68938971969863,-1.6573536,9.486672,-1.2070899
68938991825224,-1.6789087,9.501043,-1.2166698999999999
68939011680585,-1.6908839,9.532178,-1.1927198
68939031533552,-1.6908839,9.568104,-1.1615845
68939051388913,-1.6597486000000001,9.568104,-1.1951148999999999
68939071244146,-1.6046631000000002,9.5633135,-1.219065
68939091099507,-1.6334034,9.580078,-1.223855
68939110951688,-1.6669337,9.544153,-1.2118799999999998
68939130807029,-1.6573536,9.539363,-1.1879296999999998
68939150662262,-1.6381934999999999,9.505833,-1.1615845
68939170517495,-1.5926881000000002,9.517808,-1.1759547
68939190372728,-1.6094532,9.536968,-1.22625
68939210228089,-1.6501685000000001,9.565708,-1.1855347
68939230077580,-1.6693287,9.558523,-1.1400293
68939249932685,-1.6525636000000001,9.5489435,-1.1615845
68939269787662,-1.6166383,9.529783,-1.1831397
68939289642767,-1.6046631000000002,9.508227999999999,-1.214275
68939309497872,-1.6046631000000002,9.522598,-1.2094848999999999
68939329346747,-1.6334034,9.5489435,-1.214275
68939349201724,-1.6669337,9.565708,-1.1951148999999999
68939369056573,-1.6405883999999997,9.587264,-1.1903248
68939388911550,-1.6046631000000002,9.584868,-1.2166698999999999
68939408766731,-1.6214283,9.594449000000001,-1.1687696
68939428621708,-1.6501685000000001,9.592053,-1.1543995
68939448476685,-1.6357985000000002,9.570497999999999,-1.1855347
68939468331662,-1.6501685000000001,9.568104,-1.1927198
68939488186639,-1.6525636000000001,9.5561285,-1.1663746000000002
68939508041616,-1.6190332,9.546548,-1.2022998
68939527903249,-1.6070582,9.558523,-1.2286451
68939547758354,-1.6334034,9.570497999999999,-1.223855
68939567613459,-1.6429833999999999,9.575289,-1.2166698999999999
68939587468564,-1.6645386000000002,9.572892999999999,-1.2046948999999998
68939607323649,-1.6693287,9.546548,-1.1831397
68939627181546,-1.6525636000000001,9.505833,-1.1783496
68939647036651,-1.6429833999999999,9.422008,-1.1855347
68939666891884,-1.6070582,9.414823,-1.2286451
68939686747117,-1.6142433,9.4507475,-1.2286451
68939706601436,-1.6525636000000001,9.503438000000001,-1.2406201000000001
68939726456541,-1.6669337,9.5489435,-1.2070899
68939746311646,-1.6357985000000002,9.572892999999999,-1.1591895
68939766166751,-1.6094532,9.570497999999999,-1.2118799999999998
68939786021856,-1.6190332,9.611214,-1.2502003000000002
68939805876961,-1.6525636000000001,9.618399,-1.1855347
68939825725708,-1.6836988000000002,9.620794,-1.1591895
68939845580685,-1.6836988000000002,9.611214,-1.2166698999999999
68939865435534,-1.6621436,9.596844,-1.2334352
68939885290511,-1.6262183000000001,9.5561285,-1.2310401000000002
68939905145488,-1.5998731000000002,9.505833,-1.2502003000000002
68939925001371,-1.6214283,9.455538,-1.223855
68939944856220,-1.6645386000000002,9.462723,-1.2382251
68939964711197,-1.6789087,9.477093,-1.2909156000000002
68939984566174,-1.6357985000000002,9.513017999999999,-1.2693603999999998
68940004421023,-1.6453785,9.539363,-1.1927198
68940024276000,-1.6621436,9.5561285,-1.1903248
68940044145771,-1.6789087,9.580078,-1.2597803
68940064001004,-1.6741188000000002,9.592053,-1.2525953
68940083856216,-1.6381934999999999,9.604028999999999,-1.223855
68940103711449,-1.6334034,9.594449000000001,-1.2286451
68940123568896,-1.6357985000000002,9.584868,-1.2334352
68940143424257,-1.6477735,9.570497999999999,-1.2430152
68940163279490,-1.6501685000000001,9.568104,-1.2837305
68940183134851,-1.6453785,9.520203,-1.2789403999999998
68940202990212,-1.6429833999999999,9.486672,-1.2502003000000002
68940222854905,-1.6669337,9.489068,-1.219065
68940242710394,-1.6453785,9.493857,-1.2621753
68940262566011,-1.6238233,9.474698,-1.2813355
68940282421500,-1.6286133999999999,9.517808,-1.2525953
68940302277117,-1.6501685000000001,9.5633135,-1.223855
68940322132606,-1.6525636000000001,9.577683,-1.2813355
68940341985761,-1.6525636000000001,9.577683,-1.3148658000000002
68940361841250,-1.6214283,9.596844,-1.2382251
68940381696739,-1.6214283,9.611214,-1.2046948999999998
68940401552356,-1.6525636000000001,9.620794,-1.1639795
68940421411861,-1.6549585999999998,9.582474000000001,-1.1831397
68940441267478,-1.6214283,9.551338000000001,-1.2909156000000002
68940461123095,-1.6501685000000001,9.493857,-1.2813355
68940480978712,-1.6405883999999997,9.472302,-1.2118799999999998
68940500834329,-1.6166383,9.457932000000001,-1.22146
68940520694914,-1.6357985000000002,9.445957,-1.2525953
68940540550659,-1.6597486000000001,9.472302,-1.2765454
68940560406381,-1.6621436,9.493857,-1.2765454
68940580262126,-1.6717237,9.544153,-1.2046948999999998
68940600117871,-1.6717237,9.616004,-1.1496094
68940619973616,-1.6621436,9.690249,-1.2406201000000001
68940639831635,-1.6549585999999998,9.721385,-1.3004956
68940659687380,-1.6573536,9.697434,-1.214275
68940679543253,-1.6142433,9.611214,-1.1639795
68940699399126,-1.6238233,9.551338000000001,-1.1639795
68940719251585,-1.6741188000000002,9.4507475,-1.2022998
68940739107330,-1.6765138,9.4435625,-1.3028906999999998
68940758963075,-1.6573536,9.4507475,-1.2621753
68940778818820,-1.6381934999999999,9.481883,-1.1927198
68940798674693,-1.6190332,9.493857,-1.2118799999999998
68940818530438,-1.6429833999999999,9.541758999999999,-1.2621753
68940838385339,-1.6741188000000002,9.570497999999999,-1.2430152
68940858241084,-1.6453785,9.608819,-1.1855347
68940878096957,-1.6501685000000001,9.625584,-1.1687696
68940897952702,-1.6741188000000002,9.618399,-1.2166698999999999
68940917808447,-1.6645386000000002,9.618399,-1.2717555
68940937660968,-1.6334034,9.594449000000001,-1.2478052
68940957516713,-1.6190332,9.546548,-1.1879296999999998
68940977372330,-1.6190332,9.522598,-1.2118799999999998
68940997228075,-1.6405883999999997,9.510622999999999,-1.2525953
68941017079572,-1.6573536,9.484278,-1.2286451
68941036935168,-1.6645386000000002,9.472302,-1.2094848999999999
68941056790657,-1.6813037,9.445957,-1.2070899
68941076646274,-1.6908839,9.455538,-1.1831397
68941096501891,-1.6262183000000001,9.484278,-1.1927198
68941116357508,-1.590293,9.524992999999998,-1.2382251
68941136206055,-1.6597486000000001,9.560919,-1.2549903
68941156061544,-1.7268091,9.599238,-1.2430152
68941175917033,-1.6980689999999998,9.656719,-1.2118799999999998
68941195772522,-1.6789087,9.695039999999999,-1.2286451
68941215628011,-1.6765138,9.671089,-1.2334352
68941235483542,-1.6813037,9.620794,-1.223855
68941255339031,-1.6813037,9.560919,-1.1903248
68941275194520,-1.6549585999999998,9.515413,-1.1783496
68941295050009,-1.6166383,9.448353,-1.2094848999999999
68941314898502,-1.6214283,9.419611999999999,-1.2885206
68941334753863,-1.6405883999999997,9.400452,-1.2957056999999998
68941354609096,-1.6621436,9.407638,-1.2070899
68941374464457,-1.6525636000000001,9.453142,-1.1855347
68941394319818,-1.6357985000000002,9.510622999999999,-1.223855
68941414175179,-1.6334034,9.568104,-1.2621753
68941434025980,-1.6549585999999998,9.671089,-1.2382251
68941453881085,-1.6573536,9.6615095,-1.1855347
68941473736190,-1.6262183000000001,9.6686945,-1.1256591999999999
68941493591423,-1.6621436,9.644744000000001,-1.1615845
68941513446506,-1.6669337,9.618399,-1.2645704
68941533297651,-1.6717237,9.584868,-1.2741505
68941553152756,-1.5926881000000002,9.527389,-1.1855347
68941573007733,-1.5471827,9.489068,-1.1496094
68941592862710,-1.5974781999999998,9.486672,-1.2046948999999998
68941612717815,-1.6501685000000001,9.479486999999999,-1.2334352
68941632572792,-1.6789087,9.489068,-1.1783496
68941652429853,-1.6477735,9.496253,-1.1711646
68941672284830,-1.6334034,9.501043,-1.1687696
68941692139935,-1.6453785,9.510622999999999,-1.1759547
68941711995040,-1.6262183000000001,9.536968,-1.1903248
68941731845897,-1.6118482,9.568104,-1.1927198
68941751700874,-1.6453785,9.594449000000001,-1.1735597
68941771555851,-1.6693287,9.627979,-1.1975098
68941791410828,-1.6573536,9.635164,-1.1639795
68941811265805,-1.6525636000000001,9.642349000000001,-1.1136841999999998
68941831121398,-1.6501685000000001,9.594449000000001,-1.1184741000000002
68941850976375,-1.6477735,9.546548,-1.1520045
68941870831352,-1.6118482,9.484278,-1.1448194
68941890686329,-1.6238233,9.481883,-1.219065
68941910541306,-1.6429833999999999,9.479486999999999,-1.2741505
68941930396411,-1.6836988000000002,9.477093,-1.22625
68941950247012,-1.6597486000000001,9.489068,-1.2022998
68941970101861,-1.6334034,9.524992999999998,-1.2549903
68941989956688,-1.6214283,9.541758999999999,-1.2909156000000002
68942009811537,-1.6573536,9.589659,-1.2525953
68942029678010,-1.6453785,9.632769,-1.2094848999999999
68942049533115,-1.6334034,9.606423,-1.1783496
68942069388220,-1.6238233,9.601633999999999,-1.1256591999999999
68942089243197,-1.6405883999999997,9.584868,-1.1184741000000002
68942109098302,-1.6549585999999998,9.587264,-1.1615845
68942128956595,-1.6573536,9.570497999999999,-1.1208692
68942148811828,-1.6357985000000002,9.568104,-1.0466236
68942168666933,-1.5974781999999998,9.536968,-1.0753639
68942188522166,-1.583108,9.527389,-1.1424243
68942208377271,-1.5926881000000002,9.534574000000001,-1.1543995
68942228232504,-1.6166383,9.534574000000001,-1.1256591999999999
68942248093151,-1.6429833999999999,9.5633135,-1.1088941
68942267948512,-1.6741188000000002,9.580078,-1.1160791
68942287803745,-1.6334034,9.572892999999999,-1.1304493
68942307659106,-1.5615528,9.575289,-1.2046948999999998
68942327514595,-1.5615528,9.570497999999999,-1.2310401000000002
68942347369956,-1.6262183000000001,9.539363,-1.1903248
68942367225189,-1.6717237,9.515413,-1.099314
68942387080550,-1.6525636000000001,9.524992999999998,-1.0849438999999999
68942406935911,-1.6381934999999999,9.546548,-1.1543995
68942426791144,-1.6381934999999999,9.577683,-1.1687696
68942446649045,-1.6405883999999997,9.623189,-1.099314
68942466504383,-1.6262183000000001,9.596844,-1.0777588
68942486359872,-1.6094532,9.539363,-1.1520045
68942506215233,-1.6405883999999997,9.553733,-1.2166698999999999
68942526070594,-1.6405883999999997,9.570497999999999,-1.1496094
68942545933739,-1.6214283,9.589659,-1.099314
68942565789228,-1.6405883999999997,9.558523,-1.099314
68942585644845,-1.6836988000000002,9.5489435,-1.1424243
68942605500334,-1.6669337,9.565708,-1.2070899
68942625357913,-1.6166383,9.580078,-1.1831397
68942645213530,-1.5950831,9.572892999999999,-1.1112891000000003
68942665069147,-1.583108,9.5489435,-1.1160791
68942684924764,-1.6214283,9.541758999999999,-1.1256591999999999
68942704780509,-1.6381934999999999,9.527389,-1.1352394
68942724636126,-1.6262183000000001,9.517808,-1.1280543
68942744492615,-1.583108,9.529783,-1.1064991000000002
68942764348232,-1.5567628,9.5633135,-1.1184741000000002
68942784203849,-1.5926881000000002,9.575289,-1.101709
68942804059466,-1.6262183000000001,9.611214,-1.0322535
68942823915211,-1.6549585999999998,9.613608000000001,-1.0106983
68942843773048,-1.6597486000000001,9.613608000000001,-1.0442286
68942863628793,-1.6429833999999999,9.604028999999999,-1.0562036
68942883484410,-1.6357985000000002,9.582474000000001,-1.0753639
68942903340155,-1.6046631000000002,9.551338000000001,-1.1280543
68942923196204,-1.5998731000000002,9.546548,-1.1472143999999997
68942943051927,-1.5926881000000002,9.527389,-1.1424243
68942962907672,-1.6334034,9.527389,-1.096919
68942982763417,-1.6693287,9.546548,-1.0274634
68943002619162,-1.6741188000000002,9.524992999999998,-1.0490186000000001
68943022474907,-1.6573536,9.544153,-1.1232642
68943042325440,-1.6573536,9.568104,-1.1328443000000001
68943062181185,-1.6645386000000002,9.599238,-1.094524
68943082036802,-1.6525636000000001,9.599238,-1.0562036
68943101892547,-1.6357985000000002,9.601633999999999,-1.0705738
68943121748164,-1.5974781999999998,9.575289,-1.0849438999999999
68943141594457,-1.6022681,9.560919,-1.0849438999999999
68943161450074,-1.6286133999999999,9.5561285,-1.1160791
68943181305563,-1.6357985000000002,9.536968,-1.1376343
68943201161052,-1.6214283,9.517808,-1.1280543
68943221016541,-1.6094532,9.513017999999999,-1.0825489
68943240872030,-1.6310083999999998,9.513017999999999,-1.1112891000000003
68943260723509,-1.6597486000000001,9.5489435,-1.1376343
68943280578870,-1.6908839,9.577683,-1.1520045
68943300434359,-1.7148341,9.604028999999999,-1.1496094
68943320289720,-1.6741188000000002,9.599238,-1.1376343
68943340132385,-1.6597486000000001,9.582474000000001,-1.1304493
68943359987490,-1.6453785,9.584868,-1.1376343
68943379842595,-1.6381934999999999,9.582474000000001,-1.1041040000000002
68943399697828,-1.6453785,9.580078,-1.096919
68943419552911,-1.6621436,9.570497999999999,-1.1304493
68943439407608,-1.6836988000000002,9.575289,-1.1783496
68943459262585,-1.6980689999999998,9.551338000000001,-1.1376343
68943479117690,-1.6645386000000002,9.522598,-1.0873389
68943498972795,-1.6453785,9.505833,-1.1232642
68943518827772,-1.6621436,9.481883,-1.1855347
68943538682877,-1.6693287,9.484278,-1.1807446000000001
68943558538536,-1.6813037,9.536968,-1.1280543
68943578393513,-1.6813037,9.575289,-1.1280543
68943598248490,-1.6741188000000002,9.616004,-1.1280543
68943618103467,-1.6693287,9.606423,-1.1328443000000001
68943637962662,-1.6884888,9.596844,-1.1088941
68943657817767,-1.6860938,9.592053,-1.1160791
68943677672872,-1.6621436,9.587264,-1.1448194
68943697527977,-1.6669337,9.558523,-1.1687696
68943717383082,-1.6860938,9.524992999999998,-1.1304493
68943737239961,-1.6717237,9.496253,-1.099314
68943757095066,-1.6573536,9.469908,-1.1424243
68943776950171,-1.6334034,9.472302,-1.1711646
68943796805276,-1.6429833999999999,9.510622999999999,-1.1807446000000001
68943816660509,-1.6453785,9.524992999999998,-1.099314
68943836515614,-1.6381934999999999,9.536968,-1.0657837
68943856368079,-1.6645386000000002,9.584868,-1.099314
68943876223184,-1.6645386000000002,9.635164,-1.1783496
68943896078140,-1.6621436,9.637559,-1.1903248
68943915933245,-1.6453785,9.625584,-1.096919
68943935787966,-1.6381934999999999,9.608819,-1.0298585
68943955642943,-1.6334034,9.589659,-1.0849438999999999
68943975497920,-1.6286133999999999,9.5633135,-1.1567944
68943995353025,-1.6310083999999998,9.565708,-1.1567944
68944015208002,-1.6405883999999997,9.522598,-1.0801538
68944035062979,-1.6142433,9.481883,-1.0106983
68944054924586,-1.575923,9.477093,-1.0585986
68944074779691,-1.5783178999999998,9.493857,-1.2382251
68944094634796,-1.6501685000000001,9.503438000000001,-1.2286451
68944114490029,-1.6477735,9.5633135,-1.1160791
68944134345134,-1.6501685000000001,9.608819,-1.0705738
68944154201745,-1.6645386000000002,9.616004,-1.0753639
68944174056850,-1.6573536,9.639954,-1.0825489
68944193912083,-1.6573536,9.623189,-1.101709
68944213767316,-1.6405883999999997,9.589659,-1.1328443000000001
68944233623043,-1.6046631000000002,9.570497999999999,-1.1064991000000002
68944253478148,-1.5998731000000002,9.584868,-1.1567944
68944273333381,-1.6094532,9.551338000000001,-1.1783496
68944293188614,-1.6453785,9.541758999999999,-1.1400293
68944313043847,-1.6669337,9.522598,-1.0777588
68944332898952,-1.6381934999999999,9.505833,-1.094524
68944352751279,-1.6525636000000001,9.503438000000001,-1.1639795
68944372606489,-1.6717237,9.513017999999999,-1.1567944
68944392461722,-1.6334034,9.517808,-1.1232642
68944412316827,-1.6238233,9.572892999999999,-1.1304493
68944432172060,-1.6549585999999998,9.599238,-1.1232642
68944452031163,-1.6597486000000001,9.637559,-1.1184741000000002
68944471886396,-1.6860938,9.64714,-1.1496094
68944491741757,-1.6310083999999998,9.611214,-1.1687696
68944511596990,-1.6238233,9.618399,-1.1232642
68944531462249,-1.6166383,9.596844,-1.0538087
68944551317738,-1.5998731000000002,9.541758999999999,-1.0681788
68944571173355,-1.6334034,9.532178,-1.1424243
68944591028844,-1.6525636000000001,9.515413,-1.1783496
68944610884461,-1.6525636000000001,9.469908,-1.1400293
68944630740078,-1.6118482,9.469908,-1.1424243
68944650589599,-1.6070582,9.481883,-1.1208692
68944670444960,-1.6381934999999999,9.534574000000001,-1.1184741000000002
68944690300449,-1.6741188000000002,9.5489435,-1.1615845
68944710155938,-1.6669337,9.606423,-1.1591895
68944730011427,-1.6693287,9.654325,-1.0633887
68944749866340,-1.6501685000000001,9.671089,-1.0562036
68944769721701,-1.6381934999999999,9.625584,-1.1184741000000002
68944789577190,-1.6573536,9.601633999999999,-1.1567944
68944809432551,-1.6501685000000001,9.558523,-1.1328443000000001
68944829288040,-1.6357985000000002,9.551338000000001,-1.101709
68944849143381,-1.6429833999999999,9.536968,-1.0849438999999999
68944869001582,-1.6477735,9.539363,-1.1520045
68944888857071,-1.6645386000000002,9.498648,-1.1376343
68944908712560,-1.6645386000000002,9.462723,-1.1352394
68944928568049,-1.6477735,9.462723,-1.1328443000000001
68944948410140,-1.6310083999999998,9.481883,-1.1520045
68944968265245,-1.6238233,9.508227999999999,-1.1400293
68944988120350,-1.6357985000000002,9.580078,-1.1400293
68945007975455,-1.6597486000000001,9.630374,-1.1567944
68945027830560,-1.6501685000000001,9.627979,-1.1400293
68945047686091,-1.6573536,9.632769,-1.1112891000000003
68945067541324,-1.6118482,9.630374,-1.0825489
68945087396429,-1.6046631000000002,9.635164,-1.1328443000000001
68945107251534,-1.6310083999999998,9.630374,-1.1376343
68945127106639,-1.6334034,9.582474000000001,-1.1472143999999997
68945146961872,-1.6597486000000001,9.510622999999999,-1.1256591999999999
68945166809797,-1.6501685000000001,9.493857,-1.089734
68945186664774,-1.6142433,9.453142,-1.1687696
68945206519751,-1.6022681,9.469908,-1.2406201000000001
68945226374728,-1.6381934999999999,9.501043,-1.1927198
68945246226547,-1.6717237,9.529783,-1.1184741000000002
68945266081524,-1.6765138,9.536968,-1.101709
68945285936501,-1.6429833999999999,9.568104,-1.1328443000000001
68945305791478,-1.6190332,9.604028999999999,-1.1735597
68945325646307,-1.6381934999999999,9.632769,-1.2022998
68945345502850,-1.6813037,9.651928999999999,-1.1400293
68945365357827,-1.6549585999999998,9.64714,-1.0562036
68945385212804,-1.6286133999999999,9.599238,-1.0514137
68945405067781,-1.6094532,9.551338000000001,-1.1472143999999997
68945424922758,-1.6142433,9.534574000000001,-1.22625
68945444777735,-1.6405883999999997,9.503438000000001,-1.2046948999999998
68945464627830,-1.6549585999999998,9.508227999999999,-1.1136841999999998
68945484482551,-1.6549585999999998,9.544153,-1.0729688
68945504337400,-1.6381934999999999,9.5633135,-1.1328443000000001
68945524192249,-1.6046631000000002,9.5489435,-1.1448194
68945544053456,-1.5974781999999998,9.5489435,-1.1328443000000001
68945563908305,-1.5998731000000002,9.587264,-1.1448194
68945583763282,-1.6190332,9.592053,-1.1256591999999999
68945603618259,-1.6525636000000001,9.5633135,-1.1088941
68945623473108,-1.6094532,9.5561285,-1.1376343
68945643328085,-1.585503,9.560919,-1.1472143999999997
68945663187764,-1.6262183000000001,9.589659,-1.0657837
68945683042869,-1.6525636000000001,9.599238,-1.0298585
68945702897846,-1.6357985000000002,9.587264,-1.1256591999999999
68945722752951,-1.6286133999999999,9.546548,-1.1663746000000002
68945742608056,-1.6286133999999999,9.524992999999998,-1.1352394
68945762463717,-1.6214283,9.524992999999998,-1.094524
68945782318822,-1.6238233,9.520203,-1.0681788
68945802173778,-1.6453785,9.527389,-1.1041040000000002
68945822028883,-1.6525636000000001,9.553733,-1.1520045
68945841886658,-1.6597486000000001,9.577683,-1.1711646
68945861741763,-1.6429833999999999,9.592053,-1.094524
68945881596868,-1.6405883999999997,9.546548,-1.0322535
68945901451973,-1.6214283,9.508227999999999,-1.1112891000000003
68945921307206,-1.6262183000000001,9.498648,-1.2070899
68945941162311,-1.6453785,9.539363,-1.1591895
68945961015660,-1.6381934999999999,9.587264,-1.0514137
68945980870637,-1.6262183000000001,9.632769,-1.0609937
68946000725614,-1.5663428,9.6758795,-1.1663746000000002
68946020580719,-1.575923,9.637559,-1.1807446000000001
68946040435696,-1.6166383,9.594449000000001,-1.1735597
68946060292257,-1.6621436,9.584868,-1.0609937
68946080147362,-1.6549585999999998,9.584868,-1.0609937
68946100002467,-1.5998731000000002,9.568104,-1.22146
68946119857444,-1.6501685000000001,9.587264,-1.2334352
68946139718553,-1.6645386000000002,9.544153,-1.1927198
68946159573786,-1.6549585999999998,9.522598,-1.1041040000000002
68946179429019,-1.6310083999999998,9.477093,-1.0585986
68946199284252,-1.5998731000000002,9.433982,-1.0801538
68946219139485,-1.5663428,9.472302,-1.1735597
68946238994846,-1.5950831,9.544153,-1.1663746000000002
68946258851781,-1.6453785,9.570497999999999,-1.1831397
68946278706992,-1.6645386000000002,9.594449000000001,-1.1520045
68946298562225,-1.6597486000000001,9.613608000000001,-1.0370435
68946318417586,-1.6453785,9.620794,-1.0226734
68946338272819,-1.6286133999999999,9.601633999999999,-1.1615845
68946358132540,-1.6381934999999999,9.606423,-1.2286451
68946377987901,-1.6334034,9.587264,-1.1711646
68946397843262,-1.6238233,9.580078,-1.1208692
68946417698751,-1.6381934999999999,9.580078,-1.096919
68946437554112,-1.6405883999999997,9.539363,-1.1304493
68946457409473,-1.6286133999999999,9.536968,-1.1807446000000001
68946477267784,-1.5974781999999998,9.536968,-1.2022998
68946497123273,-1.587898,9.534574000000001,-1.1711646
68946516978890,-1.6166383,9.522598,-1.101709
68946536834379,-1.6310083999999998,9.539363,-1.1088941
68946556691186,-1.6525636000000001,9.565708,-1.1520045
68946576546675,-1.6142433,9.5633135,-1.1472143999999997
68946596402164,-1.6022681,9.575289,-1.1232642
68946616257781,-1.6046631000000002,9.616004,-1.1376343
68946636113270,-1.5974781999999998,9.584868,-1.1783496
68946655965357,-1.590293,9.558523,-1.1520045
68946675820846,-1.6094532,9.565708,-1.1304493
68946695676335,-1.6070582,9.572892999999999,-1.1424243
68946715531824,-1.6022681,9.584868,-1.1807446000000001
68946735387441,-1.6262183000000001,9.572892999999999,-1.1687696
68946755242908,-1.5926881000000002,9.546548,-1.1376343
68946775093515,-1.5783178999999998,9.577683,-1.1687696
68946794948876,-1.5807129,9.584868,-1.1400293
68946814804365,-1.6070582,9.599238,-1.1424243
68946834659726,-1.6238233,9.584868,-1.1591895
68946854508717,-1.6286133999999999,9.577683,-1.1711646
68946874363950,-1.5974781999999998,9.565708,-1.1567944
68946894219183,-1.5998731000000002,9.536968,-1.1687696
68946914074416,-1.6334034,9.553733,-1.1663746000000002
68946933929649,-1.6573536,9.565708,-1.1543995
68946953776610,-1.6453785,9.575289,-1.1759547
68946973631715,-1.6381934999999999,9.577683,-1.1783496
68946993486692,-1.6453785,9.580078,-1.1711646
68947013341797,-1.6334034,9.546548,-1.1184741000000002
68947033196902,-1.6214283,9.539363,-1.1328443000000001
68947053051879,-1.6525636000000001,9.529783,-1.1687696
68947072902992,-1.6334034,9.539363,-1.1783496
68947092757841,-1.6453785,9.546548,-1.1591895
68947112612818,-1.6238233,9.536968,-1.1472143999999997
68947132467667,-1.6286133999999999,9.505833,-1.1591895
68947152323510,-1.6262183000000001,9.536968,-1.1831397
68947172178487,-1.6597486000000001,9.5561285,-1.1711646
68947192033464,-1.6669337,9.596844,-1.1543995
68947211888441,-1.6214283,9.599238,-1.1735597
68947231743397,-1.6477735,9.649534,-1.1759547
68947251598374,-1.6741188000000002,9.642349000000001,-1.1591895
68947271455427,-1.6693287,9.604028999999999,-1.1735597
68947291310404,-1.6262183000000001,9.5489435,-1.1472143999999997
68947311165381,-1.6094532,9.493857,-1.1448194
68947331020358,-1.6190332,9.508227999999999,-1.1879296999999998
68947350875335,-1.6405883999999997,9.520203,-1.1663746000000002
68947370730994,-1.6429833999999999,9.527389,-1.1256591999999999
68947390585971,-1.6262183000000001,9.558523,-1.1424243
68947410440948,-1.6334034,9.565708,-1.1352394
68947430295925,-1.6286133999999999,9.536968,-1.1615845
68947450154218,-1.6118482,9.568104,-1.1759547
68947470009323,-1.6597486000000001,9.570497999999999,-1.1256591999999999
68947489864300,-1.6836988000000002,9.580078,-1.101709
68947509719405,-1.6669337,9.570497999999999,-1.1352394
68947529574382,-1.6357985000000002,9.570497999999999,-1.1951148999999999
68947549429487,-1.6190332,9.558523,-1.1879296999999998
68947569291352,-1.6501685000000001,9.560919,-1.1663746000000002
68947589146457,-1.6645386000000002,9.5561285,-1.1232642
68947609001690,-1.6645386000000002,9.572892999999999,-1.1112891000000003
68947628856795,-1.6453785,9.570497999999999,-1.1663746000000002
68947648712028,-1.6597486000000001,9.539363,-1.2094848999999999
68947668565383,-1.6621436,9.515413,-1.1663746000000002
68947688420488,-1.6621436,9.501043,-1.1448194
68947708275572,-1.6573536,9.474698,-1.1280543
68947728130677,-1.6477735,9.541758999999999,-1.1567944
68947747984418,-1.6453785,9.584868,-1.1759547
68947767839395,-1.6453785,9.623189,-1.1735597
68947787694500,-1.6573536,9.666299,-1.1400293
68947807549605,-1.6717237,9.656719,-1.1280543
68947827404710,-1.6693287,9.589659,-1.1711646
68947847259815,-1.6381934999999999,9.553733,-1.1496094
68947867114512,-1.5998731000000002,9.481883,-1.1424243
68947886969617,-1.590293,9.501043,-1.1567944
68947906824722,-1.6286133999999999,9.515413,-1.1496094
68947926679827,-1.6501685000000001,9.527389,-1.1759547
68947946534932,-1.6645386000000002,9.587264,-1.1567944
68947966392935,-1.6789087,9.580078,-1.096919
68947986248168,-1.6357985000000002,9.551338000000001,-1.1088941
68948006103401,-1.6046631000000002,9.551338000000001,-1.1376343
68948025958506,-1.6262183000000001,9.587264,-1.1639795
68948045813739,-1.6860938,9.596844,-1.1352394
68948065668844,-1.6645386000000002,9.599238,-1.1520045
68948085520651,-1.6501685000000001,9.601633999999999,-1.1256591999999999
68948105375756,-1.6334034,9.601633999999999,-1.101709
68948125230861,-1.6405883999999997,9.553733,-1.0849438999999999
68948145085966,-1.6645386000000002,9.517808,-1.1352394
68948164942139,-1.6717237,9.501043,-1.1184741000000002
68948184797348,-1.6453785,9.517808,-1.1280543
68948204652581,-1.6381934999999999,9.541758999999999,-1.1567944
68948224507814,-1.6405883999999997,9.580078,-1.1352394
68948244363047,-1.6717237,9.570497999999999,-1.101709
68948264225990,-1.6693287,9.575289,-1.1064991000000002
68948284081351,-1.6453785,9.560919,-1.1448194
68948303936584,-1.6357985000000002,9.580078,-1.1520045
68948323791945,-1.6357985000000002,9.577683,-1.1208692
68948343647306,-1.6429833999999999,9.575289,-1.1136841999999998
68948363502667,-1.6501685000000001,9.577683,-1.1160791
68948383356540,-1.6717237,9.558523,-1.1232642
68948403211901,-1.6477735,9.522598,-1.1304493
68948423067262,-1.6118482,9.505833,-1.1112891000000003
68948442922623,-1.585503,9.503438000000001,-1.1112891000000003
68948462783842,-1.6214283,9.551338000000001,-1.0921290000000001
68948482639331,-1.6693287,9.596844,-1.0633887
68948502494820,-1.6573536,9.611214,-1.1136841999999998
68948522350181,-1.6262183000000001,9.584868,-1.1520045
68948542205670,-1.6262183000000001,9.534574000000001,-1.1208692
68948562059721,-1.6190332,9.481883,-1.1232642
68948581915082,-1.6381934999999999,9.424402,-1.1232642
68948601770443,-1.6693287,9.477093,-1.101709
68948621625804,-1.6836988000000002,9.582474000000001,-1.0801538
68948641481165,-1.6549585999999998,9.673484,-1.1543995
68948661336505,-1.6190332,9.718989,-1.1807446000000001
68948681192738,-1.6214283,9.704619000000001,-1.1543995
68948701048099,-1.6357985000000002,9.666299,-1.1136841999999998
68948720903460,-1.6549585999999998,9.601633999999999,-1.0681788
68948740758821,-1.6525636000000001,9.536968,-1.094524
68948760616132,-1.6190332,9.481883,-1.1759547
68948780471621,-1.6262183000000001,9.498648,-1.1567944
68948800326982,-1.6477735,9.534574000000001,-1.1400293
68948820182343,-1.6501685000000001,9.517808,-1.1400293
68948840037832,-1.6262183000000001,9.515413,-1.1424243
68948859893193,-1.6046631000000002,9.522598,-1.1591895
68948879747650,-1.6238233,9.527389,-1.1352394
68948899603011,-1.6525636000000001,9.501043,-1.0753639
68948919458500,-1.6693287,9.517808,-1.0681788
68948939313861,-1.6334034,9.541758999999999,-1.1663746000000002
68948959169222,-1.6310083999999998,9.580078,-1.1855347
68948979016049,-1.6286133999999999,9.584868,-1.1496094
68948998871282,-1.6070582,9.589659,-1.1376343
68949018726515,-1.6573536,9.625584,-1.1567944
68949038581748,-1.6860938,9.623189,-1.0705738
68949058426583,-1.6429833999999999,9.632769,-1.0514137
68949078281688,-1.6094532,9.587264,-1.1567944
68949098136665,-1.6405883999999997,9.551338000000001,-1.2478052
68949117991770,-1.6645386000000002,9.541758999999999,-1.1520045
68949137846853,-1.6166383,9.524992999999998,-1.1136841999999998
68949157701830,-1.6453785,9.481883,-1.1136841999999998
68949177556081,-1.6980689999999998,9.522598,-1.1496094
68949197411186,-1.6813037,9.541758999999999,-1.2118799999999998
68949217266291,-1.6429833999999999,9.570497999999999,-1.22625
68949237121396,-1.6214283,9.592053,-1.1352394
68949256976501,-1.6357985000000002,9.611214,-1.1184741000000002
68949276836496,-1.6597486000000001,9.577683,-1.1280543
68949296691601,-1.6549585999999998,9.551338000000001,-1.1256591999999999
68949316546834,-1.6310083999999998,9.551338000000001,-1.1376343
68949336401939,-1.6238233,9.532178,-1.1591895
68949356249724,-1.6621436,9.541758999999999,-1.1975098
68949376104829,-1.6573536,9.560919,-1.1879296999999998
68949395959806,-1.6597486000000001,9.5561285,-1.1591895
68949415814783,-1.6645386000000002,9.565708,-1.1591895
68949435669760,-1.6549585999999998,9.560919,-1.1520045
68949455524737,-1.6238233,9.534574000000001,-1.1615845
68949475378592,-1.6549585999999998,9.541758999999999,-1.1759547
68949495233569,-1.6860938,9.532178,-1.1424243
68949515088546,-1.6717237,9.541758999999999,-1.1591895
68949534943395,-1.6597486000000001,9.541758999999999,-1.1855347
68949554798372,-1.6142433,9.5633135,-1.2046948999999998
68949574650047,-1.6357985000000002,9.560919,-1.1711646
68949594504896,-1.6573536,9.568104,-1.1208692
68949614359724,-1.6741188000000002,9.558523,-1.1088941
68949634214573,-1.6501685000000001,9.560919,-1.1783496
68949654069550,-1.6549585999999998,9.539363,-1.1903248
68949673924399,-1.6597486000000001,9.551338000000001,-1.1927198
68949693776536,-1.6525636000000001,9.560919,-1.1735597
68949713631385,-1.6813037,9.620794,-1.1663746000000002
68949733486106,-1.6813037,9.616004,-1.1639795
68949753340827,-1.6765138,9.599238,-1.219065
68949773194694,-1.6621436,9.580078,-1.214275
68949793049415,-1.6429833999999999,9.508227999999999,-1.1376343
68949812904008,-1.6549585999999998,9.477093,-1.1304493
68949832758601,-1.6884888,9.477093,-1.1639795
68949852613322,-1.6908839,9.467513,-1.1783496
68949872474291,-1.6549585999999998,9.513017999999999,-1.1831397
68949892329012,-1.6477735,9.553733,-1.2094848999999999
68949912183861,-1.6262183000000001,9.565708,-1.22146
68949932038710,-1.6597486000000001,9.601633999999999,-1.1975098
68949951893431,-1.6813037,9.601633999999999,-1.1376343
68949971748280,-1.6956740000000001,9.611214,-1.1280543
68949991611041,-1.6741188000000002,9.608819,-1.1807446000000001
68950011465890,-1.6525636000000001,9.613608000000001,-1.1999048
68950031320867,-1.6405883999999997,9.594449000000001,-1.1591895
68950051175716,-1.6214283,9.582474000000001,-1.1735597
68950071034711,-1.6405883999999997,9.5489435,-1.1759547
68950090889793,-1.6645386000000002,9.510622999999999,-1.2070899
68950110744770,-1.6693287,9.484278,-1.1735597
68950130599875,-1.6262183000000001,9.498648,-1.1472143999999997
68950150454852,-1.6190332,9.510622999999999,-1.1304493
68950170312059,-1.6310083999999998,9.5561285,-1.1472143999999997
68950190167164,-1.6908839,9.541758999999999,-1.1687696
68950210022269,-1.6669337,9.558523,-1.1520045
68950229877374,-1.6549585999999998,9.592053,-1.1112891000000003
68950249732479,-1.6262183000000001,9.592053,-1.1328443000000001
68950269587584,-1.6118482,9.594449000000001,-1.1543995
68950289446955,-1.6597486000000001,9.587264,-1.1639795
68950309302188,-1.6789087,9.584868,-1.1400293
68950329157421,-1.6453785,9.611214,-1.1496094
68950349012654,-1.6118482,9.618399,-1.1759547
68950368875829,-1.6286133999999999,9.594449000000001,-1.2094848999999999
68950388731318,-1.6836988000000002,9.582474000000001,-1.2094848999999999
68950408586807,-1.7124390999999999,9.577683,-1.1184741000000002
68950428442296,-1.6789087,9.572892999999999,-1.1064991000000002
68950448297657,-1.6381934999999999,9.539363,-1.1304493
68950468153146,-1.6166383,9.474698,-1.1855347
68950488012571,-1.6310083999999998,9.412427000000001,-1.1999048
68950507868188,-1.6166383,9.352551,-1.1639795
68950527723805,-1.6310083999999998,9.3309965,-1.1280543
68950547579422,-1.6525636000000001,9.429193,-1.1256591999999999
68950567435018,-1.6741188000000002,9.503438000000001,-1.1735597
68950587288685,-1.6310083999999998,9.582474000000001,-1.22146
68950607144302,-1.6405883999999997,9.733359,-1.1735597
68950626999919,-1.6549585999999998,9.78605,-1.0825489
68950646855408,-1.6765138,9.72378,-1.094524
68950666709667,-1.6884888,9.671089,-1.1496094
68950686565284,-1.6597486000000001,9.575289,-1.1735597
68950706420773,-1.6166383,9.551338000000001,-1.1496094
68950726276262,-1.6597486000000001,9.584868,-1.1424243
68950746131751,-1.6908839,9.570497999999999,-1.1615845
68950765987240,-1.6429833999999999,9.532178,-1.2118799999999998
68950785844881,-1.5950831,9.524992999999998,-1.1735597
68950805700498,-1.5974781999999998,9.481883,-1.1112891000000003
68950825555987,-1.6190332,9.433982,-1.1352394
68950845411476,-1.6573536,9.448353,-1.1567944
68950865267093,-1.6597486000000001,9.481883,-1.0921290000000001
68950885131706,-1.6286133999999999,9.534574000000001,-1.1256591999999999
