UPTIMENANO,Ax,Ay,Az
68920942918704,0.037356917,-0.48111567,9.778647
68920962774576,0.28492373,-0.4768272,10.299362
68920982630577,0.29819134,-0.35533318,10.185227
68921002486576,-0.1393499,-0.23442212,9.57218
68921022342576,-0.33686534,-0.12896481,9.50616
68921042198449,-0.14024147,-0.31050816,9.882227
68921062062250,0.078726396,-0.45677397,9.851912
68921081918378,0.014385825,-0.3247161,9.652763
68921101774507,0.027816687,-0.2510212,9.768958
68921121630634,0.16100192,-0.41064882,10.017246
68921141483432,0.078371875,-0.32220212,9.877978
68921161339433,-0.010005893,-0.18394479,9.802852
68921181195560,0.12896664,-0.24775031,9.835627
68921201051560,0.088715225,-0.25869554,9.720327
68921220907561,-0.012226503,-0.4442328,9.58949
68921240761902,0.23225954,-0.6493555,9.866487
68921260617902,0.10923574,-0.22833407,9.882938
68921280473903,-0.36178425,-0.03562787,9.850245
68921300329774,0.9540019,-0.4892115,10.3313265
68921320185774,0.7624874,-1.1679629,10.390222
68921340041775,-0.3891436,0.96221274,10.040878
68921359894239,-0.37462443,0.7611361,11.824629
68921379750111,-1.2359389,1.3105649,10.515433
68921399606112,-0.07009966,1.265087,9.263823
68921419461983,1.3693267,0.5357895,9.85301
68921439319586,0.38440484,-0.3884189,10.420945
68921459175459,0.28369325,-0.5316259,9.398021
68921479031330,0.19271176,0.4824795,7.7224126
68921498887202,-0.9920678,-2.6026657,8.679759
68921518743075,-0.4779671,-3.5963588,9.181949
68921538598946,-0.17647824,0.35420272,8.05142
68921558459339,-0.61429423,0.8069552,8.289172
68921578315340,0.121157885,0.98879087,9.142561
68921598171339,0.28207764,0.68462515,9.508397
68921618027211,0.25318837,-1.1216916,9.584011
68921637883212,0.39856127,-2.0962842,10.291438
68921657737596,-0.045461427,0.3395189,9.8727665
68921677593468,-0.5953992,0.51918703,8.881821
68921697449469,0.9310305,-0.62920314,11.616289
68921717305468,1.2647233,0.607664,12.033776
68921737164936,0.4047994,-0.40647462,10.103927
68921757020937,-0.40247396,-0.8197512,10.262548
68921776876936,-1.2955673,0.80111927,10.004198
68921796732936,-1.2937609,0.7794876,9.380813
68921816588937,-0.43299744,-0.7852519,9.101703
68921836444808,0.4752297,-1.3293802,9.358861
68921856302844,1.4967581,-0.85678506,10.966245
68921876158845,1.5208967,-0.46920633,10.670807
68921896014844,0.61428416,0.09585277,9.645202
68921915870972,-0.5965957,1.3327854,8.859685
68921935726973,-1.155259,2.6723132,8.775203
68921955587241,-1.0173209,3.4432008,8.157647
68921975443369,-0.5661947,1.7131317,7.6861067
68921995299498,1.3439982,-0.521246,6.1860867
68922015155625,0.09927872,0.7297665,4.6821527
68922035016356,0.43818724,0.5697627,6.0307255
68922054872613,1.072869,0.1805028,6.737204
68922074728996,0.9763807,-0.12819642,7.556436
68922094585252,0.9960447,-0.5984215,8.434175
68922114441509,2.2157607,-0.940189,8.333866
68922134297764,2.576238,-0.24057767,8.554887
68922154153508,2.5981305,0.8894596,10.373953
68922174009765,2.240164,1.8742942,12.239193
68922193866148,0.883185,2.566807,13.38333
68922213722404,0.67100894,1.9476011,13.433434
68922233578789,1.9119092,1.0342805,12.46081
68922253440761,1.0936809,1.4326637,11.1469555
68922273297273,0.24480544,1.7918881,10.081179
68922293153658,0.43311977,0.85138434,9.6688795
68922313010169,1.3319266,-0.25710103,9.823859
68922332862079,0.97631663,-0.6431143,9.743891
68922352718464,1.6530927,-2.0747144,3.7933981
68922372574719,3.0247517,-7.814172,-1.0218866
68922392431103,-1.1038468,2.7712755,10.424216
68922412287360,-2.0200121,6.8436055,9.58296
68922432143615,-2.413472,1.9638433,6.153462
68922451998079,-5.736998,2.9663377,4.0217156
68922471854336,-4.6458263,4.3177443,5.5231442
68922491710719,-3.9289,3.9105313,6.529524
68922511566975,-4.789823,3.2534099,4.0146728
68922531423232,-6.059564,4.169153,4.471831
68922551273093,-5.944884,6.922095,8.827263
68922571129221,0.038990967,10.343922,12.372914
68922590985350,-1.0086962,9.87888,11.718588
68922610841477,2.7219026,8.832527,15.129483
68922630697477,4.94702,2.443465,19.990892
68922650553606,2.2190588,1.6829239,19.7722
68922670408002,3.3486028,-3.5687819,19.313515
68922690264130,6.1611958,-7.997434,19.730286
68922710120259,6.0436516,-7.562264,19.170307
68922729976386,-2.827999,-7.310247,14.668008
68922749831947,-4.555603,-5.197713,14.878453
68922769688075,-2.7885103,-4.9468536,15.1469965
68922789544075,-2.7311044,-5.1197653,11.685109
68922809400203,-8.759983,-2.8032038,7.8117666
68922829256331,-0.3035001,-5.3927193,6.759515
68922849107429,5.849198,4.476316,5.9867077
68922868963557,8.146566,4.1470056,2.776754
68922888819557,7.6744375,1.6674267,1.7055621
68922908675557,2.6819513,2.9401543,2.4461296
68922928531557,1.5187591,4.366699,1.1383117
68922948382120,3.144349,5.384371,2.9305403
68922968237992,0.116553314,5.1855745,6.093927
68922988093864,1.5716683,4.3204064,7.7152305
68923007949736,-0.30361083,2.4139788,9.146836
68923027805608,-2.999404,3.7507005,11.332919
68923047666283,-2.3857706,5.2929406,17.3954
68923067522155,-1.3874006,6.367309,21.397167
68923087378155,-2.827978,7.235175,16.470741
68923107234155,-3.1620579,2.1969726,13.434094
68923127090027,4.7596498,-5.721365,14.268866
68923146932007,3.7669141,5.2348495,11.362992
68923166787623,-1.6727318,3.441704,7.4855604
68923186643367,-3.1767435,-3.227665,5.345806
68923206498983,-0.2829557,0.8850396,2.9657543
68923226354727,-0.25787213,0.41153392,4.2265625
68923246210343,6.828924,-1.720108,2.7623026
68923266069994,5.803136,-0.5194553,3.5597825
68923285925738,2.7092156,1.3587557,3.4234445
68923305781354,-0.06735749,2.905742,5.452787
68923325636970,-1.3698078,-3.0072892,7.9992228
68923345492714,-1.3843913,2.0082908,8.398308
68923365337864,-3.9644737,3.8254511,6.825658
68923385193352,0.78675693,1.9121453,10.19779
68923405048840,2.092799,2.8411334,10.268929
68923424904328,-0.42016566,4.923308,14.007531
68923444759816,-1.7723514,15.91169,32.058582
68923464619796,-4.406465,-1.37534,20.396957
68923484475284,3.5936844,-3.893331,9.686647
68923504330772,1.1708188,-0.7731879,12.512124
68923524186388,0.38501436,-0.66093224,10.243628
68923544041876,3.58259,-1.6406034,9.742045
68923563905175,4.6758037,-1.5717863,10.213978
68923583760791,5.7912636,-3.7742147,9.998558
68923603616535,4.088484,-3.653806,7.1092777
68923623472151,0.89234084,-1.2459469,3.4676013
68923643327895,-0.6331672,0.223007,1.4192495
68923663179927,-0.73355895,0.63627726,3.4792016
68923683035543,1.0378963,-0.26909566,10.6526575
68923702891159,-5.081425,9.074181,19.47251
68923722746775,-5.3205338,18.377195,19.977089
68923742602391,3.0193024,0.12672083,5.359486
68923762457294,0.49023286,-1.9389868,7.643744
68923782312782,0.41823322,-0.7239651,10.8074465
68923802168398,2.390543,-0.91038287,9.858668
68923822023886,1.4183636,0.026831616,9.226501
68923841879502,-1.3069133,0.6097195,9.1487
68923861739263,0.68106633,0.3654123,8.918144
68923881595007,0.7278992,0.67853826,10.050145
68923901450751,-0.13922133,0.55712324,10.016135
68923921306367,-0.08280482,0.45782295,9.860231
68923941162111,-0.7310439,-3.0944076,10.0644865
68923961023633,-0.17421065,-5.31068,10.391025
68923980879505,0.6532269,-0.17577456,9.86348
68924000735249,1.0049506,1.8362457,9.739944
68924020591121,0.30279103,1.4919109,9.728435
68924040446865,0.11052275,0.6809766,9.425996
68924060307845,0.055394895,-0.13366935,9.731159
68924080163845,-0.22799057,-0.46121484,9.621878
68924100019717,0.5330734,-0.7025948,9.830033
68924119875717,0.62629735,-0.43823427,10.276476
68924139731589,0.4333901,0.465913,10.143392
68924159587090,0.4471842,0.13861232,9.788851
68924179442962,0.32659397,-0.7549463,9.605164
68924199298962,0.46378452,-0.40954927,9.655365
68924219154834,0.6205061,0.10547835,9.785889
68924239010834,0.59466285,0.013344323,9.744989
68924258874846,0.5232105,-0.21142565,9.815035
68924278730974,0.44659704,-0.19051325,9.830421
68924298586974,0.48802325,-0.066820025,9.659432
68924318443102,0.4851329,-0.02344145,9.597316
68924338299230,0.4926942,-0.008097352,9.57035
68924358157673,0.5658728,0.047839686,9.746782
68924378013801,0.6556826,-0.018503793,9.78577
68924397870057,0.6706196,-0.2024754,9.745128
68924417726185,0.6886603,-0.26560038,9.665533
68924437582313,0.6293888,-0.19316871,9.57573
68924457440397,0.40652725,-0.022933928,9.850481
68924477296653,0.38782305,0.0035714693,10.237594
68924497152781,0.35449624,-0.29358387,9.6657095
68924517009037,0.450362,-0.18231535,9.546036
68924536865293,0.6764256,0.05749835,9.637231
68924556731307,0.757072,0.07760871,9.601648
68924576587691,0.5826631,-0.01738046,9.70897
68924596444075,0.6099087,-0.15414639,9.975789
68924616300587,0.7813011,-0.19894664,9.919345
68924636156971,0.7440516,-0.17830235,9.796017
68924656016488,0.51840615,-0.176735,9.719645
68924675873128,0.3377512,-0.18475702,9.674525
68924695729640,0.24703333,-0.15801458,9.691294
68924715586280,0.23295741,-0.14109784,9.693546
68924735442792,0.36730787,-0.1980826,9.646236
68924755291973,0.57836306,-0.14148766,9.642031
68924775148357,0.67763793,-0.19477291,9.738117
68924795004741,0.7086697,-0.1803264,9.708432
68924814861125,0.664013,-0.088381514,9.70749
68924834717509,0.48088983,-0.20133963,9.768029
68924854579372,0.4068009,-0.1953229,9.7633705
68924874435884,0.40374994,-0.14565742,9.788172
68924894292524,0.3642442,-0.15364681,9.811177
68924914149036,0.32408312,-0.17784408,9.741653
68924934005676,0.3166988,-0.14031672,9.724603
68924953850028,0.3390089,-0.11846816,9.738545
68924973706284,0.35783657,-0.13258673,9.73929
68924993562540,0.36843258,-0.096324645,9.741836
68925013418796,0.3129315,-0.16330019,9.770851
68925033275052,0.24754523,-0.21164799,9.774557
68925053132917,0.26416317,-0.19006792,9.750157
68925072989301,0.32525337,-0.18283688,9.749299
68925092845557,0.33501735,-0.20418322,9.762393
68925112701941,0.31156865,-0.22158113,9.774133
68925132558197,0.3182569,-0.17403178,9.744722
68925152411527,0.333862,-0.12652273,9.728742
68925172267783,0.3993096,-0.109282844,9.726022
68925192124167,0.44200957,-0.1793183,9.737093
68925211980423,0.45160344,-0.2495858,9.757218
68925231836807,0.4070995,-0.13249573,9.756745
68925251682963,0.38139445,-0.051521704,9.74566
68925271538963,0.33632547,-0.0959497,9.775353
68925291395091,0.31958845,-0.1700729,9.763282
68925311251091,0.38199407,-0.18557845,9.737966
68925331107220,0.49171123,-0.13500154,9.709989
68925350958491,0.494511,-0.012977619,9.67605
68925370814361,0.43755746,0.08043767,9.718883
68925390670361,0.407877,-0.027459119,9.745429
68925410526361,0.4293102,-0.1779233,9.7414255
68925430382233,0.4667254,-0.24650976,9.76287
68925450235684,0.48577031,-0.23254034,9.753832
68925470091428,0.47921506,-0.11298298,9.754867
68925489947300,0.4600968,-0.02132728,9.738731
68925509803172,0.461513,-0.07636068,9.734548
68925529658916,0.4809761,-0.1841326,9.750494
68925549517817,0.48649523,-0.21419002,9.762619
68925569373689,0.4435448,-0.18723698,9.738678
68925589226894,0.42599925,-0.12515582,9.737094
68925609082766,0.4543057,-0.06945048,9.735556
68925628938638,0.4405598,-0.14418153,9.724301
68925648794639,0.4005019,-0.19844969,9.714474
68925668650512,0.41228732,-0.13715298,9.738275
68925688506382,0.46416575,-0.045264058,9.745015
68925708362254,0.48131588,-0.07624751,9.745188
68925728218126,0.4713699,-0.119348675,9.754536
68925748071060,0.4492499,-0.15349911,9.75273
68925767926932,0.45407644,-0.13904849,9.765827
68925787774353,0.432172,-0.079795964,9.735695
68925807630098,0.43268377,-0.06437309,9.727577
68925827485843,0.4333349,-0.063706405,9.742313
68925847342892,0.43025047,-0.13509229,9.73439
68925867198637,0.4360164,-0.15509652,9.7603445
68925887054510,0.4624594,-0.13835338,9.759197
68925906910255,0.45526507,-0.07823008,9.740832
68925926766128,0.4103157,-0.05813693,9.738017
68925946624073,0.39232197,-0.0537254,9.722651
68925966479946,0.41404483,-0.06845536,9.743379
68925986335691,0.44077694,-0.14789338,9.760197
68926006191436,0.431974,-0.18902127,9.762058
68926026047309,0.41931084,-0.12820067,9.717822
68926045903054,0.39313895,-0.07093339,9.72534
68926065764015,0.39429253,-0.083870485,9.753125
68926085619888,0.43538928,-0.10553727,9.749175
68926105475761,0.4638959,-0.10159865,9.733723
68926125331634,0.43903568,-0.06181925,9.746258
68926145187507,0.3849217,-0.0895034,9.719925
68926165049432,0.37158072,-0.11642888,9.724458
68926184905561,0.37928593,-0.11328186,9.73799
68926204761562,0.4195983,-0.12868626,9.742356
68926224617691,0.4274518,-0.11126875,9.757572
68926244473692,0.3979723,-0.09894563,9.757927
68926264337830,0.39937523,-0.09359562,9.753341
68926284194087,0.39067996,-0.09618355,9.735156
68926304050344,0.37534142,-0.08984546,9.74411
68926323906601,0.38474607,-0.052807588,9.756424
68926343762730,0.3819502,-0.08232875,9.741143
68926363616863,0.37913698,-0.07970465,9.739592
68926383473120,0.39300546,-0.06400443,9.74839
68926403329377,0.38029182,-0.05029108,9.735485
68926423185634,0.36923483,-0.06311827,9.763415
68926443041891,0.38961217,-0.091765426,9.800016
68926462897068,0.41627833,-0.10146433,9.798109
68926482753453,0.3918251,-0.047948956,9.755502
68926502609710,0.37574852,-0.076109245,9.68897
68926522465967,0.41282746,-0.12932232,9.687015
68926542322224,0.44809702,-0.11142351,9.716179
68926562180351,0.46717867,-0.059033025,9.740605
68926582036608,0.45447874,-0.066470675,9.784326
68926601892993,0.4506756,-0.06328748,9.778121
68926621749250,0.43296227,-0.09388535,9.773281
68926641605507,0.3992517,-0.10548768,9.751938
68926661462800,0.42680988,-0.08290913,9.72167
68926681319185,0.45482793,0.0036804064,9.721184
68926701175570,0.41128787,-0.02655099,9.756398
68926721031955,0.3758859,-0.0853683,9.746999
68926740888319,0.38659513,-0.10034164,9.750318
68926760749292,0.42966285,-0.06195515,9.748235
68926780605677,0.448944,0.0039656237,9.739729
68926800462190,0.42177534,0.0272682,9.728585
68926820318575,0.3729326,-0.02014068,9.725881
68926840175088,0.3835585,-0.07127544,9.749525
68926860032991,0.39318633,-0.060679663,9.761079
68926879889376,0.4029792,-0.020110859,9.763872
68926899745889,0.39519975,-0.030393241,9.749497
68926919602274,0.41447404,0.001003851,9.726982
68926939458787,0.41203818,0.073827356,9.743649
68926959305004,0.42536312,0.03720285,9.746274
68926979161261,0.3907209,-0.030255027,9.728277
68926999017518,0.3712572,-0.003805427,9.730665
68927018873647,0.3843821,0.08408571,9.740903
68927038729904,0.34168503,0.08137529,9.747192
68927058578925,0.3226508,0.039238535,9.758507
68927078435054,0.39534903,0.02622779,9.719287
68927098291183,0.44821835,0.044011265,9.727437
68927118147312,0.41632017,0.006814624,9.759337
68927138003313,0.34644604,-0.049467206,9.772369
68927157852134,0.36488637,-0.016564554,9.757607
68927177708135,0.36943284,0.046107035,9.737052
68927197564008,0.37449172,0.07635381,9.705095
68927217419987,0.39482275,0.07980337,9.674065
68927237275988,0.39420307,0.025840532,9.702228
68927257130933,0.3783114,-0.0013250902,9.729463
68927276986806,0.36411703,0.010897271,9.790658
68927296842807,0.3838841,0.047511835,9.805645
68927316698680,0.39136127,0.03708025,9.770751
68927336554553,0.37033442,-0.03063454,9.712845
68927356401698,0.35059384,-0.07036782,9.66296
68927376257443,0.3317505,-0.037802596,9.633901
68927396113188,0.3373934,0.020499306,9.629845
68927415968933,0.36878568,0.03444608,9.651962
68927435824678,0.40617007,0.03880027,9.632207
68927455676633,0.38530368,0.059900094,9.63918
68927475532250,0.35556987,0.013915529,9.62272
68927495387867,0.33125567,-0.03752293,9.631574
68927515243484,0.35197303,-0.02504555,9.6262
68927535099101,0.3870981,-0.032411236,9.583326
68927554962180,0.39573684,-0.069103934,9.586942
68927574817925,0.35438326,-0.052400015,9.612537
68927594673542,0.3570143,0.037346374,9.607972
68927614529287,0.37302846,0.034053504,9.614031
68927634385032,0.4171864,-0.01430106,9.611154
68927654236849,0.42663208,-0.04938024,9.64191
68927674092466,0.39283958,-0.054793928,9.609001
68927693948061,0.3657067,-0.1436291,9.567114
68927713803806,0.3702529,-0.08095751,9.546558
68927733659423,0.38242385,0.033400543,9.496077
68927753519380,0.39503276,0.018000657,9.461959
68927773374997,0.40105638,-0.0448882,9.462979
68927793230742,0.37979397,-0.013995411,9.468751
68927813086359,0.36068478,-0.015419604,9.482506
68927832942104,0.36770472,0.0035034611,9.505477
68927852797721,0.39940295,0.02717005,9.506509
68927872655172,0.4075223,-0.011621271,9.507518
68927892510917,0.37235224,-0.06785413,9.476188
68927912366662,0.35561296,-0.07236306,9.454553
68927932222407,0.36709794,-0.032427214,9.442117
68927952078280,0.38022578,0.0021193365,9.413891
68927971933439,0.41719913,-0.0049329503,9.368195
68927991789184,0.41865394,-0.048170697,9.325708
68928011644929,0.40448818,-0.04456419,9.316827
68928031500674,0.37438157,0.017318113,9.306014
68928051356419,0.34910062,0.06451218,9.317063
68928071215992,0.37006658,0.0050785528,9.307926
68928091071737,0.40202343,-0.061987124,9.280741
68928110927482,0.42992717,-0.096309096,9.283008
68928130783227,0.41657472,-0.008718239,9.318563
68928150638972,0.37204546,0.0518077,9.320518
68928170498840,0.39509892,0.029795496,9.300641
68928190354585,0.4185167,-0.038911644,9.267678
68928210210458,0.4419683,-0.07621418,9.213828
68928230066331,0.4038193,-0.021750016,9.164386
68928249922204,0.39372078,0.018159727,9.154073
68928269779935,0.39037016,0.05083011,9.163644
68928289635808,0.38238207,-0.002008869,9.203369
68928309491681,0.37772,-0.08989647,9.233247
68928329347554,0.4191775,-0.057066098,9.257959
68928349203427,0.41971254,0.05643033,9.256693
68928369067418,0.38373396,0.09427969,9.204793
68928388923547,0.3613765,0.033847027,9.187493
68928408779676,0.3554045,-0.04205012,9.177177
68928428635805,0.36500043,-0.06835619,9.174439
68928448491934,0.39561027,-0.053644042,9.169697
68928468357745,0.40446168,0.040088367,9.171681
68928488214130,0.40439478,0.06747669,9.184849
68928508070643,0.40375242,0.0056383056,9.177554
68928527927028,0.3947855,-0.023111934,9.156282
68928547783413,0.3951321,-0.03766196,9.156925
68928567641120,0.37731013,-0.05895233,9.175416
68928587497505,0.38671464,-0.021914339,9.187729
68928607354018,0.3879683,0.017012883,9.184744
68928627210403,0.39205328,0.021170853,9.169582
68928647066895,0.41262248,0.019377757,9.162526
68928666919812,0.39821744,-0.014123635,9.161565
68928686776197,0.38285312,-0.052514397,9.202131
68928706632582,0.37140164,-0.061045527,9.19368
68928726488967,0.38822532,0.021975635,9.163096
68928746345352,0.40208808,0.045502733,9.125995
68928766194173,0.43981907,0.035307016,9.10688
68928786050430,0.4200084,-0.013891365,9.137233
68928805906687,0.39948055,-0.08421562,9.162734
68928825762816,0.37483558,-0.057554245,9.163783
68928845619073,0.39472547,0.038799953,9.18346
68928865478652,0.4061195,0.05589826,9.180626
68928885334909,0.40924692,0.049669966,9.171815
68928905191294,0.41322395,0.015287856,9.1767
68928925047551,0.3745384,-0.038247515,9.163702
68928944903936,0.36153725,-0.024048459,9.126262
68928964753715,0.38344714,0.046917833,9.176971
68928984609844,0.41865155,0.08670772,9.184128
68929004466101,0.40593082,0.0658975,9.157212
68929024322230,0.35912693,0.0033060086,9.139923
68929044178359,0.32746094,-0.03130606,9.149895
68929064034488,0.3346635,-0.014555361,9.150376
68929083882607,0.3840337,0.02162814,9.166411
68929103738608,0.3816652,0.067063324,9.16991
68929123594586,0.37815145,0.06426379,9.153065
68929143450459,0.38302,-0.028038632,9.158194
68929163305424,0.36877105,-0.06059391,9.16964
68929183161425,0.35811833,-0.006340068,9.180891
68929203017426,0.3495439,0.05630865,9.202572
68929222873427,0.37847134,0.052832488,9.188603
68929242729300,0.40410087,-0.014408853,9.14302
68929262578955,0.39113912,-0.06682984,9.159201
68929282434828,0.38636926,0.03498612,9.155193
68929302290573,0.3654447,0.1125007,9.154167
68929322146446,0.36554632,0.06866965,9.116828
68929342002191,0.41731268,0.008451678,9.091182
68929361858064,0.42227748,-0.020992512,9.135897
68929381710115,0.4058257,-0.02598716,9.138797
68929401565860,0.39074215,-0.009189068,9.161281
68929421421605,0.41922146,0.045715608,9.184011
68929441277350,0.40986624,0.013434679,9.17226
68929461127973,0.4195611,-0.0033578598,9.170646
68929480983590,0.41302758,0.038611107,9.142563
68929500839207,0.381749,0.05537742,9.1463
68929520694696,0.36101678,0.021700481,9.126939
68929540550313,0.36292225,0.013446821,9.135403
68929560401626,0.3597524,0.04944197,9.157661
68929580257115,0.35889474,7.215513E-4,9.161851
68929600112583,0.37806126,-0.006421318,9.159382
68929619968072,0.37543765,0.02855386,9.149351
68929639823433,0.3689869,0.01648637,9.129548
68929659678922,0.38186547,0.032745924,9.133693
68929679541311,0.3662879,0.0019758714,9.150567
68929699396928,0.34408563,-0.009662637,9.14896
68929719252545,0.33952278,0.002161361,9.151351
68929739108162,0.37050417,0.0047017797,9.147532
68929758971257,0.3683436,0.0024957932,9.125537
68929778827002,0.35480413,0.0043903366,9.131111
68929798682619,0.34737834,0.014081849,9.131389
68929818538364,0.36516464,0.009464277,9.168963
68929838394109,0.37138924,0.0111203175,9.256596
68929858249726,0.3700251,-0.013002281,9.3180895
68929878108525,0.36830214,-0.006920989,9.287135
68929897964142,0.42336035,0.0044530937,9.247205
68929917819887,0.41550097,-0.005137416,9.186088
68929937675632,0.37154987,-0.04677505,9.195363
68929957531377,0.3419933,-0.0784407,9.261948
68929977392864,0.3363242,-0.043425877,9.272293
68929997248609,0.3722704,0.019868715,9.28458
68930017104482,0.41005105,0.014429585,9.266028
68930036960355,0.4280871,-0.01974856,9.267945
68930056814364,0.41503465,-0.004809316,9.2651205
68930076670214,0.36466214,0.03173224,9.307348
68930096526087,0.33131897,0.018952321,9.357284
68930116381960,0.36385795,-0.014561334,9.393179
68930136237833,0.4014889,-0.07662126,9.404834
68930156093706,0.41849402,-0.03812302,9.383655
68930175951291,0.39696017,0.056805704,9.357731
68930195807164,0.36335745,0.08374333,9.316342
68930215663165,0.36308044,0.017560447,9.264069
68930235519038,0.37358126,-0.03996961,9.321488
68930255375039,0.38372466,-0.016280688,9.406003
68930275239220,0.4044464,0.08406496,9.453103
68930295095349,0.40733197,0.09407323,9.490674
68930314951478,0.39754006,0.005656858,9.484596
68930334807479,0.35717896,-0.03154314,9.476384
68930354660304,0.33782402,-0.01440091,9.455441
68930374516433,0.3826579,0.030487986,9.4389715
68930394372434,0.41935486,0.05611523,9.46383
68930414228435,0.41443652,0.053462703,9.486748
68930434084564,0.3838495,0.046625983,9.526949
68930453940565,0.38244656,0.04127609,9.531535
68930473807160,0.43860143,0.04828037,9.508105
68930493663545,0.4248791,0.052347757,9.536167
68930513519930,0.39518574,-0.01790653,9.541437
68930533376187,0.3798493,-0.017065577,9.515214
68930553232550,0.38768515,0.032497194,9.544158
68930573086895,0.39052925,0.02442451,9.591893
68930592943280,0.41776258,0.027078075,9.628331
68930612799537,0.43154016,0.019940877,9.646731
68930632655922,0.4105008,0.024391694,9.651742
68930652512179,0.3849974,0.050180398,9.660267
68930672368564,0.38625976,0.027936043,9.6647215
68930692224389,0.3809311,-0.03397029,9.658415
68930712080646,0.36907658,-0.0672319,9.63475
68930731936903,0.37898403,-0.043797582,9.660114
68930751793288,0.39615995,0.016846681,9.676075
68930771645925,0.39614248,0.04899183,9.689804
68930791502182,0.39027652,0.017131781,9.694619
68930811358439,0.4127343,-0.008617278,9.706471
68930831214568,0.39846948,-0.014524303,9.696468
68930851070825,0.3711523,-0.005491968,9.683641
68930870927082,0.38535085,-0.020044189,9.7035265
68930890778463,0.38700855,-0.0042342916,9.712471
68930910634592,0.38817117,0.011855508,9.719087
68930930490849,0.41196474,0.018844666,9.739521
68930950346978,0.4199685,0.04503551,9.721242
68930970203107,0.40981233,0.0033143146,9.7282505
68930990047630,0.3672395,-0.03535172,9.73266
68931009903503,0.35883173,-0.03842524,9.73901
68931029759354,0.40761736,0.0175507,9.73043
68931049615355,0.44906956,0.010360555,9.705954
68931069462500,0.4349266,0.021842372,9.7325325
68931089318245,0.40860787,-0.03085608,9.731797
68931109173990,0.40421993,-0.007880326,9.700974
68931129029607,0.39108545,0.013247923,9.686584
68931148885352,0.38487363,-0.051909674,9.687471
68931168740969,0.4121476,0.016672296,9.717032
68931188591698,0.41275537,0.09495341,9.7485
68931208447187,0.3971382,0.040605627,9.740359
68931228302804,0.37306184,-0.016075488,9.773186
68931248158293,0.3895215,-0.024404965,9.78101
68931268013782,0.42216945,0.022972135,9.764968
68931287868357,0.4312852,0.018145163,9.7846365
68931307723846,0.41610503,0.019932467,9.770823
68931327579335,0.39296326,-0.03423769,9.761838
68931347434696,0.39489344,-0.04011294,9.770583
68931367288267,0.39245957,0.027213551,9.752073
68931387143756,0.40238577,0.060853157,9.731815
68931406999245,0.38609275,0.0034602776,9.708659
68931426854606,0.3767031,-0.012378161,9.721081
68931446710095,0.362807,0.022887904,9.7504635
68931466565584,0.36984456,0.0096657025,9.759706
68931486425377,0.39264113,-0.017309254,9.761476
68931506280845,0.4156511,-0.051905155,9.78694
68931526136334,0.42369664,-0.0076335953,9.758498
68931545991951,0.3899928,0.015287511,9.751164
68931565847440,0.37804472,0.01253318,9.775564
68931585702843,0.349135,-0.01613557,9.775803
68931605558460,0.38350046,-0.014860694,9.741526
68931625413949,0.43082094,0.0043118405,9.677057
68931645269438,0.4402255,0.041349832,9.689369
68931665125055,0.4027827,0.0032123907,9.729734
68931684980544,0.37868875,-0.021323575,9.776289
68931704833327,0.39112186,-2.7649297E-5,9.778669
68931724688688,0.41815758,-0.016401269,9.812864
68931744544177,0.4507658,0.0073976265,9.771804
68931764399538,0.4339685,0.059303675,9.742168
68931784256015,0.36920255,0.038025443,9.723802
68931804111376,0.34270304,-0.017997773,9.710379
68931823966737,0.36818093,0.0016826794,9.70486
68931843822098,0.39636296,0.075894445,9.727508
68931863677459,0.40221792,0.08422508,9.779037
68931883538074,0.39685473,0.03876136,9.796905
68931903393691,0.40247443,-0.0010101723,9.785997
68931923249180,0.39572448,0.011726083,9.801292
68931943104669,0.39818534,0.031479117,9.756298
68931962960158,0.42119753,0.0815842,9.717977
68931982815752,0.39746127,0.066027746,9.70883
68932002670773,0.3614647,0.045824014,9.699266
68932022526262,0.38643867,0.036757823,9.712587
68932042381751,0.4029221,0.078654446,9.723977
68932062237112,0.4033738,0.06579108,9.771646
68932082092899,0.41595587,0.05350968,9.772424
68932101948516,0.42088237,0.042838078,9.760232
68932121804005,0.39826605,-0.017060207,9.799757
68932141659622,0.37671614,0.014318408,9.780992
68932161515111,0.37819356,0.11700167,9.748641
68932181377616,0.39972952,0.10677405,9.710778
68932201233233,0.4197975,0.022889487,9.684101
68932221088978,0.37885565,0.00315219,9.73235
68932240944595,0.38820177,0.006406809,9.76527
68932260800340,0.41555986,0.063302994,9.77122
68932280656085,0.4051224,0.10443864,9.7709875
68932300519566,0.3763714,0.023371298,9.745172
68932320375439,0.3653812,-0.0168441,9.759933
68932340231312,0.37639427,0.031246727,9.780629
68932360087185,0.39173883,0.10727977,9.788968
68932379947138,0.39586517,0.12951869,9.763643
68932399803267,0.38194916,0.10356451,9.719106
68932419659268,0.37397987,0.060931053,9.713211
68932439515269,0.36681983,0.01441362,9.699283
68932459371247,0.3777902,0.09227142,9.733426
68932479227248,0.36154312,0.14082752,9.75258
68932499085827,0.38773096,0.056912336,9.766511
68932518941956,0.4054873,0.009895896,9.754616
68932538797957,0.41374528,0.0943942,9.753153
68932558654086,0.38696444,0.121227704,9.732489
68932578510215,0.3608032,0.11182604,9.71227
68932598364980,0.334192,0.028256651,9.7892475
68932618220981,0.34436277,9.792794E-4,9.83558
68932638077110,0.37719077,0.099528715,9.835511
68932657933111,0.4080566,0.1670513,9.812405
68932677785716,0.4167889,0.09985168,9.767954
68932697641717,0.35629714,0.024884848,9.754555
68932717497718,0.40493643,0.061093178,9.709111
68932737353719,0.4000597,0.16671973,9.693257
68932757209720,0.35838494,0.15250452,9.715207
68932777065593,0.38845712,0.10706482,9.750193
68932796920930,0.38548926,0.013047193,9.729663
68932816776931,0.39866537,0.010000135,9.733891
68932836632804,0.39310125,0.1368995,9.762653
68932856488805,0.40087467,0.15500876,9.731125
68932876344806,0.36627266,0.06328116,9.734858
68932896196491,0.377624,0.019948084,9.774079
68932916052492,0.3939753,0.11112422,9.776627
68932935908344,0.38504732,0.15379952,9.783655
68932955764217,0.38791987,0.13711122,9.761315
68932975614062,0.3654896,0.11189399,9.711281
68932995469807,0.33786687,0.06335906,9.716256
68933015325552,0.35192493,0.02121247,9.745181
68933035181297,0.3835368,0.10990943,9.808289
68933055037042,0.39278114,0.14833105,9.727113
68933074892787,0.36198553,0.09027331,9.66998
68933094745686,0.37086213,0.048338324,9.697569
68933114601431,0.39723098,0.057946153,9.69558
68933134457048,0.39162618,0.11891736,9.731219
68933154312793,0.36723423,0.16153581,9.780977
68933174168538,0.36516184,0.14531359,9.816452
68933194015539,0.37320548,0.05703671,9.848509
68933213871028,0.38487995,0.03912563,9.8562
68933233726517,0.38680348,0.088924944,9.8223295
68933253582134,0.39804468,0.14193033,9.740017
68933273438865,0.35972923,0.12407127,9.731228
68933293294482,0.36365104,0.092759326,9.689649
68933313149971,0.37076363,0.12902291,9.667839
68933333005460,0.38381553,0.16193113,9.673948
68933352860949,0.38001817,0.15728733,9.713646
68933372716438,0.37425688,0.12711418,9.765486
68933392572671,0.36868206,0.08377438,9.72448
68933412428266,0.3892098,0.063900575,9.727588
68933432283755,0.3769968,0.06950726,9.76291
68933452139244,0.36683086,0.046607204,9.794372
68933471994861,0.3965566,0.10591566,9.800107
68933491851222,0.40368438,0.16337892,9.803031
68933511706711,0.4080249,0.13014922,9.798115
68933531562328,0.38467565,0.07577301,9.81134
68933551417817,0.38670665,0.073914275,9.786029
68933571273306,0.38610622,0.120354734,9.739964
68933591128795,0.36643186,0.1010807,9.680196
68933610983358,0.37469822,0.124407545,9.686172
68933630838847,0.35738802,0.11854004,9.696544
68933650694336,0.34294078,0.114805505,9.709031
68933670549825,0.36052874,0.1390082,9.747646
68933690403948,0.3697168,0.1468136,9.803336
68933710259309,0.37127635,0.10526239,9.807872
68933730114670,0.36621934,0.069518484,9.804652
68933749970031,0.35529757,0.04426508,9.774354
68933769825392,0.36839873,0.081930116,9.781025
68933789683239,0.39188707,0.12155025,9.790652
68933809538728,0.41434816,0.13265449,9.735435
68933829394089,0.3768419,0.110911466,9.71861
68933849249578,0.3260513,0.1015231,9.720889
68933869105067,0.33617502,0.15419002,9.702876
68933888960407,0.34269407,0.1812195,9.677619
68933908820736,0.40686697,0.14541605,9.689249
68933928676225,0.4066109,0.09260561,9.707612
68933948531842,0.3829378,0.060654864,9.755651
68933968387331,0.3578207,0.09547139,9.789833
68933988247314,0.35794154,0.16070816,9.829699
68934008102931,0.38357642,0.13348739,9.8333025
68934027958548,0.38248932,0.028837813,9.820957
68934047814293,0.39372918,0.039492637,9.770536
68934067669910,0.39685616,0.17131016,9.7364025
68934087522177,0.38659352,0.22359744,9.702958
68934107377794,0.39816216,0.16164926,9.6955185
68934127233411,0.38352564,0.077715725,9.713199
68934147089028,0.35665214,0.08720882,9.737315
68934166944645,0.36367884,0.14065544,9.774294
68934186800262,0.3694364,0.18182287,9.7928095
68934206658683,0.37588787,0.14604267,9.809326
68934226514300,0.37944475,0.07122789,9.80944
68934246370045,0.38504496,0.069098525,9.84744
68934266225790,0.38780224,0.11739228,9.805814
68934286091563,0.40139234,0.16260476,9.768909
68934305947436,0.3939291,0.14322093,9.708997
68934325803309,0.36121017,0.12556213,9.657128
68934345659310,0.3477071,0.10551729,9.603352
68934365515160,0.37745836,0.11935659,9.606082
68934385371033,0.40458617,0.16817118,9.598783
68934405231678,0.40358186,0.24639325,9.692223
68934425087807,0.36333945,0.18972892,9.787662
68934444943808,0.357718,0.096952006,9.859067
68934464799809,0.36689213,0.035710044,9.886737
68934484655810,0.41477165,0.08055942,9.849891
68934504511659,0.43285674,0.18918379,9.827047
68934524367788,0.41428685,0.15221606,9.794504
68934544223789,0.3683414,0.0904973,9.76974
68934564079918,0.37552032,0.14722025,9.738047
68934583928855,0.3915199,0.21292584,9.690766
68934603784856,0.37256888,0.20695074,9.681751
68934623640729,0.3696742,0.16791604,9.665348
68934643496730,0.355623,0.15438819,9.679039
68934663352603,0.34478822,0.1629666,9.709496
68934683208604,0.34183162,0.19134103,9.755446
68934703064399,0.37890807,0.1914723,9.791955
68934722920272,0.3826033,0.14974903,9.818204
68934742776273,0.38313758,0.082849205,9.874154
68934762632146,0.3828411,0.054308485,9.870787
68934782488147,0.37395838,0.10407047,9.797297
68934802342332,0.37967739,0.16401048,9.758904
68934822198205,0.41104802,0.21243238,9.713673
68934842054055,0.38422656,0.17333747,9.699887
68934861909800,0.3778901,0.1441355,9.702656
68934881761729,0.35741404,0.1632689,9.664933
68934901617474,0.34896398,0.18996222,9.684731
68934921473219,0.34395447,0.16447216,9.717251
68934941328964,0.3718497,0.19132194,9.712077
68934961184837,0.40697172,0.14710283,9.736274
68934981040582,0.39582166,0.11693499,9.808984
68935000893347,0.35419574,0.15532406,9.83478
68935020749092,0.36175388,0.18655115,9.814736
68935040604709,0.40993154,0.16424622,9.774688
68935060460454,0.43453476,0.11950395,9.783799
68935080316199,0.4462092,0.101592995,9.7914915
68935100165142,0.38571602,0.12232117,9.784662
68935120020631,0.34375483,0.15094222,9.750183
68935139876248,0.3608349,0.14872801,9.72656
68935159731865,0.3940701,0.122967854,9.696671
68935179587482,0.41104272,0.1724118,9.664486
68935199442971,0.39490515,0.16381261,9.657023
68935219288172,0.35025108,0.17009628,9.689466
68935239143533,0.33286485,0.16259056,9.734176
68935258998894,0.36773708,0.14793202,9.794029
68935278854255,0.40727884,0.11763901,9.8633375
68935298706184,0.39354953,0.087182835,9.87739
68935318561398,0.41543174,0.11025265,9.843457
68935338416759,0.38409004,0.14341314,9.790007
68935358271992,0.41200298,0.13811778,9.771107
68935378127225,0.35983598,0.1202608,9.743074
68935397973530,0.36241657,0.16289993,9.769839
68935417828507,0.3796043,0.19922568,9.7261715
68935437683612,0.36053178,0.17586173,9.680575
68935457538717,0.36177912,0.13241771,9.660296
68935477393694,0.36630052,0.10251276,9.668069
68935497248799,0.36939088,0.16607189,9.721894
68935517103100,0.38570136,0.19131975,9.73132
68935536958205,0.3883556,0.15089586,9.787534
68935556813182,0.3730674,0.114143215,9.793765
68935576668159,0.37766388,0.13372406,9.770485
68935596517762,0.38843173,0.15253398,9.753198
68935616372611,0.43199322,0.14829025,9.785334
68935636227460,0.4223615,0.14868861,9.844137
68935656082437,0.37803152,0.13254659,9.841765
68935675937286,0.3868542,0.13603221,9.790998
68935695791325,0.37164107,0.14876546,9.766178
68935715646046,0.37151173,0.14470027,9.718875
68935735500895,0.37995294,0.17917876,9.691636
68935755355616,0.38907987,0.19788119,9.654961
68935775210465,0.4001598,0.21858382,9.662488
68935795065162,0.38563812,0.20771404,9.674132
68935814925529,0.39333448,0.18183452,9.708833
68935834780378,0.37160075,0.17303495,9.74445
68935854635227,0.38028678,0.14659645,9.783802
68935874490076,0.38075516,0.14943539,9.821027
68935894348813,0.36976433,0.15706755,9.839074
68935914203790,0.38290837,0.117118284,9.829012
68935934058639,0.37948567,0.1371563,9.802562
68935953913616,0.38432208,0.1459976,9.768079
68935973768593,0.38823336,0.18135436,9.754238
68935993623442,0.3799087,0.21444239,9.740262
68936013488439,0.3759494,0.21667935,9.721649
68936033343544,0.3545493,0.16663331,9.697999
68936053198649,0.3381546,0.1530716,9.712182
68936073053882,0.33865073,0.19514248,9.682617
68936092908987,0.38305315,0.22391652,9.721008
68936112769962,0.386385,0.18104084,9.757059
68936132625195,0.36264765,0.12313382,9.779805
68936152480556,0.36615944,0.13143037,9.831829
68936172335789,0.38962522,0.16317496,9.805998
68936192189730,0.41229945,0.16665861,9.774473
68936212044963,0.41797554,0.16616735,9.778136
68936231900196,0.3931833,0.13071062,9.7742195
68936251755429,0.34655917,0.119291574,9.7729025
68936271610640,0.36589074,0.14212136,9.761673
68936291465873,0.37622097,0.15264365,9.753344
68936311326910,0.3890177,0.17509185,9.745923
68936331182271,0.3974589,0.20957057,9.718685
68936351037760,0.36469665,0.17932795,9.712157
68936370893121,0.3470483,0.12683891,9.729327
68936390748482,0.37448123,0.14302252,9.732834
68936410607665,0.39822635,0.18760565,9.720814
68936430463154,0.40632,0.19428359,9.724824
68936450318771,0.3724007,0.14012454,9.757582
68936470174260,0.3645037,0.11012334,9.787707
68936490038623,0.37604603,0.14149201,9.786556
68936509894368,0.42252165,0.1386408,9.786189
68936529750113,0.42543572,0.14003335,9.753685
68936549605858,0.41633555,0.118212186,9.755465
68936569461603,0.37489295,0.10658131,9.7554865
68936589317348,0.36765718,0.14862378,9.747285
68936609176647,0.38198984,0.16949303,9.712228
68936629032520,0.40387797,0.18473597,9.724196
68936648888521,0.38851568,0.14084807,9.729587
68936668744394,0.37869808,0.09790086,9.726514
68936688600267,0.3925973,0.10815262,9.781495
68936708459306,0.392629,0.14505471,9.795785
68936728315179,0.39735714,0.16320337,9.784633
68936748171157,0.40093994,0.13311745,9.753135
68936768027158,0.40638074,0.08452402,9.694363
68936787883159,0.41171014,0.09858279,9.697384
68936807739160,0.38662577,0.1224536,9.74257
68936827602103,0.39157474,0.11965755,9.765836
68936847458232,0.39079833,0.11259581,9.784877
68936867314361,0.40218553,0.09517068,9.768034
68936887170490,0.41332445,0.1018091,9.751667
68936907024297,0.42716044,0.12845492,9.749462
68936926880426,0.4078953,0.12608425,9.750811
68936946736555,0.36437416,0.10605838,9.740403
68936966592684,0.3734419,0.13882503,9.727619
68936986448685,0.3911747,0.13178073,9.683553
68937006298718,0.41002774,0.08039448,9.688159
68937026154719,0.37647912,0.061911378,9.725125
68937046010592,0.40532005,0.12346582,9.773232
68937065866593,0.3965656,0.1349422,9.778939
68937085722594,0.41194445,0.10433452,9.791713
68937105578467,0.40499687,0.09804382,9.804762
68937125428178,0.40461054,0.08901577,9.779105
68937145284051,0.37455404,0.10780732,9.765568
68937165139924,0.36364704,0.10375347,9.760004
68937184995797,0.37662664,0.12402931,9.730094
68937204842314,0.3798283,0.12493613,9.722126
68937224697909,0.37028185,0.15599903,9.725424
68937244553526,0.39878657,0.1654348,9.745149
68937264409143,0.4048913,0.14420474,9.761023
68937284264760,0.36107367,0.09563791,9.747249
68937304121639,0.3382928,0.09596485,9.766927
68937323977384,0.35150257,0.12432239,9.750266
68937343833001,0.4002148,0.12531553,9.737558
68937363688618,0.40508,0.13420537,9.784436
68937383544235,0.41077903,0.14158966,9.823559
68937403399852,0.40456906,0.07093493,9.789268
68937423251661,0.39805126,0.08625576,9.782634
68937443107278,0.35977688,0.13432512,9.766966
68937462962895,0.36120442,0.14205341,9.762662
68937482818384,0.37298667,0.16268253,9.750306
68937502673691,0.3979034,0.16218364,9.752343
68937522529308,0.3623531,0.08909585,9.74126
68937542384797,0.3380468,0.11453139,9.732228
68937562240286,0.35057816,0.19318853,9.739017
68937582095775,0.38022363,0.16299051,9.726616
68937601951392,0.4144724,0.09669899,9.733552
68937621800777,0.39720368,0.108912565,9.733762
68937641656138,0.35862303,0.14726198,9.739181
68937661511627,0.33992687,0.151747,9.743697
68937681366988,0.379223,0.14002042,9.778308
68937701222454,0.38219318,0.0904951,9.788981
68937721075815,0.39284506,0.08408906,9.781015
68937740931176,0.377731,0.10633574,9.7573185
68937760786665,0.3628055,0.118583046,9.757033
68937780642026,0.35722834,0.12858796,9.754493
68937800503897,0.34659985,0.09502173,9.794632
68937820359258,0.35089085,0.05703543,9.789154
68937840214747,0.38491738,0.059536442,9.764957
68937860070236,0.39221287,0.0936279,9.720659
68937879925725,0.4274843,0.106029466,9.714646
68937899781086,0.3866356,0.10363258,9.718117
68937919637251,0.36000395,0.09688887,9.695852
68937939492612,0.39312938,0.038085762,9.721185
68937959348101,0.4023255,0.03256692,9.7876
68937979203462,0.43308926,0.053722553,9.830441
68937999058951,0.43826094,0.07233198,9.856233
68938018914928,0.4246244,0.05921633,9.825505
68938038770417,0.3871855,0.010084622,9.795515
68938058625778,0.38586056,8.7570096E-4,9.730587
68938078481139,0.43312895,0.06863611,9.704021
68938098331734,0.4092929,0.09141369,9.697036
68938118187095,0.38647234,0.068162784,9.6917
68938138042456,0.4170484,0.05146997,9.707844
68938157897817,0.42918444,0.09207263,9.710143
68938177753029,0.41566247,0.06182226,9.701986
68938197608390,0.41689906,-0.0051509426,9.738053
68938217460837,0.40283793,1.4234315E-4,9.776197
68938237316198,0.37537965,0.029427644,9.775696
68938257171431,0.38259003,0.032854334,9.786901
68938277026664,0.42354548,0.03144075,9.795277
68938296881897,0.43311587,0.050603833,9.795544
68938316737852,0.41062638,0.039451033,9.769403
68938336593085,0.39981833,0.044910718,9.764961
68938356448318,0.37609884,0.045056563,9.745369
68938376303679,0.37460616,0.059219446,9.727665
68938396158912,0.36815554,0.047151953,9.707865
68938416014145,0.38978666,0.057432022,9.74148
68938435880076,0.38391978,0.07341954,9.749581
68938455735693,0.39926615,0.053757567,9.751349
68938475591182,0.4111557,0.02272864,9.747557
68938495446799,0.3902548,0.060271077,9.778704
68938515304952,0.3528872,0.07161943,9.788016
68938535160569,0.3604066,0.03142123,9.739673
68938555016186,0.42071912,0.0073681637,9.733815
68938574871803,0.43188688,0.014055143,9.798809
68938594727420,0.39044428,0.002424265,9.798831
68938614582305,0.3798507,0.042613674,9.786191
68938634437922,0.39378557,0.07877303,9.785108
68938654293517,0.37409455,0.04379657,9.735783
68938674149134,0.40095836,0.053124733,9.736121
68938694004879,0.3975185,0.057460446,9.720115
68938713860496,0.3667104,0.071568675,9.725899
68938733711865,0.32161546,0.024046771,9.682937
68938753567354,0.35712487,0.031206159,9.700898
68938773422971,0.41069385,0.102260716,9.727628
68938793278460,0.41620225,0.12514138,9.778516
68938813125665,0.37510517,0.05660992,9.811072
68938832981026,0.3580012,0.0085980315,9.83113
68938852836387,0.36707744,-0.01980679,9.825785
68938872691748,0.39364406,0.008828105,9.82604
68938892547109,0.40017214,0.06488425,9.7796135
68938912403652,0.38771522,0.083560474,9.745061
68938932259013,0.3824193,0.10090655,9.721152
68938952114502,0.3529002,0.08965171,9.696494
68938971969863,0.35132432,0.067653045,9.699115
68938991825224,0.3333041,0.07518306,9.718648
68939011680585,0.32777482,0.047594238,9.748558
68939031533552,0.3348775,0.012480728,9.77981
68939051388913,0.36568502,0.046220183,9.777311
68939071244146,0.41883564,0.07134482,9.764093
68939091099507,0.394231,0.07373665,9.786873
68939110951688,0.353879,0.0655632,9.757492
68939130807029,0.3620149,0.0424743,9.7480545
68939150662262,0.37355983,0.020498268,9.708442
68939170517495,0.4207034,0.034016296,9.712365
68939190372728,0.4087793,0.081487946,9.740331
68939210228089,0.37446386,0.037122093,9.771884
68939230077580,0.3537641,-0.0075004385,9.763528
68939249932685,0.36840922,0.015261404,9.753287
68939269787662,0.3998202,0.039413586,9.729784
68939289642767,0.40740317,0.073019214,9.71002
68939309497872,0.41032326,0.06658476,9.723419
68939329346747,0.38769832,0.06785805,9.755505
68939349201724,0.35816032,0.046397924,9.776467
68939369056573,0.38834047,0.03949819,9.791408
68939388911550,0.4232652,0.0664499,9.784752
68939408766731,0.4083484,0.017525751,9.791907
68939428621708,0.3795867,0.0031272422,9.793829
68939448476685,0.3895129,0.03676673,9.773572
68939468331662,0.37503305,0.043977667,9.775052
68939488186639,0.36994338,0.019179355,9.760828
68939508041616,0.4011391,0.05644962,9.748808
68939527903249,0.41560134,0.08138383,9.761056
68939547758354,0.3922514,0.074855074,9.777567
68939567613459,0.3837945,0.06702461,9.783356
68939587468564,0.3620871,0.055106554,9.784076
68939607323649,0.35173428,0.036708847,9.756946
68939627181546,0.35967368,0.036943194,9.713372
68939647036651,0.35179856,0.054000698,9.630807
68939666891884,0.38590655,0.09816051,9.621462
68939686747117,0.38630056,0.09386445,9.657845
68939706601436,0.35982108,0.099061124,9.718342
68939726456541,0.3548195,0.060247168,9.761584
68939746311646,0.38973594,0.010324641,9.772811
68939766166751,0.41555986,0.063302994,9.77122
68939786021856,0.414996,0.096467994,9.817239
68939805876961,0.38300887,0.03093668,9.823564
68939825725708,0.35277054,0.0040528015,9.829231
68939845580685,0.3513838,0.06225278,9.826659
68939865435534,0.369676,0.08088531,9.810213
68939885290511,0.39638567,0.08376999,9.762965
68939905145488,0.41196522,0.109042786,9.710914
68939925001371,0.38021156,0.088446364,9.663419
68939944856220,0.33966687,0.10126631,9.680982
68939964711197,0.3291208,0.15170968,9.704079
68939984566174,0.37849948,0.12672149,9.727553
68940004421023,0.37378034,0.047401,9.746143
68940024276000,0.36081773,0.04282747,9.765611
68940044145771,0.35008097,0.10876709,9.800474
68940064001004,0.3571677,0.10030184,9.810277
68940083856216,0.3944938,0.07087253,9.811127
68940103711449,0.39725003,0.07681573,9.801394
68940123568896,0.39297652,0.082657,9.793142
68940143424257,0.37838992,0.093678415,9.782778
68940163279490,0.3759719,0.13435677,9.785715
68940183134851,0.37071037,0.13526024,9.737632
68940202990212,0.36582828,0.110668086,9.7012
68940222854905,0.3425702,0.07912943,9.704823
68940242710394,0.36509335,0.12168719,9.710076
68940262566011,0.38242063,0.14325711,9.68926
68940282421500,0.38634607,0.1096153,9.72876
68940302277117,0.37436432,0.07545601,9.774047
68940322132606,0.3755836,0.13082597,9.795235
68940341985761,0.37592947,0.16412362,9.799163
68940361841250,0.40955976,0.08621971,9.802371
68940381696739,0.41218337,0.05124441,9.812403
68940401552356,0.38328144,0.009251418,9.823366
68940421411861,0.3732172,0.032718435,9.788879
68940441267478,0.40069985,0.14385712,9.7643385
68940461123095,0.3606046,0.14064643,9.713309
68940480978712,0.36480668,0.07432532,9.682257
68940500834329,0.385368,0.085856356,9.664475
68940520694914,0.36446893,0.11790178,9.660445
68940540550659,0.34672818,0.1382702,9.693788
68940560406381,0.34883922,0.13571972,9.71522
68940580262126,0.34911847,0.058360014,9.75764
68940600117871,0.36339784,-0.0047315285,9.820984
68940619973616,0.38905188,0.07711553,9.901793
68940639831635,0.40313306,0.13304237,9.93757
68940659687380,0.39495108,0.050182294,9.9046955
68940679543253,0.41879284,0.010913553,9.8061495
68940699399126,0.39704716,0.017767968,9.749962
68940719251585,0.3274489,0.06685253,9.667116
68940739107330,0.32465863,0.16755007,9.672415
68940758963075,0.34446892,0.12655033,9.6706705
68940778818820,0.36893195,0.054213572,9.688824
68940798674693,0.39034972,0.072114706,9.698746
68940818530438,0.37733498,0.11612882,9.756115
68940838385339,0.35261473,0.09330469,9.788216
68940858241084,0.3880589,0.032157026,9.812774
68940878096957,0.38666385,0.013483007,9.828084
68940897952702,0.36224127,0.06155004,9.83166
68940917808447,0.37218234,0.1163892,9.836137
68940937660968,0.39744768,0.09584291,9.803638
68940957516713,0.40099087,0.042179257,9.747125
68940977372330,0.39628884,0.06875932,9.7266655
68940997228075,0.3731454,0.110284306,9.724253
68941017079572,0.35105184,0.08933819,9.699314
68941036935168,0.34135,0.071607165,9.68692
68941056790657,0.3194789,0.07206653,9.664507
68941076646274,0.3118388,0.04702808,9.672986
68941096501891,0.38114285,0.05410402,9.688678
68941116357508,0.42517373,0.09504978,9.726147
68941136206055,0.36481792,0.10651903,9.777347
68941156061544,0.30700335,0.08920175,9.827009
68941175917033,0.34667858,0.05197954,9.873268
68941195772522,0.37351593,0.06442643,9.908504
68941215628011,0.3709591,0.0720134,9.8853035
68941235483542,0.35578084,0.06830357,9.836312
68941255339031,0.3430621,0.04199634,9.7742195
68941275194520,0.35931018,0.035790678,9.723173
68941295050009,0.38326487,0.07508283,9.653767
68941314898502,0.37345478,0.15685742,9.636095
68941334753863,0.3508239,0.1659577,9.622279
68941354609096,0.33030596,0.07681213,9.623327
68941374464457,0.34885958,0.05022999,9.66303
68941394319818,0.37753522,0.08181141,9.719896
68941414175179,0.39215186,0.113189,9.77973
68941434025980,0.3920973,0.077075884,9.881416
68941453881085,0.38723096,0.025835596,9.866431
68941473736190,0.41855964,-0.03402146,9.859968
68941493591423,0.3788331,0.0039409325,9.848328
68941513446506,0.369765,0.10921999,9.835789
68941533297651,0.35824865,0.12258016,9.805328
68941553152756,0.42278206,0.04241129,9.722795
68941573007733,0.45901346,0.011854894,9.6719675
68941592862710,0.4098795,0.06612412,9.686476
68941612717815,0.35714096,0.09475615,9.693738
68941632572792,0.33043426,0.03852677,9.702524
68941652429853,0.36230636,0.030994443,9.702236
68941672284830,0.37733057,0.028260667,9.703643
68941692139935,0.3676684,0.03410761,9.716262
68941711995040,0.39200637,0.04557417,9.739582
68941731845897,0.41252416,0.04452138,9.767142
68941751700874,0.38496587,0.021942712,9.797412
68941771555851,0.36870974,0.041472264,9.837733
68941791410828,0.38156453,0.0075057163,9.838313
68941811265805,0.38721687,-0.043211408,9.838412
68941831121398,0.37971118,-0.0328285,9.791947
68941850976375,0.37250185,0.0060954853,9.748849
68941870831352,0.39470783,0.0067398446,9.6801
68941890686329,0.383263,0.08057985,9.688945
68941910541306,0.36459062,0.13529086,9.697025
68941930396411,0.3237673,0.08742481,9.697492
68941950247012,0.34942687,0.062582575,9.701375
68941970101861,0.3831691,0.11108701,9.737009
68941989956688,0.39872026,0.14497554,9.755033
68942009811537,0.37307522,0.10081921,9.804489
68942029678010,0.39325494,0.053144865,9.838845
68942049533115,0.39920563,0.025471326,9.807134
68942069388220,0.40704525,-0.026158296,9.794331
68942089243197,0.3871043,-0.03157418,9.7806635
68942109098302,0.37398472,0.010753505,9.791007
68942128956595,0.36775705,-0.027755838,9.770445
68942148811828,0.38758504,-0.10090085,9.754971
68942168666933,0.41893873,-0.06818125,9.720182
68942188522166,0.43171015,-2.640083E-4,9.715767
68942208377271,0.4239456,0.010653402,9.726127
68942228232504,0.40021715,-0.018227182,9.727703
68942248093151,0.38020802,-0.03860518,9.759096
68942267948512,0.35328487,-0.03386891,9.782651
68942287803745,0.39178267,-0.018182104,9.76895
68942307659106,0.46333963,0.056288037,9.765144
68942327514595,0.46262148,0.083009794,9.763577
68942347369956,0.3925012,0.045294505,9.741908
68942367225189,0.34209248,-0.0429343,9.717375
68942387080550,0.3626694,-0.058051165,9.721043
68942406935911,0.38189927,0.008609797,9.747151
68942426791144,0.38848147,0.019245107,9.77908
68942446649045,0.39482525,-0.05507517,9.815644
68942466504383,0.403218,-0.07320096,9.784559
68942486359872,0.4085082,0.0074779554,9.733959
68942506215233,0.3816832,0.06957521,9.761922
68942526070594,0.38445598,0.0010228229,9.770352
68942545933739,0.40664202,-0.050888658,9.779117
68942565789228,0.38146248,-0.047525525,9.752826
68942585644845,0.33775008,-0.0042075706,9.757469
68942605500334,0.35828385,0.05828987,9.77787
68942625357913,0.41021335,0.033541813,9.778643
68942645213530,0.42907616,-0.036665577,9.758795
68942665069147,0.43589252,-0.028942822,9.73362
68942684924764,0.39701548,-0.019134007,9.735672
68942704780509,0.37774244,-0.008180665,9.7262945
68942724636126,0.38740456,-0.014027371,9.713675
68942744492615,0.4318344,-0.03621951,9.713884
68942764348232,0.4646618,-0.02786832,9.742421
68942784203849,0.43181562,-0.046424918,9.759505
68942804059466,0.40571806,-0.12006821,9.793188
68942823915211,0.37787214,-0.14216116,9.798922
68942843773048,0.3735317,-0.10893157,9.803839
68942863628793,0.388078,-0.09568338,9.792475
68942883484410,0.39085093,-0.07403764,9.772298
68942903340155,0.4154221,-0.017636193,9.741798
68942923196204,0.41931638,0.0020182712,9.7383995
68942943051927,0.42233732,-3.999069E-4,9.717744
68942962907672,0.38203356,-0.046167206,9.720818
68942982763417,0.35012832,-0.11788705,9.738708
68943002619162,0.34121,-0.0940329,9.721283
68943022474907,0.3623376,-0.022301706,9.745132
68943042325440,0.36738575,-0.015584227,9.769521
68943062181185,0.36639464,-0.05737545,9.796761
68943082036802,0.37771526,-0.09526007,9.789799
68943101892547,0.39476094,-0.081031434,9.79035
68943121748164,0.42695627,-0.06314164,9.758531
68943141594457,0.41930044,-0.061531838,9.745561
68943161450074,0.3928565,-0.030427335,9.749992
68943181305563,0.38208994,-0.0068866983,9.735388
68943201161052,0.39209098,-0.013959422,9.712687
68943221016541,0.40234756,-0.058419827,9.700231
68943240872030,0.38155526,-0.030184882,9.708046
68943260723509,0.36113262,-0.008624531,9.751965
68943280578870,0.33675826,0.0018487733,9.787993
68943300434359,0.31874564,-0.003945105,9.81825
68943320289720,0.35746652,-0.014700271,9.803788
68943340132385,0.3679873,-0.019674247,9.783695
68943359987490,0.38261554,-0.012614943,9.783896
68943379842595,0.3888042,-0.0455309,9.776159
68943399697828,0.38120562,-0.052488398,9.774473
68943419552911,0.36316955,-0.018310135,9.772556
68943439407608,0.34356487,0.02839255,9.787271
68943459262585,0.32413623,-0.00944791,9.762201
68943479117690,0.35048333,-0.05556308,9.721469
68943498972795,0.36613503,-0.017658027,9.705435
68943518827772,0.34542596,0.046738587,9.692926
68943538682877,0.33884177,0.04160029,9.696174
68943558538536,0.3374705,-0.017045869,9.743658
68943578393513,0.34538922,-0.021519793,9.780884
68943598248490,0.36083227,-0.026171101,9.818953
68943618103467,0.36358827,-0.020227786,9.809217
68943637962662,0.34261605,-0.043165293,9.801061
68943657817767,0.3440435,-0.035436988,9.796756
68943677672872,0.36678225,-0.005997191,9.790525
68943697527977,0.35640377,0.021074373,9.7664
68943717383082,0.33033413,-0.013337319,9.7332945
68943737239961,0.3381332,-0.040697336,9.698762
68943757095066,0.34719288,0.0053934264,9.675253
68943776950171,0.37141615,0.033994466,9.676004
68943796805276,0.370061,0.038898293,9.716329
68943816660509,0.36984727,-0.04367888,9.721242
68943836515614,0.37900552,-0.07827259,9.727464
68943856368079,0.36347467,-0.05094111,9.783362
68943876223184,0.37468326,0.021674152,9.84148
68943896078140,0.37764484,0.033320647,9.844714
68943915933245,0.3906091,-0.05780108,9.818678
68943935787966,0.39348245,-0.12233695,9.793053
68943955642943,0.39477772,-0.06532901,9.779905
68943975497920,0.39476126,0.009166573,9.761742
68943995353025,0.3929129,0.008853053,9.764562
68944015208002,0.3738412,-0.062358573,9.715683
68944035062979,0.3904862,-0.12620488,9.662557
68944054924586,0.42748153,-0.07753406,9.655604
68944074779691,0.4304558,0.09885459,9.693429
68944094634796,0.36204076,0.08720315,9.716444
68944114490029,0.37559572,-0.03153801,9.760927
68944134345134,0.38218656,-0.08207404,9.800295
68944154201745,0.36966157,-0.07835993,9.810802
68944174056850,0.3817142,-0.073918946,9.833426
68944193912083,0.3784475,-0.05293458,9.819385
68944213767316,0.38824233,-0.017862912,9.787
68944233623043,0.41915917,-0.041278634,9.757886
68944253478148,0.42733392,0.00705788,9.776748
68944273333381,0.41125455,0.032242175,9.748679
68944293188614,0.37373173,-0.005203514,9.742299
68944313043847,0.3480413,-0.065110706,9.72084
68944332898952,0.37286806,-0.04609682,9.700585
68944352751279,0.35903046,0.02295238,9.709363
68944372606489,0.34219036,0.014427041,9.721782
68944392461722,0.3803255,-0.01888624,9.714597
68944412316827,0.40115553,-0.018046087,9.766973
68944432172060,0.37606385,-0.028698834,9.798149
68944452031163,0.37924683,-0.037997413,9.835803
68944471886396,0.35577267,-0.008570544,9.854196
68944491741757,0.4024399,0.015432437,9.81017
68944511596990,0.41048488,-0.030493887,9.810335
68944531462249,0.41234362,-0.09684896,9.779777
68944551317738,0.41751125,-0.07590979,9.724488
68944571173355,0.38349265,-0.0015366867,9.730802
68944591028844,0.3616534,0.035824653,9.722679
68944610884461,0.3518546,0.0030829625,9.673985
68944630740078,0.39171362,0.006039064,9.66586
68944650589599,0.39865234,-0.016696673,9.67398
68944670444960,0.37905425,-0.025668312,9.731311
68944690300449,0.34732044,0.014955632,9.757736
68944710155938,0.36620325,0.005968495,9.81181
68944730011427,0.3727703,-0.09479375,9.847613
68944749866340,0.39490598,-0.103614494,9.859102
68944769721701,0.39786094,-0.036293555,9.81972
68944789577190,0.3745616,0.004285072,9.804899
68944809432551,0.37243554,-0.014363762,9.758731
68944829288040,0.38468874,-0.044240408,9.745138
68944849143381,0.37302122,-0.068089314,9.730699
68944869001582,0.37107766,-0.0017777281,9.74187
68944888857071,0.34589145,-0.01094388,9.704096
68944908712560,0.33848774,-0.008953588,9.668916
68944928568049,0.35481063,-0.011478108,9.6651745
68944948410140,0.375764,0.00506262,9.682571
68944968265245,0.38776177,-0.010089125,9.705278
68944988120350,0.39069137,-0.018718328,9.777547
68945007975455,0.37807432,-0.007982163,9.833313
68945027830560,0.38639575,-0.02441534,9.827045
68945047686091,0.37937558,-0.05346039,9.829813
68945067541324,0.4224446,-0.082095,9.814728
68945087396429,0.4321424,-0.032819908,9.823791
68945107251534,0.40555018,-0.02725195,9.825136
68945127106639,0.39376462,-0.011899124,9.780221
68945146961872,0.35261652,-0.024327515,9.713336
68945166809797,0.3573642,-0.05803098,9.690863
68945186664774,0.3868725,0.025049426,9.653155
68945206519751,0.404423,0.09422101,9.675388
68945226374728,0.37400877,0.04320823,9.707437
68945246226547,0.3445639,-0.033683132,9.73358
68945266081524,0.34077802,-0.051154625,9.739583
68945285936501,0.38097888,-0.024331015,9.766556
68945305791478,0.41310462,0.011503009,9.80128
68945325646307,0.40166795,-0.03094124,9.83652
68945345502850,0.35120064,-0.0870446,9.856737
68945365357827,0.3590097,-0.1724047,9.836826
68945385212804,0.3747777,-0.17423113,9.784295
68945405067781,0.40366605,-0.07695209,9.745031
68945424922758,0.4117703,0.0033503145,9.738995
68945444777735,0.3764772,-0.008286345,9.711661
68945464627830,0.3453697,-0.09509343,9.708618
68945484482551,0.34374732,-0.14023748,9.738747
68945504337400,0.37528464,-0.08782294,9.760913
68945524192249,0.40736988,-0.079739444,9.741436
68945544053456,0.41190442,-0.09262874,9.73855
68945563908305,0.41890538,-0.086464874,9.777673
68945583763282,0.3974989,-0.10254101,9.784035
68945603618259,0.35667235,-0.10864765,9.761074
68945623473108,0.40262264,-0.08701039,9.748564
68945643328085,0.42846453,-0.082555644,9.749394
68945663187764,0.3782171,-0.15918808,9.776177
68945683042869,0.34741536,-0.19107437,9.786714
68945702897846,0.3804862,-0.09891371,9.782844
68945722752951,0.38816363,-0.054270573,9.746578
68945742608056,0.37806714,-0.081244126,9.721992
68945762463717,0.37687588,-0.12209569,9.715739
68945782318822,0.36845514,-0.14657727,9.708492
68945802173778,0.37223393,0.0129892165,9.72413
68945822028883,0.36494425,0.056790628,9.756817
68945841886658,0.36082423,0.07249783,9.783811
68945861741763,0.3900694,-0.0016894744,9.78533
68945881596868,0.3903438,-0.05870329,9.7333355
68945901451973,0.3902301,0.025339695,9.701415
68945921307206,0.37115473,0.11978644,9.70432
68945941162311,0.3677909,0.06619604,9.742214
68945961015660,0.39918926,-0.043004073,9.774638
68945980870637,0.4195875,-0.03570849,9.817493
68946000725614,0.47343716,0.0733614,9.859359
68946020580719,0.4538596,0.08938904,9.825793
68946040435696,0.40589762,0.07990769,9.791479
68946060292257,0.37427324,-0.0369764,9.778378
68946080147362,0.3812194,-0.03589231,9.776895
68946100002467,0.41012067,0.13189079,9.768037
68946119857444,0.36418936,0.13443308,9.798434
68946139718553,0.3460115,0.09590839,9.754751
68946159573786,0.36191392,0.01195901,9.721455
68946179429019,0.3808696,-0.02529311,9.666973
68946199284252,0.39867118,0.0043687834,9.621193
68946219139485,0.42753392,0.09808651,9.662441
68946238994846,0.41654846,0.08044517,9.737329
68946258851781,0.37158826,0.08708144,9.775267
68946278706992,0.14540216,0.08898237,9.8041935
68946298562225,0.24871182,0.03492933,9.80758
68946318417586,0.26943022,0.040304348,9.810128
68946338272819,0.15659845,0.12512402,9.8057575
68946358132540,0.09620192,0.15239725,9.820599
68946377987901,0.14322226,0.12470485,9.793836
68946397843262,0.18898006,0.1059443,9.778759
68946417698751,0.20206772,0.081272215,9.778414
68946437554112,0.16432333,0.09289405,9.74337
68946457409473,0.12732132,0.12904,9.745125
68946477267784,0.12457529,0.16668516,9.74207
68946497123273,0.15512864,0.15836014,9.734064
68946516978890,0.19707455,0.09665806,9.719003
68946536834379,0.18727438,0.08978656,9.738899
68946556691186,0.14552149,0.09644273,9.773965
68946576546675,0.1680966,0.12622759,9.7639475
68946596402164,0.19668469,0.12502767,9.770406
68946616257781,0.19161417,0.13430701,9.812337
68946636113270,0.15449935,0.15869905,9.78576
68946655965357,0.17496762,0.14859077,9.755451
68946675820846,0.18511212,0.1217781,9.763296
68946695676335,0.17764704,0.13072526,9.771358
68946715531824,0.15010042,0.15588409,9.786945
68946735387441,0.14589801,0.12820265,9.778199
68946755242908,0.13425688,0.20905566,9.741957
68946775093515,0.110849194,0.23353368,9.773551
68946794948876,0.13966921,0.22734992,9.777362
68946814804365,0.1356155,0.20453127,9.7965765
68946834659726,0.11449954,0.18884385,9.787821
68946854508717,0.10097222,0.18511713,9.783228
68946874363950,0.1178088,0.21088144,9.763941
68946894219183,0.10129028,0.20596607,9.7379
68946914074416,0.101208754,0.175723,9.7601795
68946933929649,0.11117278,0.15232469,9.774797
68946953776610,0.093410164,0.16928646,9.784627
68946973631715,0.092520855,0.17707244,9.785922
68946993486692,0.09883158,0.16922902,9.788686
68947013341797,0.14686249,0.16616902,9.747122
68947033196902,0.13350946,0.17913994,9.739707
68947053051879,0.09227603,0.1536334,9.740721
68947072902992,0.08728268,0.17547584,9.747694
68947092757841,0.105312794,0.16166677,9.754503
68947112612818,0.11874724,0.1789388,9.739637
68947132467667,0.1014975,0.17130724,9.711709
68947152323510,0.08331037,0.18290025,9.744628
68947172178487,0.09295528,0.15137132,9.76803
68947192033464,0.114576206,0.14809889,9.806919
68947211888441,0.10306076,0.196027,9.803193
68947231743397,0.06859157,0.19742498,9.857377
68947251598374,0.08432739,0.16982734,9.85319
68947271455427,0.06517268,0.16775672,9.816767
68947291310404,0.08421858,0.19929053,9.751729
68947311165381,0.0795369,0.20549126,9.694626
68947331020358,0.038626388,0.19973196,9.7158375
68947350875335,0.061556786,0.18028304,9.728821
68947370730994,0.10285899,0.17833008,9.731149
68947390585971,0.090193756,0.20095704,9.760461
68947410440948,0.09824524,0.19506617,9.7678995
68947430295925,0.068438314,0.19504628,9.742315
68947450154218,0.05814848,0.2176185,9.771327
68947470009323,0.108385295,0.16985375,9.776284
68947489864300,0.13338746,0.14755304,9.787082
68947509719405,0.098891,0.16301456,9.778831
68947529574382,0.039475314,0.19497287,9.780543
68947549429487,0.04505439,0.20905782,9.76484
68947569291352,0.06677005,0.17842136,9.770281
68947589146457,0.10892903,0.16242859,9.762877
68947609001690,0.12294854,0.16526295,9.777706
68947628856795,0.06798956,0.18490331,9.77872
68947648712028,0.021267833,0.1660003,9.75649
68947668565383,0.060966223,0.1582193,9.728182
68947688420488,0.0805081,0.15506105,9.711471
68947708275572,0.13458253,0.11120743,9.682911
68947728130677,0.12479796,0.13970211,9.750047
68947747984418,0.11646211,0.15488526,9.793993
68947767839395,0.12584953,0.15859868,9.831038
68947787694500,0.15981688,0.13945617,9.871112
68947807549605,0.16342176,0.12041909,9.86297
68947827404710,0.11263452,0.13182425,9.80254
68947847259815,0.13719183,0.14694448,9.75903
68947867114512,0.14468333,0.16999795,9.680962
68947886969617,0.13889864,0.18683156,9.699632
68947906824722,0.13360316,0.15094699,9.719899
68947926679827,0.10382247,0.14352089,9.738875
68947946534932,0.12701896,0.1300647,9.7975235
68947966392935,0.17447954,0.0919569,9.785753
68947986248168,0.17454201,0.13236415,9.7511835
68948006103401,0.16029078,0.17220494,9.748943
68948025958506,0.13502085,0.16770491,9.791258
68948045813739,0.14019191,0.10298283,9.808204
68948065668844,0.13361467,0.12959135,9.808597
68948085520651,0.1633807,0.13226008,9.804966
68948105375756,0.19143231,0.1377753,9.798853
68948125230861,0.19488138,0.118633196,9.7514305
68948145085966,0.13346994,0.11286584,9.727158
68948164942139,0.14278325,0.097527534,9.710076
68948184797348,0.13664667,0.11766496,9.7229595
68948204652581,0.11888177,0.13964188,9.748507
68948224507814,0.14431572,0.13213122,9.783656
68948244363047,0.15892076,0.08839046,9.775982
68948264225990,0.1566219,0.09320409,9.780795
68948284081351,0.13011687,0.1300423,9.767048
68948303936584,0.13151622,0.14391308,9.784827
68948323791945,0.15860151,0.12964657,9.778663
68948343647306,0.16144733,0.11978041,9.77678
68948363502667,0.15673997,0.11475889,9.7807455
68948383356540,0.13754389,0.096736595,9.766959
68948403211901,0.13443378,0.11715718,9.72837
68948423067262,0.163405,0.13849641,9.70299
68948442922623,0.17412597,0.16157363,9.695757
68948462783842,0.18505426,0.12650199,9.746774
68948482639331,0.19891433,0.07624277,9.796504
68948502494820,0.16226666,0.11107959,9.814472
68948522350181,0.13650513,0.15294035,9.787716
68948542205670,0.15436505,0.13329595,9.734858
68948562059721,0.14514801,0.1348242,9.682451
68948581915082,0.12594518,0.11139165,9.629979
68948601770443,0.14194798,0.08002599,9.684481
68948621625804,0.17521481,0.06943241,9.78723
68948641481165,0.13925396,0.13849774,9.879739
68948661336505,0.11924911,0.20381792,9.920607
68948681192738,0.14081213,0.19123584,9.903784
68948701048099,0.16820799,0.15954296,9.864063
68948720903460,0.1941013,0.11818152,9.798962
68948740758821,0.15870191,0.11979099,9.738748
68948760616132,0.08224591,0.16938403,9.688901
68948780471621,0.10110675,0.15890405,9.704206
68948800326982,0.11688248,0.13835809,9.741157
68948820182343,0.1132497,0.13378312,9.725261
68948840037832,0.11755616,0.15668274,9.718768
68948859893193,0.109327205,0.18321386,9.72384
68948879747650,0.12710749,0.15831836,9.729106
68948899603011,0.17043225,0.108738355,9.701358
68948919458500,0.17523977,0.09305961,9.719927
68948939313861,0.0975506,0.16117957,9.74875
68948959169222,0.08693714,0.1748121,9.788027
68948979016049,0.122259885,0.16635227,9.787803
68948998871282,0.14064099,0.18345314,9.786981
68949018726515,0.114256606,0.14731047,9.833724
68949038581748,0.1865506,0.09271611,9.826059
68949058426583,0.2188076,0.12843406,9.825007
68949078281688,0.12150453,0.18693842,9.787465
68949098136665,0.020551836,0.18154432,9.769506
68949117991770,0.101993494,0.12741464,9.752761
68949137846853,0.2124679,0.10170572,9.722336
68949157701830,0.18769084,0.07471227,9.685703
68949177556081,0.13829602,0.05563344,9.739747
68949197411186,0.10103941,0.106528044,9.763145
68949217266291,0.116399534,0.14838071,9.785802
68949237121396,0.20645954,0.115649335,9.7912855
68949256976501,0.21620144,0.09590508,9.810519
68949276836496,0.18829429,0.07909073,9.783535
68949296691601,0.18732563,0.079461515,9.756671
68949316546834,0.19072945,0.10585582,9.75371
68949336401939,0.17317471,0.12247956,9.7364235
68949356249724,0.123167604,0.11393551,9.757752
68949376104829,0.13757302,0.11393593,9.774316
68949395959806,0.15854296,0.09513849,9.766467
68949415814783,0.15793273,0.09201819,9.776695
68949435669760,0.16799127,0.09532806,9.769332
68949455524737,0.17173725,0.124047354,9.739059
68949475378592,0.144564,0.107460424,9.753689
68949495233569,0.15268171,0.0620791,9.745936
68949515088546,0.14897332,0.08418661,9.7547035
68949534943395,0.13418083,0.10903558,9.755794
68949554798372,0.14808343,0.15890105,9.770714
68949574650047,0.16295223,0.12192674,9.768172
68949594504896,0.19341563,0.076144546,9.772848
68949614359724,0.10979321,-0.17044976,9.765068
68949634214573,0.15310892,-0.11143535,9.771737
68949654069550,0.14900018,-0.095044285,9.753152
68949673924399,0.14688662,-0.09358571,9.766016
68949693776536,0.14944258,-0.11533563,9.771577
68949713631385,0.12873682,-0.124922834,9.834363
68949733486106,0.12735023,-0.12635674,9.829393
68949753340827,0.14560257,-0.07250141,9.81915
68949773194694,0.1550445,-0.07753359,9.797194
68949793049415,0.14044379,-0.14274512,9.713902
68949812904008,0.12256298,-0.14092293,9.6848955
68949832758601,0.100676544,-0.10019196,9.695409
68949852613322,0.10124724,-0.08426099,9.688345
68949872474291,0.14312679,-0.097255655,9.726575
68949892329012,0.16345794,-0.08131179,9.768238
68949912183861,0.18905589,-0.077807605,9.777398
68949932038710,0.15548684,-0.09782492,9.815621
68949951893431,0.11758246,-0.1488174,9.812054
68949971748280,0.10256324,-0.15573236,9.822854
68949991611041,0.13802196,-0.11113155,9.823177
68950011465890,0.16469441,-0.09956354,9.826249
68950031320867,0.16135697,-0.13800502,9.800184
68950051175716,0.18196388,-0.12741093,9.786761
68950071034711,0.15975146,-0.11417281,9.757978
68950090889793,0.08877412,-0.11564454,9.729257
68950110744770,0.060209103,-0.12923315,9.700262
68950130599875,0.0714137,-0.1804805,9.702953
68950150454852,0.06469431,-0.19953798,9.7111845
68950170312059,0.07030494,-0.18982245,9.759861
68950190167164,0.04407862,-0.13008675,9.759683
68950210022269,0.049098298,-0.16194244,9.769467
68950229877374,0.029175838,-0.20537382,9.79481
68950249732479,0.06458114,-0.21086694,9.792179
68950269587584,0.09017236,-0.20682642,9.794551
68950289446955,0.063811116,-0.16519283,9.797646
68950309302188,0.033185374,-0.16750515,9.795862
68950329157421,0.06423393,-0.19030087,9.816514
68950349012654,0.10668054,-0.19748348,9.820597
68950368875829,0.118468456,-0.15769158,9.80458
68950388731318,0.080040924,-0.11647182,9.803138
68950408586807,-0.0057958458,-0.15707049,9.792381
68950428442296,0.00847046,-0.18762189,9.7799835
68950448297657,0.05258354,-0.1924688,9.742751
68950468153146,0.10482688,-0.15588528,9.682645
68950488012571,0.10294197,-0.1223129,9.6264305
68950507868188,0.08457219,-0.14353834,9.560901
68950527723805,0.047853716,-0.15310235,9.538053
68950547579422,0.035009373,-0.16132325,9.637452
68950567435018,0.056282297,-0.12193307,9.71994
68950587288685,0.123578735,-0.13736844,9.79499
68950607144302,0.08774234,-0.19618276,9.937851
68950626999919,0.013652437,-0.25909513,9.9804945
68950646855408,0.0052900733,-0.22211868,9.925282
68950666709667,0.035197143,-0.16490135,9.883023
68950686565284,0.06878127,-0.14787701,9.787317
68950706420773,0.08003122,-0.18912688,9.753001
68950726276262,0.046493027,-0.1710017,9.792763
68950746131751,0.038554993,-0.13297847,9.786912
68950765987240,0.10654967,-0.12432442,9.746982
68950785844881,0.11125119,-0.1823391,9.726326
68950805700498,0.06273731,-0.21318795,9.676964
68950825555987,0.06361297,-0.17129351,9.637255
68950845411476,0.053551264,-0.13292359,9.661049
68950865267093,0.0061214888,-0.18226779,9.686091
68950885131706,0.053788535,-0.19316694,9.735882
68950904987451,0.0788312,-0.19007775,9.765117
68950924843324,0.08570411,-0.21425673,9.77905
68950944699069,0.038061433,-0.21552338,9.775652
68950964550382,0.044099145,-0.20024511,9.830475
68950984406127,0.020504428,-0.20028175,9.833816
68951004261744,0.019309614,-0.20874722,9.8098345
68951024117489,0.038256075,-0.20140234,9.813233
68951043973084,0.04113939,-0.18911104,9.809459
68951063828829,0.064228065,-0.16248341,9.783062
68951083661760,0.06307087,-0.18087001,9.749375
68951103516993,0.061316963,-0.17098193,9.729565
68951123372354,0.04788367,-0.21128123,9.728013
68951143227587,0.040913053,-0.208609,9.718961
68951163082820,-0.0028362437,-0.20100951,9.756161
68951182922603,0.026378931,-0.2409663,9.797912
68951202777452,0.054503202,-0.26350066,9.740451
68951222632429,0.061235845,-0.204023,9.667912
68951242487278,0.09843561,-0.18957014,9.635927
68951262342255,0.07292101,-0.19465975,9.645202
68951282197232,0.0027571109,-0.19828628,9.803353
68951302051337,-0.026972737,-0.21500666,9.896087
68951321906186,0.06486496,-0.15994965,9.955683
68951341761035,0.10014019,-0.098402664,9.870646
68951361615884,0.07017508,-0.11543688,9.796172
68951381466601,0.009066843,-0.18334073,9.804174
68951401321450,0.01711872,-0.15387468,9.77879
68951421176171,0.10856269,-0.0594693,9.795808
68951441030892,0.09230767,-0.06403431,9.822186
68951460885613,0.088675044,-0.13154772,9.82153
68951480737810,0.08866387,-0.19475572,9.77753
68951500592403,0.094984554,-0.17384188,9.767431
68951520446975,0.03382345,-0.1690559,9.788598
68951540301696,0.0156235965,-0.1445766,9.833647
68951560156289,-0.017334959,-0.18079366,9.847397
68951580010882,-0.012910215,-0.20087431,9.869773
68951599867567,0.01638864,-0.17684716,9.858113
68951619722288,0.073159836,-0.18898422,9.867526
68951639577009,0.04474714,-0.19593106,9.873319
68951659431602,0.03342602,-0.1717539,9.87649
68951679290779,0.04218527,-0.16120316,9.923191
68951699145500,0.019073278,-0.16898158,9.936162
68951719000221,0.023701744,-0.1887972,9.919258
68951738854942,0.05966415,-0.20058218,9.965657
68951758709663,0.044087954,-0.18642683,9.946834
68951778567882,0.04057943,-0.15577018,9.946585
68951798422603,0.015482936,-0.15839298,9.931249
68951818277324,0.041045025,-0.16770767,9.921681
68951838132173,0.038782123,-0.18451081,9.93499
68951857986894,0.017906591,-0.2074793,9.981312
68951877841615,0.009516148,-0.21558484,9.976979
68951897684286,0.06653826,-0.16860227,10.005045
68951917538751,0.061421547,-0.13197064,10.025857
68951937393216,0.014052351,-0.15294793,10.045621
68951957247681,0.0123004615,-0.19144568,10.076019
68951977097356,0.014155226,-0.20637062,10.055338
68951996951671,-3.172038E-4,-0.18618833,10.069249
68952016806136,0.019849809,-0.17886034,10.112805
68952036660473,0.052239828,-0.17110218,10.114676
68952056514938,0.033948183,-0.18797751,10.118083
68952076369275,0.009188945,-0.18798028,10.145088
68952096214258,-0.018680906,-0.19036937,10.146936
68952116068467,-0.0066951504,-0.18860391,10.137534
68952135922676,0.057587836,-0.14296778,10.126168
68952155776885,0.071086064,-0.13447751,10.169982
68952175630966,0.012670527,-0.17937876,10.196286
68952195497751,0.003397455,-0.20963523,10.181834
68952215352088,0.0438165,-0.1846428,10.224629
68952235206553,0.040024936,-0.12764733,10.22562
68952255060890,0.0258728,-0.12505831,10.248332
68952274931141,0.019240312,-0.17111106,10.284305
68952294785862,-0.0018035601,-0.20718884,10.258633
68952314640583,-0.013135426,-0.25020257,10.292846
68952334495304,0.039752655,-0.20362933,10.293973
68952354350025,0.08402497,-0.15505049,10.285714
68952374204746,0.076112024,-0.16691065,10.312445
68952394053817,0.02736824,-0.19347544,10.328289
68952413908410,-0.0047216844,-0.22512162,10.352818
68952433763131,-0.019769529,-0.1804929,10.385332
68952453617852,0.052502602,-0.14391725,10.39892
68952473472423,-0.021159219,-0.20049524,10.376108
68952493333958,-0.12270158,-0.21428972,10.309636
68952513188935,-0.13852572,-0.2167237,10.30273
68952533043784,-0.07273276,-0.21258146,10.285072
68952552898761,0.0054536276,-0.21486895,10.276997
68952572746106,-0.022353781,-0.20123784,10.314317
68952592600955,-0.07369147,-0.19760299,10.322692
68952612455932,-0.09728004,-0.2055703,10.308947
68952632310781,-0.0995039,-0.20149851,10.336697
68952652165630,-0.047593903,-0.21377712,10.373252
68952672020479,-0.08898683,-0.1937038,10.373811
68952691886038,-0.1120306,-0.20471498,10.325003
68952711740887,-0.038431615,-0.24151179,10.38529
68952731595864,-0.045035407,-0.27370936,10.375222
68952751450841,-0.053904537,-0.25536245,10.321796
68952771305690,-0.06378031,-0.23931205,10.368673
68952791168563,-0.053839933,-0.22438456,10.291625
68952811023668,-0.0056656557,-0.19451049,10.415747
68952830878645,0.025314603,-0.18480769,10.391174
68952850733622,0.03185796,-0.15133731,10.381826
68952870588599,-0.015647197,-0.10914493,10.428467
68952890443704,-0.0543584,-0.06623378,10.392404
68952910311165,-0.019206446,-0.04158264,10.386228
68952930166398,0.06448511,-0.039347146,10.438704
68952950021738,0.14181101,-0.024756279,10.391952
68952969876971,0.056243565,-0.024985528,10.35389
68952989738452,-0.059154104,-0.046617515,10.382116
68953009593941,-0.015421317,-0.06486121,10.355494
68953029449430,0.05445158,-0.07296487,10.304105
68953049304791,0.063335195,-0.033329662,10.456151
68953069160280,-0.055556726,-0.08206127,10.401973
68953089016591,-0.09936229,-0.14870417,10.378482
68953108872080,-0.07151415,-0.16478673,10.375351
68953128727569,0.062314935,-0.1304159,10.339369
68953148583058,0.03453169,-0.13947964,10.356824
68953168438547,-0.087203674,-0.1394994,10.42102
68953188294164,-0.18997915,-0.15831555,10.46094
68953208138053,-0.13730894,-0.22192709,10.356627
68953227993286,-0.071495675,-0.29414698,10.310832
68953247848647,-0.03467343,-0.34664762,10.325422
68953267704008,-0.06656157,-0.30271766,10.3217945
68953287555121,-0.11522305,-0.28124598,10.326472
68953307410354,-0.079693265,-0.27321538,10.361237
68953327265715,-0.009163756,-0.24981338,10.353542
68953347121076,-0.04450406,-0.2293756,10.35194
68953366976437,-0.11007713,-0.05400939,10.405013
68953386822240,-0.33436108,-0.07438959,10.4916
68953406677473,-0.24041745,0.14119123,10.492804
68953426532813,0.17012331,-0.103033386,10.341925
68953446388046,-0.17896089,-0.38092864,10.245926
68953466243279,-0.04311616,-0.4168149,10.462371
68953486098512,0.2628545,-0.27046657,10.508523
68953505938081,-0.028320834,-0.020513939,10.4214525
68953525793058,0.10571211,-0.1532541,10.402088
68953545647907,0.05752659,-0.34164366,10.218607
68953565502756,-0.03351875,-0.36308894,10.194571
68953585358969,-0.01861434,-0.16871051,10.423598
68953605213818,-0.010334853,0.17910747,10.474717
68953625068667,0.122501746,0.074765936,10.387775
68953644923516,-0.13567455,-0.12185539,10.516151
68953664778365,-0.19741064,-0.29128593,10.318638
68953684633214,-0.10506952,-0.4170892,10.22382
68953704491775,0.19285852,-0.48015925,10.166067
68953724346624,0.19029766,-0.3683067,10.473786
68953744201345,-0.17934082,-0.2837232,10.425052
68953764056066,-0.18498597,-0.17544493,10.475831
68953783910915,-0.28413284,-0.22261682,10.401148
68953803770020,-0.34554663,-0.21717936,10.469029
68953823624997,-0.3489656,-0.00878053,10.495551
68953843479846,0.38977808,-0.54235923,10.34194
68953863334695,0.05753009,-0.38309446,10.285645
68953883198296,-0.31857163,-0.17348392,10.330732
68953903053380,0.18269007,-0.24067853,10.273192
68953922908613,0.1834084,-0.3875133,10.452199
68953942763718,-0.36952513,-0.03712578,10.455324
68953962618823,-0.3874759,0.26099885,10.387189
68953982474056,-0.008307148,0.06850026,10.280158
68954002332769,0.04362324,-0.26601148,10.214644
68954022187874,-0.07270462,-0.34769145,10.353965
68954042042979,0.11535318,-0.36689958,10.52126
68954061898084,-0.010664701,-0.34332728,10.265457
68954081753189,-0.07820492,-0.32741484,10.068152
68954101613116,-0.02322593,-0.22972482,10.272492
68954121468221,-0.013309244,-0.08516705,10.29759
68954141323454,0.05410253,-0.08802619,10.09726
68954161178559,0.17598258,-0.23394467,10.212828
68954181034828,0.29932928,-0.3659778,10.392972
68954200889933,-0.028215392,-0.1375987,10.297389
68954220744910,-0.16657276,-0.098280974,10.01725
68954240600015,-0.3639755,0.09269002,10.255764
68954260454992,-0.5814779,-0.05085658,10.065507
68954280309969,-0.07189052,-0.1966933,10.117003
68954300176986,0.36355922,-0.4079226,10.861981
68954320032347,-0.73999655,0.8977727,11.370195
68954339887708,-2.2459512,2.081777,10.229228
68954359743069,-1.3060576,0.16225854,9.351914
68954379598409,-3.234973,0.2773349,9.765567
68954399453770,-2.9720025,0.10257919,10.665516
68954419314621,-2.563731,0.106152155,10.386263
68954439170238,-0.0015687958,1.7723556,10.748384
68954459025727,0.86677235,2.0383017,9.9671335
68954478881344,-0.80047655,-0.7691574,9.346711
68954498736833,-0.9734346,-2.691747,7.3529997
68954518601278,2.024784,-6.8358045,7.3416314
68954538457151,-0.21721002,-5.4063725,10.5805235
68954558313024,-0.959377,2.842546,10.219375
68954578168897,2.2451396,6.1805973,11.488121
68954598024770,4.5324025,5.3176155,11.648496
68954617882405,0.96139187,2.2850957,10.353312
68954637738406,-3.6306195,-1.1100043,8.335081
68954657594407,-0.9033961,1.1245204,8.986466
68954677450408,2.0791018,2.1644168,9.779446
68954697306537,0.9354632,3.5069818,10.278206
68954717161946,-0.121910445,3.5938091,10.438075
68954737018075,-0.86428946,2.9294164,9.940304
68954756874204,-0.6234389,2.3404975,10.321953
68954776730333,0.57931876,2.3388538,10.375645
68954796586462,0.9487516,2.3070807,9.962911
68954816443823,1.9482801,3.032088,9.634204
68954836299952,2.7788477,4.1797748,9.557853
68954856156060,4.3292108,4.8470044,9.2432995
68954876012189,1.5247164,3.1729434,10.277254
68954895868318,1.7879874,1.257839,9.878772
68954915717487,2.1139607,2.452625,9.538675
68954935573488,2.8093338,5.0568547,9.513853
68954955429489,-2.300323,2.6813855,9.698078
68954975285490,-2.922147,0.5878543,9.2690325
68954995141491,-1.0562596,0.4983647,8.259984
68955014981250,1.0991559,3.0016348,8.648003
68955034836867,3.0462055,-0.77287346,9.478905
68955054692484,-2.112967,-3.9388273,7.794325
68955074548101,-2.8023174,-0.8926714,8.054425
68955094403718,-0.012369436,-0.5405964,10.118739
68955114246297,-0.6914702,-0.18725178,11.065464
68955134101530,-0.48121992,0.5065592,9.98079
68955153956763,1.2678185,-0.51415795,9.578613
68955173811996,2.4174795,-0.24087793,9.543198
68955193667229,0.8022066,0.7106237,10.450912
68955213513844,1.4827926,2.862904,10.433957
68955233368821,-1.0169063,1.8687001,12.120993
68955253223926,-0.9924313,0.9530347,10.927216
68955273078903,-0.21890108,0.68949443,10.917518
68955292933880,0.46612665,-0.34490424,12.0977125
68955312787207,1.2927824,-0.86811227,13.352881
68955332642161,3.7364922,8.922649,11.824831
68955352497266,3.2709703,7.674424,9.620113
68955372352243,2.4613204,5.636904,8.475639
68955392207220,2.4754112,6.285253,9.004852
68955412058821,3.146045,6.5622845,10.498245
68955431913670,3.3968582,6.3060813,10.471173
68955451768519,3.0439715,3.822756,9.55616
68955471623368,1.7894284,2.698831,7.4986963
68955491478217,-0.12270279,2.3964117,7.3639493
68955511331568,0.54367584,3.3439865,6.807991
68955531186289,1.5325481,3.3220272,7.99722
68955551041010,0.70141053,4.3891907,8.297763
68955570895731,2.5880399,3.0721126,6.5430627
68955590750580,-1.1725991,2.8905203,8.098477
68955610602729,-2.3242064,2.5707188,11.268222
68955630457450,0.9612409,0.34058073,10.134891
68955650312171,-2.223176,1.6526712,8.743622
68955670166892,-2.9668555,-2.0489604,8.48337
68955690021613,-1.1342984,0.7689655,8.421593
68955709879900,0.6630988,2.905207,9.750451
68955729734621,-1.114977,0.2945387,11.466862
68955749589342,-0.46637672,-1.3489182,11.206502
68955769444063,-0.8947425,1.2404941,11.385226
68955789298912,-1.5629977,1.218504,13.146754
68955809164270,2.759924,0.8943763,12.922188
68955829019247,3.2413683,1.7174215,11.124811
68955848874224,1.7303858,0.40239233,10.943469
68955868729201,1.133077,-1.3445115,11.396641
68955888584178,1.1354644,-0.41016155,11.348226
68955908435243,0.2987423,0.1361923,11.666673
68955928290220,-0.4390914,-0.9561807,11.776556
68955948145069,0.11180762,-0.9385379,10.039204
68955968000046,0.507529,-1.2537004,9.051837
68955987855023,-0.41176474,-2.0256739,9.2527075
68956007714208,-0.35018742,-1.2786384,8.969844
68956027569185,-0.13561775,-0.10988402,8.229296
68956047424290,-0.24222544,-0.106448546,7.835501
68956067279267,0.3976027,-0.5026329,7.4627976
68956087134244,1.1387149,-0.18999738,7.39459
68956106992483,0.71871036,-0.28492168,7.789964
68956126847588,0.7482028,-0.44997793,8.051371
68956146702693,1.4226913,1.0101683,14.942071
68956166557798,3.7266998,5.26085,2.0735223
68956186412903,0.16693637,0.013232399,5.5103755
68956206266782,-0.33352834,-3.0836582,8.766781
68956226121887,-0.7863168,-3.336852,8.860509
68956245976992,-1.3075477,-2.6875823,8.022861
68956265831969,-0.37013292,-2.75127,7.459636
68956285687053,1.3442564,2.386495,9.351698
68956305545028,1.4110769,1.8041052,9.562682
68956325400133,1.0193571,1.3929766,10.669678
68956345255238,0.46876177,2.743548,11.051467
68956365110343,0.87177634,3.1922078,7.170594
68956384965576,2.1361687,2.1382737,7.1755066
68956404825843,2.4889781,1.636141,9.01018
68956424681076,0.65040666,1.5301818,10.816772
68956444536437,-1.011158,1.9229882,10.395948
68956464391670,-0.28925288,1.7065609,9.178537
68956484247031,0.655484,1.7495929,8.666701
68956504102264,0.7220765,1.6786219,9.793798
68956523964391,-1.471536,1.6284028,9.4377985
68956543819880,-1.2466063,1.4816054,8.762229
68956563675369,1.4888815,0.6054723,10.687101
68956583530730,1.8898655,-0.07814369,11.849233
68956603386219,0.4675475,-0.38500226,11.3439865
68956623241062,0.210137,-0.21225315,10.826009
68956643096551,-2.023511,1.4444375,9.602091
68956662951912,-1.196903,1.7463155,8.308011
68956682807401,0.5166769,1.4308923,7.508168
68956702662890,-0.44116473,0.25121114,9.351843
68956722517915,-0.92669827,0.02916164,10.967628
68956742373404,-0.1259498,0.33491412,9.9493265
68956762228872,0.29905745,0.7973363,9.859794
68956782084233,0.49462482,0.99952245,10.229393
68956801939722,0.5159838,1.4585904,9.875426
68956821795077,-0.46891564,1.1224487,10.069027
68956841650438,-0.066528514,0.38065782,10.702571
68956861505927,0.975905,0.08567429,10.215325
68956881361416,1.4904153,0.44036895,9.036239
68956901216777,1.4685496,0.6959747,9.638717
68956921067652,0.725057,0.6519691,10.324161
68956940923004,0.2708585,0.6031964,9.986547
68956960778236,0.89450854,0.053919137,9.325685
68956980633596,1.6659504,-0.67144537,11.268859
68957000488956,-0.45434362,1.0137882,11.064607
68957020341556,-2.692287,2.5085683,8.03474
68957040196788,-2.4624996,2.0537484,5.664614
68957060052148,0.106791794,-0.1560994,8.945508
68957079907380,-0.2707685,0.23824617,10.838878
68957099762740,-0.532035,-0.14789417,11.235411
68957119607409,0.9075286,0.18686421,9.091378
68957139462513,-0.16960649,0.5128836,9.307863
68957159317617,-0.5239231,-0.06187618,9.938438
68957179172721,-0.10559964,-0.67265254,9.782822
68957199027825,-2.2469049,-1.6691917,10.458291
68957218877986,-1.7736964,-0.9736205,11.456142
68957238732962,-0.57547724,0.18671958,12.459493
68957258587938,-5.866537,0.20592494,12.763152
68957278442786,-5.690283,0.37066752,10.805323
68957298297763,-3.5052063,0.64033437,8.735688
68957318159187,-2.3406463,0.62342906,8.529467
68957338014163,-2.7538989,0.7520194,8.469389
68957357869268,-3.3715382,0.6658131,7.810285
68957377724371,-2.7331727,0.7339745,7.9178834
68957397578116,-0.38164368,0.6590951,8.058114
68957417433221,1.3619502,-0.025740191,8.192291
68957437288324,2.648276,0.2227517,8.408739
68957457143428,3.125986,0.6059526,8.14474
68957476998533,3.728996,1.4321193,8.02345
68957496853636,4.8459764,3.7681105,10.582754
68957516700091,4.89309,2.217206,14.59696
68957536554940,0.4284781,-2.6926594,15.75903
68957556409787,3.042096,2.5896425,9.407915
68957576264635,0.26592597,1.7337557,5.743486
68957596119484,-5.002476,-1.8051611,8.243771
68957615970875,-2.2494826,-2.9239185,10.048967
68957635825723,4.6677036,-1.5530031,9.781238
68957655680444,6.070364,-0.27281934,8.440334
68957675535291,-0.9574544,1.7588772,8.756712
68957695391791,-3.683618,2.403312,7.7608457
68957715246512,-0.47059125,2.2729359,8.217391
68957735101359,1.773258,1.8102669,10.917474
68957754956079,1.7904514,0.020321261,11.824855
68957774810928,2.2524862,-0.52227956,11.816791
68957794665647,2.2997706,0.96792024,11.986416
68957814524701,1.8289821,0.7521719,11.900475
68957834379550,2.0970113,0.816773,11.724243
68957854234397,1.4886131,1.4849374,11.387184
68957874089245,0.7069986,2.3921456,10.623713
68957893944094,0.2469977,3.279421,10.359597
68957913801155,-0.38325995,1.955027,9.886494
68957933656003,-0.7806186,0.027368728,9.534141
68957953510852,-0.6843778,-1.2021326,9.63772
68957973365827,-0.57396084,-1.5459472,9.8684435
68957993220675,-0.83201796,-2.0538898,9.749195
68958013075524,-0.47319305,-1.9451622,9.784852
68958032933458,0.20184068,0.24809161,10.0626335
68958052788306,0.56510824,0.77899355,10.031556
68958072643283,0.3026559,-0.1268382,10.22119
68958092498130,-0.020491779,-0.16866407,10.014106
68958112354107,-0.4172549,0.94246703,9.446053
68958132209084,-0.6611697,1.5788497,8.943897
68958152064059,-0.69950527,1.3303277,8.660974
68958171919035,-0.28503972,1.0102906,8.756108
68958191774012,-0.13466737,0.7691066,9.399045
68958211632811,-0.31902128,0.80271393,10.162849
68958231487915,-0.43200576,1.1358547,10.354375
68958251342892,-0.1881502,1.1668594,10.480985
68958271197995,-0.24011073,1.1739175,10.308362
68958291053099,-0.6159094,1.2404654,9.896743
68958310908076,-0.921327,1.4250182,9.662333
68958330767057,-0.48988461,1.4013801,9.727905
68958350622289,-0.159,1.0904784,9.832141
68958370477394,-0.16866043,1.2212943,9.647361
68958390332497,-0.1727754,1.2926842,9.311318
68958410197741,-0.43550497,1.482915,9.006725
68958430053102,-0.74867857,1.252998,8.596462
68958449908589,-0.40511492,0.4966143,8.426786
68958469763949,-0.112240806,0.5453758,8.751733
68958489619310,0.20399585,0.85308,9.431675
68958509485633,0.5183128,1.0268918,9.662307
68958529341249,0.05185093,1.2444458,9.227388
68958549196866,-0.20403428,1.5892029,9.139219
68958569052481,0.24526697,1.2174699,9.668644
68958588908097,0.35457838,0.81680727,9.539411
68958608763714,0.34464177,0.79958063,9.233776
68958628616688,0.22763279,1.097402,9.486984
68958648472304,0.20293525,1.2813677,9.709105
68958668327921,0.21535273,0.897862,9.604086
68958688183536,0.15337324,0.6749558,9.21023
68958708037993,0.23246263,0.6901983,9.294932
68958727893610,0.27894783,0.42710236,9.552906
68958747749097,0.28873655,-0.06644928,9.754711
68958767604713,0.15862691,0.029000552,9.792834
68958787460202,0.12608284,0.2391267,9.795236
68958807315817,0.16261154,0.41282046,10.219528
68958827164075,-0.04652382,0.5083826,10.394019
68958847019564,-0.60105634,0.51967454,9.859694
68958866874923,-0.6311257,0.47644806,9.285944
68958886730411,-0.26938993,0.4490792,9.299258
68958906585772,0.23509736,0.658122,10.225077
68958926444270,0.37976155,1.1100452,10.488515
68958946299758,-0.06268553,0.54663676,9.575087
68958966155375,-0.6048463,-0.24747118,8.43603
68958986010990,-1.0321162,0.5843787,8.97901
