UPTIMENANO,Ax,Ay,Az
68980847496496,-1.4465919,9.137,-1.1280543
68980867352881,-1.4681469999999999,9.139395,-1.1088941
68980887209266,-1.5112573999999999,9.163345,-1.1759547
68980907065651,-1.5208374,9.1849,-1.1903248
68980926922036,-1.5256275,9.249566,-1.1376343
68980946774703,-1.5040723,9.259146000000001,-1.1136841999999998
68980966630960,-1.4992822000000001,9.228010000000001,-1.1735597
68980986487217,-1.5232325,9.256751,-1.219065
68981006343474,-1.5184423999999999,9.259146000000001,-1.2166698999999999
68981026194527,-1.5088624,9.278306,-1.1999048
68981046050656,-1.5232325,9.290281,-1.1520045
68981065906785,-1.5280225,9.259146000000001,-1.1304493
68981085763042,-1.5399976,9.273516,-1.1543995
68981105619171,-1.5591576999999999,9.299861,-1.1687696
68981125469992,-1.5376027,9.307046000000001,-1.1639795
68981145326121,-1.5088624,9.309442,-1.1352394
68981165182250,-1.5208374,9.309442,-1.1448194
68981185038251,-1.5423926000000001,9.328602,-1.1687696
68981204894380,-1.5495777,9.362132,-1.1591895
68981224750509,-1.5639478,9.374106,-1.1184741000000002
68981244602846,-1.5639478,9.395662,-1.094524
68981264458847,-1.5567628,9.433982,-1.1064991000000002
68981284314698,-1.5423926000000001,9.462723,-1.1759547
68981304170699,-1.5352076000000001,9.455538,-1.1735597
68981324025072,-1.5519726999999999,9.501043,-1.1591895
68981343881073,-1.5735278999999998,9.522598,-1.1328443000000001
68981363736946,-1.5950831,9.508227999999999,-1.1256591999999999
68981383592947,-1.6070582,9.498648,-1.1639795
68981403448948,-1.5735278999999998,9.477093,-1.1831397
68981423302153,-1.5136524,9.501043,-1.1855347
68981443158026,-1.5256275,9.520203,-1.1160791
68981463013899,-1.5663428,9.515413,-1.096919
68981482869900,-1.587898,9.508227999999999,-1.1927198
68981502725773,-1.5783178999999998,9.508227999999999,-1.1711646
68981522581774,-1.5663428,9.503438000000001,-1.1400293
68981542429897,-1.5519726999999999,9.484278,-1.1663746000000002
68981562285514,-1.5735278999999998,9.467513,-1.1975098
68981582141259,-1.5567628,9.462723,-1.1999048
68981601997004,-1.5615528,9.508227999999999,-1.22625
68981621860039,-1.5735278999999998,9.544153,-1.1855347
68981641715912,-1.5950831,9.544153,-1.1472143999999997
68981661571913,-1.6142433,9.513017999999999,-1.1232642
68981681427786,-1.6118482,9.496253,-1.1352394
68981701283659,-1.5926881000000002,9.503438000000001,-1.2118799999999998
68981721139660,-1.587898,9.508227999999999,-1.2406201000000001
68981740990595,-1.6046631000000002,9.534574000000001,-1.1951148999999999
68981760846318,-1.5974781999999998,9.522598,-1.1472143999999997
68981780702063,-1.590293,9.517808,-1.1448194
68981800557936,-1.6046631000000002,9.536968,-1.1783496
68981820413681,-1.6190332,9.527389,-1.1831397
68981840264794,-1.5998731000000002,9.541758999999999,-1.1615845
68981860120411,-1.5783178999999998,9.517808,-1.1184741000000002
68981879976028,-1.5471827,9.496253,-1.1328443000000001
68981899831645,-1.5328126,9.498648,-1.22146
68981919687310,-1.5663428,9.570497999999999,-1.2334352
68981939542927,-1.583108,9.611214,-1.1999048
68981959398416,-1.5783178999999998,9.577683,-1.1160791
68981979254033,-1.585503,9.529783,-1.1041040000000002
68981999109650,-1.5495777,9.536968,-1.1879296999999998
68982018965139,-1.5112573999999999,9.558523,-1.2094848999999999
68982038825090,-1.5112573999999999,9.532178,-1.1879296999999998
68982058680707,-1.5735278999999998,9.558523,-1.1783496
68982078536324,-1.6190332,9.5489435,-1.1280543
68982098391941,-1.5807129,9.560919,-1.1160791
68982118247558,-1.5519726999999999,9.587264,-1.1472143999999997
68982138107521,-1.5232325,9.5561285,-1.2166698999999999
68982157963138,-1.5280225,9.527389,-1.2358301999999999
68982177818883,-1.5783178999999998,9.534574000000001,-1.1879296999999998
68982197674628,-1.6262183000000001,9.560919,-1.096919
68982217539003,-1.6214283,9.596844,-1.1472143999999997
68982237394855,-1.5998731000000002,9.570497999999999,-1.1663746000000002
68982257250856,-1.5447876,9.534574000000001,-1.1424243
68982277106729,-1.5567628,9.529783,-1.1615845
68982296962602,-1.5615528,9.529783,-1.223855
68982316818475,-1.5711329,9.520203,-1.2525953
68982336673366,-1.6118482,9.546548,-1.1855347
68982356529367,-1.6262183000000001,9.539363,-1.1256591999999999
68982376385240,-1.6166383,9.5489435,-1.1496094
68982396241113,-1.6190332,9.565708,-1.1831397
68982416097114,-1.6214283,9.544153,-1.1855347
68982435960809,-1.6022681,9.551338000000001,-1.1639795
68982455816938,-1.585503,9.577683,-1.1687696
68982475673067,-1.5926881000000002,9.520203,-1.2070899
68982495529196,-1.5950831,9.522598,-1.2070899
68982515385197,-1.575923,9.560919,-1.2070899
68982535241326,-1.587898,9.565708,-1.1759547
68982555104495,-1.6813037,9.584868,-1.1256591999999999
68982574960752,-1.6813037,9.5561285,-1.1639795
68982594817137,-1.6094532,9.515413,-1.2310401000000002
68982614673394,-1.5974781999999998,9.5633135,-1.2286451
68982634527963,-1.5998731000000002,9.553733,-1.1855347
68982654384348,-1.590293,9.539363,-1.1711646
68982674240605,-1.587898,9.560919,-1.1927198
68982694096862,-1.5926881000000002,9.551338000000001,-1.1903248
68982713953225,-1.5639478,9.572892999999999,-1.1879296999999998
68982733807470,-1.5519726999999999,9.572892999999999,-1.1975098
68982753663727,-1.5735278999999998,9.565708,-1.1687696
68982773519984,-1.5735278999999998,9.551338000000001,-1.1232642
68982793376241,-1.5567628,9.534574000000001,-1.1064991000000002
68982813232498,-1.5567628,9.534574000000001,-1.1496094
68982833088755,-1.5950831,9.524992999999998,-1.1831397
68982852948566,-1.583108,9.551338000000001,-1.1591895
68982872804951,-1.5807129,9.565708,-1.0825489
68982892661336,-1.6142433,9.587264,-1.0681788
68982912517721,-1.587898,9.584868,-1.101709
68982932376680,-1.5591576999999999,9.601633999999999,-1.1304493
68982952233065,-1.5807129,9.611214,-1.096919
68982972089450,-1.6046631000000002,9.587264,-1.0442286
68982991945963,-1.5639478,9.570497999999999,-1.0226734
68983011802348,-1.5399976,9.608819,-1.0825489
68983031650145,-1.575923,9.568104,-1.1591895
68983051506402,-1.585503,9.539363,-1.1304493
68983071362659,-1.5495777,9.5633135,-1.0825489
68983091218916,-1.5495777,9.582474000000001,-1.1232642
68983111075173,-1.6118482,9.541758999999999,-1.1520045
68983130931430,-1.6142433,9.515413,-1.1496094
68983150777027,-1.5615528,9.546548,-1.1855347
68983170633028,-1.5687379,9.587264,-1.1591895
68983190489006,-1.590293,9.601633999999999,-1.0202783000000002
68983210345007,-1.5663428,9.577683,-1.0466236
68983230208086,-1.5591576999999999,9.536968,-1.1783496
68983250064215,-1.5232325,9.529783,-1.1543995
68983269920344,-1.4849122,9.575289,-1.0921290000000001
68983289776601,-1.5160475,9.577683,-1.0825489
68983309632730,-1.590293,9.5633135,-1.1543995
68983329488987,-1.6070582,9.551338000000001,-1.1687696
68983349339498,-1.5615528,9.570497999999999,-1.1160791
68983369195499,-1.5447876,9.565708,-1.1136841999999998
68983389051628,-1.585503,9.5633135,-1.1615845
68983408907629,-1.5735278999999998,9.532178,-1.0801538
68983428763630,-1.5136524,9.529783,-1.0777588
68983448620319,-1.5016773,9.589659,-1.0921290000000001
68983468476320,-1.5256275,9.592053,-1.1280543
68983488332321,-1.5663428,9.5561285,-1.1184741000000002
68983508188322,-1.585503,9.565708,-1.0250684
68983528044609,-1.5352076000000001,9.592053,-1.0442286
68983547900610,-1.5423926000000001,9.584868,-1.0633887
68983567756611,-1.583108,9.584868,-1.1041040000000002
68983587612612,-1.6142433,9.5561285,-1.1567944
68983607468613,-1.6357985000000002,9.565708,-1.0801538
68983627324614,-1.6022681,9.594449000000001,-1.0562036
68983647176879,-1.5591576999999999,9.594449000000001,-1.089734
68983667032859,-1.5663428,9.539363,-1.1543995
68983686888732,-1.5711329,9.510622999999999,-1.1328443000000001
68983706744733,-1.5399976,9.524992999999998,-1.1112891000000003
68983726600606,-1.4920973,9.580078,-1.1041040000000002
68983746453505,-1.5112573999999999,9.596844,-1.0729688
68983766309378,-1.5519726999999999,9.522598,-1.0681788
68983786165251,-1.4968873,9.532178,-1.0825489
68983806021124,-1.5495777,9.644744000000001,-1.0514137
68983825875503,-1.590293,9.639954,-1.0083033000000001
68983845731376,-1.5447876,9.594449000000001,-0.9987232
68983865587249,-1.5399976,9.568104,-1.0370435
68983885442994,-1.5543678,9.596844,-1.0442286
68983905298867,-1.5232325,9.577683,-1.0394385
68983925154740,-1.4920973,9.520203,-1.1400293
68983945009821,-1.4873072,9.541758999999999,-1.1783496
68983964865694,-1.5280225,9.589659,-1.094524
68983984721439,-1.5735278999999998,9.587264,-1.0274634
68984004577184,-1.5974781999999998,9.584868,-1.0753639
68984024432929,-1.6334034,9.596844,-1.1280543
68984044292820,-1.6405883999999997,9.572892999999999,-1.0705738
68984064148693,-1.6046631000000002,9.5633135,-1.0681788
68984084004566,-1.5591576999999999,9.580078,-1.0825489
68984103860311,-1.5567628,9.5633135,-1.1639795
68984123716184,-1.585503,9.529783,-1.1855347
68984143572036,-1.6094532,9.558523,-1.1112891000000003
68984163430231,-1.5735278999999998,9.587264,-1.0801538
68984183286104,-1.5663428,9.596844,-1.0729688
68984203142105,-1.5926881000000002,9.601633999999999,-1.0729688
68984222997978,-1.5591576999999999,9.5561285,-1.1088941
68984242856839,-1.5471827,9.551338000000001,-1.089734
68984262712840,-1.5232325,9.570497999999999,-1.101709
68984282568841,-1.4753321000000001,9.544153,-1.0753639
68984302424714,-1.4825171,9.568104,-1.0538087
68984322280715,-1.5088624,9.582474000000001,-1.0490186000000001
68984342131194,-1.5184423999999999,9.572892999999999,-1.0849438999999999
68984361987067,-1.5328126,9.592053,-1.1088941
68984381842940,-1.5735278999999998,9.637559,-1.0681788
68984401698685,-1.585503,9.606423,-1.0298585
68984421554558,-1.5567628,9.575289,-1.094524
68984441410431,-1.5711329,9.568104,-1.1280543
68984461268078,-1.6046631000000002,9.575289,-1.0921290000000001
68984481123951,-1.5735278999999998,9.575289,-1.0538087
68984500979824,-1.5376027,9.534574000000001,-1.089734
68984520835825,-1.5447876,9.536968,-1.1112891000000003
68984540693466,-1.5711329,9.594449000000001,-1.0609937
68984560549467,-1.5543678,9.632769,-0.98914313
68984580405468,-1.5232325,9.606423,-0.96040285
68984600261469,-1.5184423999999999,9.584868,-0.9412427
68984620117446,-1.5160475,9.589659,-0.98195803
68984639966895,-1.4873072,9.5561285,-1.0106983
68984659822768,-1.4729371,9.544153,-0.97237796
68984679678513,-1.4897022,9.558523,-0.95561284
68984699534386,-1.4968873,9.5633135,-0.9867481
68984719390259,-1.4729371,9.553733,-1.0178833
68984739246132,-1.4681469999999999,9.580078,-0.9987232
68984759105187,-1.463357,9.639954,-0.9508228000000001
68984778961060,-1.4920973,9.592053,-0.93405765
68984798816933,-1.5519726999999999,9.539363,-0.92926764
68984818672678,-1.6070582,9.520203,-1.0035132
68984838526967,-1.5926881000000002,9.503438000000001,-1.0873389
68984858382712,-1.4992822000000001,9.541758999999999,-1.0873389
68984878238585,-1.4418018,9.565708,-0.9580079
68984898094458,-1.4944923,9.520203,-0.974773
68984917950331,-1.5447876,9.457932000000001,-1.1112891000000003
68984937806204,-1.5399976,9.457932000000001,-1.1376343
68984957655511,-1.5112573999999999,9.575289,-1.0585986
68984977511256,-1.4753321000000001,9.75731,-1.0083033000000001
68984997367001,-1.4873072,9.82437,-1.0562036
68985017222618,-1.5160475,9.793235000000001,-1.1400293
68985037078363,-1.4873072,9.70941,-1.1951148999999999
68985056938356,-1.5591576999999999,9.68067,-1.2430152
68985076794101,-1.7315991999999998,9.642349000000001,-1.2022998
68985096649952,-1.8920655,9.599238,-1.099314
68985116505697,-1.9279908,9.536968,-1.1064991000000002
68985136354884,-1.8321900000000002,9.493857,-1.3052857
68985156210629,-1.705254,9.493857,-1.4058765
68985176066246,-1.6214283,9.529783,-1.4058765
68985195921991,-1.6046631000000002,9.520203,-1.3507911
68985215777736,-1.6429833999999999,9.460327000000001,-1.1951148999999999
68985235633353,-1.6501685000000001,9.457932000000001,-1.0466236
68985255487092,-1.6238233,9.491463000000001,-1.1735597
68985275342709,-1.5232325,9.515413,-1.2525953
68985295198326,-1.4010864,9.575289,-1.094524
68985315053943,-1.2933106,9.637559,-0.974773
68985334909560,-1.2813355,9.656719,-0.9268726
68985354762977,-1.3962965,9.656719,-0.91010743
68985374618594,-1.4465919,9.630374,-0.8478370000000001
68985394474083,-1.3795313,9.606423,-0.78556645
68985414329700,-1.2741505,9.654325,-0.8382569
68985434178197,-1.3483961000000002,9.666299,-0.9053174
68985454033686,-1.4825171,9.594449000000001,-0.9388476999999998
68985473889047,-1.5615528,9.551338000000001,-0.9915381
68985493744408,-1.6094532,9.524992999999998,-1.0130934
68985513599769,-1.5974781999999998,9.529783,-1.0083033000000001
68985533455130,-1.5184423999999999,9.513017999999999,-1.0705738
68985553311557,-1.5208374,9.513017999999999,-1.1232642
68985573166898,-1.5567628,9.508227999999999,-1.1041040000000002
68985593022259,-1.5184423999999999,9.560919,-0.974773
68985612877620,-1.4441968,9.618399,-0.93405765
68985632732981,-1.3986914,9.695039999999999,-1.0106983
68985652585638,-1.3939015,9.733359,-1.1256591999999999
68985672440871,-1.4465919,9.711803999999999,-1.1304493
68985692296232,-1.5160475,9.6758795,-1.0585986
68985712151593,-1.5447876,9.608819,-1.0154883
68985732006826,-1.5663428,9.536968,-1.0657837
68985751862187,-1.5591576999999999,9.4435625,-1.1160791
68985771720316,-1.5304176,9.407638,-1.1831397
68985791575677,-1.5471827,9.422008,-1.2046948999999998
68985811431038,-1.587898,9.505833,-1.1472143999999997
68985831286399,-1.6357985000000002,9.577683,-1.1328443000000001
68985851142826,-1.6693287,9.570497999999999,-1.1448194
68985870998187,-1.7220191000000002,9.635164,-1.1232642
68985890853548,-1.7962648,9.654325,-1.094524
68985910709037,-1.8753004,9.601633999999999,-1.0873389
68985930564398,-1.8848804,9.544153,-1.1376343
68985950421599,-1.8250049,9.5633135,-1.1687696
68985970277088,-1.7315991999999998,9.594449000000001,-1.22146
68985990132449,-1.7004639,9.608819,-1.2358301999999999
68986009987810,-1.6908839,9.630374,-1.1927198
68986029843299,-1.6429833999999999,9.378897,-1.1831397
68986049698638,-1.5376027,9.216036,-1.214275
68986069559607,-1.4897022,9.642349000000001,-1.219065
68986089415096,-1.5615528,9.766891000000001,-1.1208692
68986109270713,-1.5998731000000002,9.582474000000001,-1.0849438999999999
68986129126202,-1.5399976,9.565708,-1.0514137
68986148983137,-1.3843212999999999,9.637559,-0.97237796
68986168838626,-1.2765454,9.654325,-0.81909674
68986188694243,-1.2478052,9.64714,-0.80712163
68986208549732,-1.3004956,9.616004,-0.9316626
68986228405349,-1.3507911,9.587264,-1.0083033000000001
68986248267280,-1.4058765,9.604028999999999,-1.0011181999999998
68986268122897,-1.4489869,9.642349000000001,-0.9963281999999999
68986287978642,-1.4394068000000002,9.522598,-0.9484278
68986307834259,-1.4441968,9.479486999999999,-0.9580079
68986327689876,-1.4441968,9.608819,-1.1328443000000001
68986347545493,-1.4944923,9.613608000000001,-1.2645704
68986367403902,-1.5591576999999999,9.584868,-1.1951148999999999
68986387259647,-1.5639478,9.572892999999999,-1.0801538
68986407115392,-1.5591576999999999,9.529783,-1.0250684
68986426971265,-1.5447876,9.584868,-1.0705738
68986446829210,-1.5687379,9.560919,-1.1232642
68986466685083,-1.5998731000000002,9.558523,-1.1376343
68986486540956,-1.6094532,9.584868,-1.1280543
68986506396701,-1.5735278999999998,9.536968,-1.1184741000000002
68986526252552,-1.5783178999999998,9.524992999999998,-1.1615845
68986546108425,-1.6094532,9.544153,-1.1687696
68986565973042,-1.6405883999999997,9.565708,-1.1639795
68986585829043,-1.6501685000000001,9.577683,-1.099314
68986605685044,-1.6765138,9.587264,-1.0106983
68986625541045,-1.6429833999999999,9.565708,-1.0466236
68986645397046,-1.5663428,9.534574000000001,-1.1400293
68986665256095,-1.5399976,9.560919,-1.1735597
68986685112224,-1.5519726999999999,9.580078,-1.1041040000000002
68986704968353,-1.5519726999999999,9.572892999999999,-1.0538087
68986724824482,-1.585503,9.553733,-1.0873389
68986744685769,-1.5998731000000002,9.572892999999999,-1.1088941
68986764542026,-1.6070582,9.596844,-1.0777588
68986784398283,-1.5783178999999998,9.587264,-1.0921290000000001
68986804254412,-1.575923,9.601633999999999,-1.1567944
68986824110669,-1.5783178999999998,9.565708,-1.1783496
68986843966926,-1.5711329,9.5489435,-1.1735597
68986863826871,-1.5519726999999999,9.546548,-1.1088941
68986883683256,-1.5495777,9.565708,-1.0609937
68986903539641,-1.5591576999999999,9.560919,-1.0849438999999999
68986923395898,-1.5615528,9.565708,-1.1543995
68986943252283,-1.5423926000000001,9.584868,-1.1783496
68986963108766,-1.5399976,9.620794,-1.1376343
68986982965151,-1.5376027,9.639954,-1.0490186000000001
68987002821513,-1.5567628,9.584868,-1.0514137
68987022677898,-1.583108,9.524992999999998,-1.1112891000000003
68987042534283,-1.5567628,9.520203,-1.1663746000000002
68987062390668,-1.4992822000000001,9.532178,-1.1639795
68987082244207,-1.5160475,9.582474000000001,-1.1064991000000002
68987102100592,-1.5663428,9.587264,-1.0466236
68987121956977,-1.5615528,9.580078,-1.101709
68987141813234,-1.575923,9.584868,-1.1543995
68987161659221,-1.5711329,9.599238,-1.0921290000000001
68987181515350,-1.5519726999999999,9.582474000000001,-1.0418334999999999
68987201371479,-1.5567628,9.5633135,-1.096919
68987221227608,-1.5950831,9.560919,-1.1639795
68987241083865,-1.5926881000000002,9.582474000000001,-1.1615845
68987260930488,-1.5639478,9.5489435,-1.1208692
68987280786361,-1.5615528,9.560919,-1.1280543
68987300642362,-1.587898,9.560919,-1.101709
68987320498235,-1.5950831,9.546548,-1.0873389
68987340354236,-1.5926881000000002,9.570497999999999,-1.0777588
68987360210109,-1.5687379,9.568104,-1.0705738
68987380056016,-1.5567628,9.582474000000001,-1.1064991000000002
68987399911761,-1.5711329,9.604028999999999,-1.1639795
68987419767506,-1.5615528,9.608819,-1.1567944
68987439623251,-1.5735278999999998,9.587264,-1.0753639
68987459469316,-1.575923,9.582474000000001,-1.0633887
68987479324783,-1.585503,9.541758999999999,-1.1041040000000002
68987499180272,-1.6094532,9.544153,-1.1232642
68987519035761,-1.583108,9.580078,-1.1041040000000002
68987538891378,-1.5208374,9.560919,-1.1064991000000002
68987558746867,-1.5543678,9.544153,-1.1591895
68987578594590,-1.6190332,9.580078,-1.1520045
68987598449823,-1.5807129,9.601633999999999,-1.0825489
68987618305184,-1.5112573999999999,9.599238,-1.0418334999999999
68987638160545,-1.4944923,9.582474000000001,-1.0394385
68987658015778,-1.5352076000000001,9.558523,-1.1184741000000002
68987677872201,-1.5519726999999999,9.553733,-1.1615845
68987697727562,-1.5328126,9.541758999999999,-1.1064991000000002
68987717582795,-1.5376027,9.582474000000001,-1.101709
68987737438156,-1.5352076000000001,9.596844,-1.094524
68987757296113,-1.5376027,9.572892999999999,-1.1160791
68987777151474,-1.5615528,9.587264,-1.099314
68987797006707,-1.5495777,9.601633999999999,-1.1256591999999999
68987816862068,-1.5208374,9.606423,-1.1352394
68987836717301,-1.5184423999999999,9.575289,-1.1208692
68987856572662,-1.5447876,9.580078,-1.1208692
68987876425249,-1.6046631000000002,9.544153,-1.1280543
68987896280482,-1.5711329,9.536968,-1.1639795
68987916135715,-1.5639478,9.568104,-1.2118799999999998
68987935990948,-1.5926881000000002,9.536968,-1.1711646
68987955846160,-1.5735278999999998,9.534574000000001,-1.1975098
68987975698419,-1.587898,9.541758999999999,-1.2525953
68987995553524,-1.6836988000000002,9.587264,-1.2094848999999999
68988015408629,-1.8082398000000002,9.704619000000001,-1.1639795
68988035263734,-1.7076490000000002,9.474698,-1.0418334999999999
68988055118047,-1.6310083999999998,9.546548,-1.219065
68988074973152,-1.587898,9.618399,-1.1112891000000003
68988094828129,-1.5040723,9.532178,-1.1424243
68988114683106,-1.5328126,9.529783,-1.22625
68988134538211,-1.6022681,9.568104,-1.096919
68988154393188,-1.5807129,9.570497999999999,-0.98914313
68988174253715,-1.5064673000000002,9.584868,-1.0322535
68988194108820,-1.477727,9.601633999999999,-0.9963281999999999
68988213963925,-1.477727,9.560919,-1.0274634
68988233819158,-1.5088624,9.587264,-1.0777588
68988253674263,-1.5280225,9.604028999999999,-1.0178833
68988273535232,-1.5112573999999999,9.570497999999999,-1.0346485
68988293390465,-1.5256275,9.539363,-1.1567944
68988313245698,-1.5591576999999999,9.565708,-1.2286451
68988333100931,-1.587898,9.570497999999999,-1.1496094
68988352956200,-1.5926881000000002,9.551338000000001,-1.1280543
68988372811433,-1.6142433,9.5633135,-1.1280543
68988392666794,-1.6190332,9.5633135,-1.1352394
68988412522027,-1.6094532,9.553733,-1.2094848999999999
68988432377367,-1.5998731000000002,9.560919,-1.2118799999999998
68988452232600,-1.5974781999999998,9.546548,-1.1424243
68988472100493,-1.5615528,9.558523,-1.1184741000000002
68988491955982,-1.5687379,9.611214,-1.1759547
68988511811599,-1.6549585999999998,9.627979,-1.219065
68988531667216,-1.6884888,9.575289,-1.219065
68988551522833,-1.6956740000000001,9.517808,-1.22625
68988571380750,-1.6860938,9.5489435,-1.1735597
68988591236495,-1.6501685000000001,9.568104,-1.1591895
68988611092240,-1.6070582,9.527389,-1.1879296999999998
68988630947857,-1.5471827,9.570497999999999,-1.1975098
68988650803602,-1.5567628,9.618399,-1.1615845
68988670659219,-1.5543678,9.565708,-1.1064991000000002
68988690526428,-1.5447876,9.551338000000001,-1.1064991000000002
68988710382429,-1.4968873,9.551338000000001,-1.1112891000000003
68988730238430,-1.4513819,9.582474000000001,-1.1256591999999999
68988750094431,-1.4705421,9.604028999999999,-1.0346485
68988769956736,-1.5016773,9.568104,-0.98195803
68988789812865,-1.5064673000000002,9.560919,-1.089734
68988809668994,-1.5016773,9.577683,-1.1687696
68988829525123,-1.4849122,9.592053,-1.1352394
68988849381252,-1.4897022,9.580078,-1.099314
68988869239093,-1.5543678,9.568104,-1.0921290000000001
68988889095350,-1.5998731000000002,9.572892999999999,-1.1400293
68988908951458,-1.5519726999999999,9.558523,-1.1855347
68988928807715,-1.5016773,9.553733,-1.223855
68988948663844,-1.5184423999999999,9.560919,-1.1975098
68988968520101,-1.5280225,9.541758999999999,-1.1184741000000002
68988988370896,-1.4992822000000001,9.544153,-1.1160791
68989008227025,-1.4849122,9.5561285,-1.1567944
68989028083154,-1.5280225,9.580078,-1.1543995
68989047939155,-1.5184423999999999,9.608819,-1.1352394
68989067786356,-1.5184423999999999,9.5489435,-1.1088941
68989087642229,-1.5711329,9.577683,-1.1376343
68989107498102,-1.6094532,9.546548,-1.1232642
68989127354103,-1.6118482,9.532178,-1.1615845
68989147209976,-1.5974781999999998,9.553733,-1.1903248
68989167060769,-1.5711329,9.587264,-1.1663746000000002
68989186916642,-1.5950831,9.604028999999999,-1.089734
68989206772387,-1.6070582,9.589659,-1.094524
68989226628132,-1.6501685000000001,9.587264,-1.1687696
68989246483877,-1.6813037,9.577683,-1.1711646
68989266339750,-1.6070582,9.560919,-1.1352394
68989286195477,-1.5088624,9.5633135,-1.1376343
68989306051222,-1.4801221000000002,9.604028999999999,-1.1879296999999998
68989325906967,-1.5112573999999999,9.587264,-1.2022998
68989345762840,-1.5471827,9.575289,-1.1711646
68989365612277,-1.5615528,9.580078,-1.0873389
68989385468001,-1.5232325,9.572892999999999,-1.089734
68989405323746,-1.4849122,9.565708,-1.1687696
68989425179491,-1.4825171,9.577683,-1.1831397
68989445035236,-1.4801221000000002,9.565708,-1.1496094
68989464890853,-1.4873072,9.5633135,-1.1735597
68989484744660,-1.4992822000000001,9.565708,-1.1951148999999999
68989504600277,-1.5256275,9.575289,-1.1496094
68989524455894,-1.5208374,9.584868,-1.1184741000000002
68989544311639,-1.5376027,9.580078,-1.1424243
68989564167256,-1.5543678,9.5561285,-1.1352394
68989584021057,-1.5543678,9.546548,-1.1687696
68989603876546,-1.5112573999999999,9.5633135,-1.1999048
68989623732163,-1.5016773,9.577683,-1.2046948999999998
68989643587780,-1.4920973,9.577683,-1.1711646
68989663444335,-1.5184423999999999,9.565708,-1.1543995
68989683299952,-1.5471827,9.575289,-1.1879296999999998
68989703155441,-1.5591576999999999,9.572892999999999,-1.1807446000000001
68989723011058,-1.5543678,9.5489435,-1.1472143999999997
68989742866547,-1.5160475,9.5633135,-1.1184741000000002
68989762722164,-1.5112573999999999,9.575289,-1.1951148999999999
68989782576087,-1.5399976,9.5633135,-1.2382251
68989802431576,-1.5735278999999998,9.5561285,-1.2046948999999998
68989822287065,-1.5591576999999999,9.565708,-1.1759547
68989842142554,-1.5687379,9.606423,-1.1903248
68989861998021,-1.583108,9.659114,-1.1543995
68989881855662,-1.5495777,9.673484,-1.1663746000000002
68989901711279,-1.5376027,9.666299,-1.2094848999999999
68989921566768,-1.5663428,9.635164,-1.2454101999999998
68989941422385,-1.6142433,9.596844,-1.2693603999999998
68989961278918,-1.6070582,9.580078,-1.2310401000000002
68989981134407,-1.587898,9.570497999999999,-1.219065
68990000989768,-1.5998731000000002,9.544153,-1.22625
68990020845257,-1.6381934999999999,9.513017999999999,-1.2621753
68990040700746,-1.6573536,9.529783,-1.2645704
68990060556235,-1.6070582,9.5633135,-1.22625
68990080410998,-1.5735278999999998,9.572892999999999,-1.1951148999999999
68990100266487,-1.5711329,9.596844,-1.22625
68990120121976,-1.585503,9.599238,-1.2094848999999999
68990139977465,-1.5807129,9.639954,-1.2334352
68990159832954,-1.575923,9.6615095,-1.2765454
68990179688591,-1.590293,9.711803999999999,-1.2549903
68990199544080,-1.6046631000000002,9.73815,-1.1735597
68990219399569,-1.5807129,9.754914999999999,-1.1591895
68990239254930,-1.5783178999999998,9.745335,-1.2358301999999999
68990259110419,-1.583108,9.75252,-1.2981006000000002
68990278965908,-1.590293,9.788445,-1.2813355
68990298827621,-1.590293,9.783655,-1.1855347
68990318683110,-1.5735278999999998,9.740545,-1.1999048
68990338538706,-1.5998731000000002,9.7740755,-1.2573853000000002
68990358394323,-1.6142433,9.79084,-1.2933106
68990378249348,-1.6549585999999998,9.73815,-1.2693603999999998
68990398104965,-1.6573536,9.745335,-1.2310401000000002
68990417960710,-1.5950831,9.764495,-1.2406201000000001
68990437816327,-1.5807129,9.793235000000001,-1.2454101999999998
68990457672072,-1.5807129,9.833950999999999,-1.2310401000000002
68990477535545,-1.5926881000000002,9.841136,-1.2645704
68990497391418,-1.6190332,9.860296,-1.2406201000000001
68990517247291,-1.6310083999999998,9.8866415,-1.2046948999999998
68990537103164,-1.6238233,9.908196,-1.2525953
68990556959037,-1.6214283,9.8938265,-1.2454101999999998
68990576814910,-1.6238233,9.865086,-1.2166698999999999
68990596672801,-1.6573536,9.872271000000001,-1.2406201000000001
68990616528674,-1.6789087,9.898616,-1.2909156000000002
68990636384675,-1.6765138,9.924961,-1.3124708
68990656240548,-1.6477735,9.956097,-1.2573853000000002
68990676098439,-1.6693287,9.948912,-1.2094848999999999
68990695954440,-1.6956740000000001,9.956097,-1.223855
68990715810441,-1.6836988000000002,9.956097,-1.2573853000000002
68990735666314,-1.6573536,9.996812,-1.2430152
68990755522315,-1.6286133999999999,10.025552000000001,-1.2382251
68990775383222,-1.6405883999999997,10.037527,-1.2382251
68990795239223,-1.6669337,10.049502,-1.2334352
68990815095332,-1.6405883999999997,10.063872,-1.214275
68990834951333,-1.5926881000000002,10.080638,-1.2310401000000002
68990854807462,-1.6118482,10.078242,-1.2645704
68990874663463,-1.6549585999999998,10.106983,-1.2621753
68990894517586,-1.6477735,10.1189575,-1.214275
68990914373587,-1.6166383,10.104588,-1.1879296999999998
68990934229588,-1.5974781999999998,10.116563000000001,-1.2525953
68990954085717,-1.6238233,10.166859,-1.2885206
68990973928006,-1.6693287,10.1189575,-1.2621753
68990993783751,-1.6956740000000001,10.097403,-1.1975098
68991013639496,-1.6573536,10.095008,-1.2022998
68991033495241,-1.6046631000000002,10.106983,-1.2525953
68991053350858,-1.6310083999999998,10.135722999999999,-1.2597803
68991073206603,-1.6429833999999999,10.150093,-1.2765454
68991093050212,-1.6693287,10.147698,-1.3100758
68991112905829,-1.7172291000000002,10.138117999999999,-1.2717555
68991132761318,-1.7148341,10.130933,-1.1855347
68991152616807,-1.6549585999999998,10.140513,-1.214275
68991172472296,-1.6501685000000001,10.126142999999999,-1.3292358999999998
68991192320599,-1.7028589,10.097403,-1.3843212999999999
68991212175960,-1.6980689999999998,10.130933,-1.3747413
68991232031321,-1.6884888,10.195599000000001,-1.3100758
68991251886682,-1.7124390999999999,10.176438000000001,-1.2621753
68991271739137,-1.705254,10.138117999999999,-1.2502003000000002
68991291594348,-1.6884888,10.102193,-1.2861254999999998
68991311449709,-1.6549585999999998,10.106983,-1.331631
68991331304942,-1.6741188000000002,10.102193,-1.3555812
68991351160175,-1.6549585999999998,10.111773,-1.3579761000000001
68991371015536,-1.6693287,10.128538,-1.3244458000000001
68991390866459,-1.7124390999999999,10.135722999999999,-1.3196558
68991410721564,-1.7124390999999999,10.157278,-1.2765454
68991430576797,-1.6860938,10.150093,-1.2549903
68991450431902,-1.6525636000000001,10.150093,-1.2981006000000002
68991470287135,-1.6525636000000001,10.162068,-1.331631
68991490145794,-1.6334034,10.188414,-1.3388159
68991510001027,-1.6645386000000002,10.181229,-1.2933106
68991529856132,-1.7172291000000002,10.154883,-1.2382251
68991549711365,-1.7076490000000002,10.169253,-1.2981006000000002
68991569566470,-1.7196240000000003,10.186019,-1.3747413
68991589421703,-1.7435743000000001,10.116563000000001,-1.3268408999999999
68991609278258,-1.7387843,10.123747999999999,-1.2717555
68991629133491,-1.7028589,10.174044,-1.2765454
68991648988596,-1.7411792000000001,10.166859,-1.3028906999999998
68991668843829,-1.7339942,10.140513,-1.3100758
68991688698264,-1.6525636000000001,10.126142999999999,-1.2957056999999998
68991708553369,-1.6094532,10.145303,-1.3028906999999998
68991728408474,-1.6262183000000001,10.152488,-1.3052857
68991748263707,-1.6884888,10.157278,-1.3028906999999998
68991768118791,-1.705254,10.159674,-1.331631
68991787981536,-1.6908839,10.145303,-1.3292358999999998
68991807836769,-1.7268091,10.145303,-1.3052857
68991827692130,-1.7699194999999999,10.114168,-1.3100758
68991847547363,-1.7339942,10.138117999999999,-1.3436059999999999
68991867402596,-1.7244141,10.174044,-1.334026
68991887257829,-1.7411792000000001,10.152488,-1.3244458000000001
68991907109568,-1.7292042,10.150093,-1.2669654
68991926964673,-1.6645386000000002,10.188414,-1.3028906999999998
68991946819906,-1.6908839,10.169253,-1.3172607
68991966675139,-1.7363893,10.147698,-1.3004956
68991986534176,-1.7339942,10.133328,-1.3076807
68992006389409,-1.705254,10.126142999999999,-1.2885206
68992026244514,-1.705254,10.128538,-1.3196558
68992046099747,-1.7268091,10.138117999999999,-1.3364209999999999
68992065954980,-1.7004639,10.138117999999999,-1.346001
68992085814041,-1.6908839,10.142908,-1.3028906999999998
68992105669274,-1.7172291000000002,10.164463,-1.3004956
68992125524635,-1.7268091,10.169253,-1.3244458000000001
68992145379868,-1.710044,10.154883,-1.3028906999999998
68992165235229,-1.6669337,10.147698,-1.3052857
68992185090590,-1.6597486000000001,10.205178,-1.3292358999999998
68992204953229,-1.6645386000000002,10.166859,-1.3412110000000002
68992224808718,-1.7124390999999999,10.157278,-1.2981006000000002
68992244664185,-1.6765138,10.164463,-1.2693603999999998
68992264519674,-1.6381934999999999,10.174044,-1.3004956
68992284380619,-1.6645386000000002,10.176438000000001,-1.2885206
68992304236236,-1.6621436,10.152488,-1.2621753
68992324091981,-1.6717237,10.142908,-1.2789403999999998
68992343947598,-1.7004639,10.157278,-1.2909156000000002
68992363803215,-1.6884888,10.126142999999999,-1.3148658000000002
68992383658960,-1.6645386000000002,10.147698,-1.3268408999999999
68992403519889,-1.6932789000000001,10.128538,-1.2957056999999998
68992423375762,-1.7244141,10.114168,-1.2957056999999998
68992443231635,-1.7459692999999998,10.135722999999999,-1.3028906999999998
68992463087508,-1.7124390999999999,10.135722999999999,-1.2909156000000002
68992482943381,-1.6789087,10.138117999999999,-1.3100758
68992502803008,-1.6789087,10.138117999999999,-1.2813355
68992522659137,-1.7004639,10.133328,-1.2478052
68992542515138,-1.6884888,10.090218,-1.2717555
68992562371139,-1.6884888,10.073453,-1.2837305
68992582225142,-1.6836988000000002,10.054293,-1.2837305
68992602081143,-1.6884888,10.032737,-1.2525953
68992621937144,-1.6836988000000002,10.008787,-1.2478052
68992641793145,-1.6836988000000002,10.030342,-1.2693603999999998
68992661649146,-1.6645386000000002,10.032737,-1.2981006000000002
68992681505147,-1.6453785,10.030342,-1.2909156000000002
68992701359758,-1.6573536,10.037527,-1.2549903
68992721215609,-1.6477735,10.032737,-1.2478052
68992741071610,-1.6813037,10.063872,-1.2789403999999998
68992760927483,-1.6860938,10.054293,-1.2837305
68992780783356,-1.6573536,9.977652,-1.2310401000000002
68992800638503,-1.6429833999999999,9.992022,-1.223855
68992820494376,-1.6286133999999999,9.980047,-1.2861254999999998
68992840350249,-1.6549585999999998,9.869876,-1.2885206
68992860206250,-1.6501685000000001,9.80521,-1.2693603999999998
68992880060435,-1.6166383,9.841136,-1.2454101999999998
68992899916308,-1.6190332,9.901011,-1.219065
68992919772181,-1.6429833999999999,9.968072,-1.1903248
68992939628054,-1.6621436,9.956097,-1.2118799999999998
68992959483799,-1.6597486000000001,9.865086,-1.2909156000000002
68992979339672,-1.6501685000000001,9.77647,-1.2502003000000002
68992999190717,-1.6357985000000002,9.742939999999999,-1.1903248
68993019046462,-1.6166383,9.726174,-1.1927198
68993038902079,-1.6405883999999997,9.72857,-1.219065
68993058757824,-1.6621436,9.735755000000001,-1.2645704
68993078613569,-1.6765138,9.83874,-1.2573853000000002
68993098456536,-1.6405883999999997,9.860296,-1.2022998
68993118312025,-1.6022681,9.903406,-1.1400293
68993138167514,-1.6022681,9.850716,-1.1687696
68993158023003,-1.6549585999999998,9.783655,-1.2406201000000001
68993177878492,-1.6573536,9.759705,-1.2573853000000002
68993197733961,-1.6501685000000001,9.726174,-1.2358301999999999
68993217585610,-1.6357985000000002,9.711803999999999,-1.214275
68993237440971,-1.6549585999999998,9.692644,-1.2645704
68993257296332,-1.6310083999999998,9.654325,-1.2741505
68993277151693,-1.6142433,9.651928999999999,-1.2909156000000002
68993297003122,-1.6286133999999999,9.654325,-1.2310401000000002
68993316858355,-1.6262183000000001,9.604028999999999,-1.1975098
68993336713716,-1.6118482,9.604028999999999,-1.2022998
68993356568949,-1.6238233,9.611214,-1.2478052
68993376424310,-1.575923,9.618399,-1.3004956
68993396282525,-1.5399976,9.606423,-1.2406201000000001
68993416137886,-1.5447876,9.630374,-1.1999048
68993435993247,-1.5735278999999998,9.654325,-1.2310401000000002
68993455848608,-1.6238233,9.613608000000001,-1.2502003000000002
68993475703969,-1.6453785,9.608819,-1.2813355
68993495559330,-1.6357985000000002,9.630374,-1.2382251
68993515410765,-1.6070582,9.649534,-1.1999048
68993535265998,-1.590293,9.604028999999999,-1.2094848999999999
68993555121231,-1.585503,9.572892999999999,-1.2885206
68993574976464,-1.5926881000000002,9.558523,-1.3244458000000001
68993594833203,-1.6190332,9.551338000000001,-1.2669654
68993614688436,-1.6405883999999997,9.520203,-1.2022998
68993634543669,-1.6214283,9.553733,-1.2621753
68993654398902,-1.6070582,9.575289,-1.2765454
68993674254114,-1.6190332,9.580078,-1.2406201000000001
68993694109445,-1.6429833999999999,9.575289,-1.2166698999999999
68993713964550,-1.6405883999999997,9.570497999999999,-1.22146
68993733819783,-1.6190332,9.5633135,-1.2573853000000002
68993753675016,-1.6142433,9.560919,-1.2406201000000001
68993773530249,-1.6310083999999998,9.558523,-1.1951148999999999
68993793385482,-1.6118482,9.575289,-1.2310401000000002
68993813244463,-1.6166383,9.587264,-1.2454101999999998
68993833099824,-1.6334034,9.604028999999999,-1.2166698999999999
68993852955057,-1.6070582,9.568104,-1.2070899
68993872810290,-1.5926881000000002,9.536968,-1.219065
68993892667811,-1.5807129,9.539363,-1.22146
68993912523172,-1.5543678,9.532178,-1.2334352
68993932378533,-1.5352076000000001,9.527389,-1.2334352
68993952233894,-1.5639478,9.5489435,-1.2310401000000002
68993972089127,-1.6022681,9.577683,-1.2286451
68993991944488,-1.6190332,9.599238,-1.1951148999999999
68994011803769,-1.6118482,9.627979,-1.1472143999999997
68994031659258,-1.5807129,9.596844,-1.1927198
68994051514619,-1.5950831,9.570497999999999,-1.2454101999999998
68994071369980,-1.6070582,9.568104,-1.2070899
68994091225341,-1.6214283,9.515413,-1.1687696
68994111079654,-1.5974781999999998,9.498648,-1.1903248
68994130935143,-1.5543678,9.517808,-1.2022998
68994150790482,-1.5232325,9.544153,-1.1927198
68994170645843,-1.5280225,9.565708,-1.1567944
68994190499266,-1.5447876,9.541758999999999,-1.1783496
68994210354627,-1.5783178999999998,9.546548,-1.2022998
68994230209860,-1.5735278999999998,9.553733,-1.1927198
68994250065221,-1.5615528,9.570497999999999,-1.1855347
68994269920582,-1.5687379,9.580078,-1.1975098
68994289775943,-1.6118482,9.570497999999999,-1.223855
68994309641776,-1.6214283,9.553733,-1.2070899
68994329497393,-1.5974781999999998,9.568104,-1.223855
68994349352882,-1.5783178999999998,9.575289,-1.1903248
68994369208499,-1.5807129,9.5489435,-1.2046948999999998
68994389064116,-1.6190332,9.520203,-1.2573853000000002
68994408924061,-1.6262183000000001,9.527389,-1.2454101999999998
68994428779806,-1.6142433,9.544153,-1.1951148999999999
68994448635551,-1.5950831,9.553733,-1.1927198
68994468491168,-1.5735278999999998,9.553733,-1.2094848999999999
68994488346913,-1.5735278999999998,9.582474000000001,-1.22146
68994508202658,-1.5663428,9.592053,-1.1927198
68994528058311,-1.5399976,9.604028999999999,-1.1615845
68994547914056,-1.5423926000000001,9.587264,-1.1663746000000002
68994567769801,-1.5208374,9.572892999999999,-1.2070899
68994587625674,-1.5160475,9.546548,-1.2525953
68994607481713,-1.5447876,9.544153,-1.22625
68994627337564,-1.5567628,9.544153,-1.1975098
68994647193309,-1.5304176,9.529783,-1.1376343
68994667049182,-1.5088624,9.529783,-1.1448194
68994686905055,-1.5184423999999999,9.541758999999999,-1.2094848999999999
68994706760800,-1.5304176,9.544153,-1.2549903
68994726612933,-1.6070582,9.508227999999999,-1.22625
68994746468550,-1.6214283,9.515413,-1.1879296999999998
68994766324295,-1.5615528,9.536968,-1.1999048
68994786179912,-1.5304176,9.560919,-1.2022998
68994806035657,-1.5376027,9.532178,-1.1999048
68994825887774,-1.5591576999999999,9.544153,-1.1831397
68994845743391,-1.5471827,9.539363,-1.2022998
68994865599008,-1.5687379,9.517808,-1.1975098
68994885454625,-1.590293,9.496253,-1.223855
68994905313168,-1.575923,9.453142,-1.2454101999999998
68994925168785,-1.5591576999999999,9.426797,-1.1999048
68994945024402,-1.5711329,9.417216999999999,-1.1807446000000001
68994964880019,-1.5471827,9.386082,-1.223855
68994984735764,-1.5447876,9.412427000000001,-1.2310401000000002
68995004591381,-1.5639478,9.433982,-1.2070899
68995024442878,-1.5807129,9.436378,-1.1663746000000002
68995044298495,-1.5974781999999998,9.417216999999999,-1.1831397
68995064153984,-1.5926881000000002,9.414823,-1.2070899
68995084009601,-1.5543678,9.419611999999999,-1.2406201000000001
68995103865195,-1.5352076000000001,9.405242,-1.2454101999999998
68995123713876,-1.5184423999999999,9.393267,-1.2166698999999999
68995143569237,-1.5376027,9.395662,-1.2094848999999999
68995163424726,-1.5376027,9.362132,-1.1807446000000001
68995183280215,-1.5280225,9.345366499999999,-1.1615845
68995203134132,-1.5160475,9.3309965,-1.1783496
68995222989493,-1.5088624,9.316627,-1.1975098
68995242844854,-1.4944923,9.304651,-1.1879296999999998
68995262700343,-1.456172,9.256751,-1.1639795
68995282555704,-1.465752,9.299861,-1.1639795
68995302411065,-1.4801221000000002,9.316627,-1.1975098
68995322259812,-1.4897022,9.256751,-1.1663746000000002
68995342115045,-1.5112573999999999,9.235196,-1.1064991000000002
68995361970278,-1.4729371,9.228010000000001,-1.1280543
68995381825511,-1.4298267,9.242381,-1.1615845
68995401680744,-1.4489869,9.278306,-1.1304493
68995421530527,-1.4753321000000001,9.249566,-1.101709
68995441385632,-1.4729371,9.268726,-1.1088941
68995461240737,-1.4801221000000002,9.271121,-1.0849438999999999
68995481095970,-1.4873072,9.216036,-1.0562036
68995500951075,-1.4489869,9.172925,-1.1112891000000003
68995520806180,-1.4489869,9.17053,-1.1615845
68995540659269,-1.4753321000000001,9.182506,-1.1543995
68995560514374,-1.4897022,9.192085,-1.1041040000000002
68995580369458,-1.4849122,9.125025,-1.0801538
68995600224563,-1.4705421,9.086704,-1.1136841999999998
68995620079574,-1.463357,9.110655,-1.1400293
68995639934679,-1.4873072,9.125025,-1.1184741000000002
68995659789784,-1.5208374,9.14179,-1.0490186000000001
68995679644889,-1.5160475,9.108259,-1.0130934
68995699499994,-1.4513819,9.038803999999999,-1.0585986
68995719352201,-1.4441968,8.988508,-1.1184741000000002
68995739207178,-1.4274316999999999,8.923843,-1.1472143999999997
68995759062155,-1.4346168,8.945397999999999,-1.1256591999999999
68995778917132,-1.5088624,8.981323,-1.0562036
68995798772109,-1.5232325,9.000483500000001,-1.0346485
68995818627086,-1.5136524,9.079519,-1.0777588
68995838478779,-1.4944923,9.134604,-1.1184741000000002
68995858333500,-1.4753321000000001,9.11784,-1.1184741000000002
68995878188349,-1.4968873,9.14658,-1.0849438999999999
68995898043198,-1.5112573999999999,9.105865,-1.0633887
68995917900833,-1.5376027,9.057964,-1.0657837
68995937755682,-1.5495777,9.038803999999999,-1.0657837
68995957610659,-1.453777,9.000483500000001,-1.1112891000000003
68995977465508,-1.4130616000000003,9.014853500000001,-1.1352394
68995997320485,-1.4322218,9.012459,-1.1112891000000003
68996017184568,-1.465752,8.962164,-1.0753639
68996037039673,-1.4992822000000001,8.950189,-1.0585986
68996056894755,-1.4825171,8.952583,-1.0202783000000002
68996076749860,-1.4920973,8.966953,-1.0705738
68996096604965,-1.4897022,8.986114,-1.1352394
68996116460070,-1.4873072,8.974138,-1.1304493
68996136315943,-1.4897022,8.995694,-1.1160791
68996156171048,-1.5064673000000002,9.036408999999999,-1.0873389
68996176026153,-1.5136524,9.036408999999999,-1.0729688
68996195881258,-1.5016773,9.024434,-1.099314
68996215738057,-1.5040723,9.036408999999999,-1.1088941
68996235593162,-1.4968873,9.012459,-1.1041040000000002
68996255448267,-1.5136524,9.012459,-1.0729688
68996275303372,-1.5184423999999999,9.010064,-1.0609937
68996295158477,-1.5040723,8.978928999999999,-1.1232642
68996315013582,-1.5016773,8.964559,-1.1400293
68996334876465,-1.5184423999999999,8.978928999999999,-1.096919
68996354731826,-1.5064673000000002,8.978928999999999,-1.0705738
68996374587059,-1.5040723,8.940608000000001,-1.0849438999999999
68996394442420,-1.5064673000000002,8.947792999999999,-1.1232642
68996414297781,-1.4920973,8.998089,-1.1543995
68996434156074,-1.4705421,8.974138,-1.096919
68996454011435,-1.4609618999999998,8.969349000000001,-1.0633887
68996473866796,-1.5088624,9.031619000000001,-1.099314
68996493722157,-1.4944923,8.995694,-1.1064991000000002
68996513590106,-1.4944923,8.976534,-1.0777588
68996533445829,-1.5016773,8.995694,-1.089734
68996553301446,-1.4705421,9.000483500000001,-1.1184741000000002
68996573157191,-1.463357,9.026829,-1.1064991000000002
68996593012936,-1.453777,9.014853500000001,-1.0585986
68996612868681,-1.465752,8.986114,-1.0849438999999999
68996632721824,-1.5112573999999999,8.954978,-1.0873389
68996652577569,-1.5136524,8.966953,-1.089734
68996672433314,-1.4897022,8.990903999999999,-1.1496094
68996692288931,-1.4968873,9.0076685,-1.1208692
68996712144676,-1.5136524,8.962164,-1.089734
68996732003079,-1.5016773,8.971744000000001,-1.089734
68996751858824,-1.4920973,8.993299,-1.1041040000000002
68996771714569,-1.5016773,8.971744000000001,-1.1064991000000002
68996791570314,-1.5064673000000002,8.976534,-1.099314
68996811422841,-1.5112573999999999,8.964559,-1.0753639
68996831278586,-1.5040723,8.971744000000001,-1.0801538
68996851134331,-1.477727,8.988508,-1.096919
68996870990076,-1.463357,8.969349000000001,-1.101709
68996890845821,-1.4681469999999999,8.995694,-1.1184741000000002
68996910701566,-1.4897022,9.005274,-1.0609937
68996930559591,-1.4849122,8.988508,-1.0178833
68996950415336,-1.4705421,9.002879,-1.0585986
68996970271209,-1.456172,8.986114,-1.1496094
68996990126954,-1.463357,8.981323,-1.214275
68997009982676,-1.5088624,9.022039,-1.1064991000000002
68997029837435,-1.4801221000000002,9.010064,-0.9963281999999999
68997049693180,-1.4441968,9.022039,-1.0083033000000001
68997069548925,-1.4465919,9.022039,-1.1328443000000001
68997089404670,-1.4465919,8.976534,-1.219065
68997109260415,-1.4729371,8.966953,-1.1807446000000001
68997129116160,-1.4705421,8.981323,-1.0609937
68997148962761,-1.4609618999999998,9.038803999999999,-1.0562036
68997168818250,-1.463357,9.065149,-1.0825489
68997188673867,-1.4609618999999998,9.069939999999999,-1.1088941
68997208529484,-1.453777,9.069939999999999,-1.1400293
68997228382389,-1.465752,9.072334,-1.1184741000000002
68997248237878,-1.4968873,9.048384,-1.1280543
68997268093495,-1.4825171,9.060359,-1.1256591999999999
68997287948984,-1.4729371,9.067544,-1.0753639
68997307804473,-1.4729371,9.065149,-1.0777588
68997327649826,-1.4729371,9.062755000000001,-1.1160791
68997347505187,-1.453777,9.057964,-1.1783496
68997367360420,-1.4489869,9.048384,-1.1472143999999997
68997387215781,-1.456172,9.08431,-1.0322535
68997407071142,-1.4849122,9.072334,-1.0083033000000001
68997426926375,-1.4753321000000001,9.041199,-1.096919
68997446780944,-1.4585668999999999,9.022039,-1.1735597
68997466636177,-1.4849122,9.031619000000001,-1.1831397
68997486491517,-1.4992822000000001,9.069939999999999,-1.1064991000000002
68997506346750,-1.465752,9.129814999999999,-1.0538087
68997526200423,-1.4705421,9.13221,-1.0466236
68997546055656,-1.456172,9.134604,-1.1280543
68997565910761,-1.4441968,9.14179,-1.1687696
68997585765994,-1.4849122,9.153765,-1.1160791
68997605621099,-1.5160475,9.148975,-1.0442286
68997625478746,-1.5040723,9.172925,-1.0322535
68997645333979,-1.477727,9.187294999999999,-1.1041040000000002
68997665189212,-1.4729371,9.228010000000001,-1.1472143999999997
68997685044445,-1.5136524,9.2328005,-1.1280543
68997704899678,-1.5280225,9.192085,-1.0370435
68997724754911,-1.5136524,9.189691,-1.0106983
68997744612808,-1.4585668999999999,9.189691,-1.0562036
68997764468041,-1.463357,9.211246000000001,-1.1424243
68997784323274,-1.5016773,9.249566,-1.1400293
68997804178507,-1.5112573999999999,9.266331,-1.0681788
68997824030382,-1.5112573999999999,9.287886,-1.0250684
68997843885615,-1.4992822000000001,9.295072,-1.0370435
68997863740720,-1.4897022,9.311836,-1.1280543
68997883595825,-1.4753321000000001,9.335787,-1.1615845
68997903451058,-1.5016773,9.364527,-1.1136841999999998
68997923306163,-1.5639478,9.371711999999999,-1.0418334999999999
68997943161692,-1.5926881000000002,9.335787,-1.0562036
68997963016774,-1.5543678,9.333391,-1.1663746000000002
68997982872007,-1.5088624,9.347761,-1.1879296999999998
68998002727112,-1.5280225,9.364527,-1.1855347
68998022582345,-1.5543678,9.366921000000001,-1.1232642
68998042444784,-1.5519726999999999,9.369317,-1.0633887
68998062300017,-1.5136524,9.388477,-1.1280543
68998082155378,-1.5088624,9.388477,-1.2118799999999998
68998102010611,-1.5232325,9.410032000000001,-1.1999048
68998121876316,-1.5423926000000001,9.469908,-1.1304493
68998141731933,-1.575923,9.453142,-1.0873389
68998161587422,-1.5639478,9.465117,-1.1136841999999998
68998181443039,-1.5519726999999999,9.515413,-1.1472143999999997
68998201298528,-1.5280225,9.513017999999999,-1.1735597
68998221154145,-1.5016773,9.520203,-1.1663746000000002
68998241009542,-1.5304176,9.498648,-1.0873389
68998260865159,-1.5495777,9.544153,-1.1160791
68998280720648,-1.5615528,9.560919,-1.1711646
68998300576137,-1.5591576999999999,9.532178,-1.1472143999999997
68998320431754,-1.5423926000000001,9.508227999999999,-1.1064991000000002
68998340287925,-1.5256275,9.505833,-1.1232642
68998360143542,-1.5256275,9.503438000000001,-1.1256591999999999
68998379999159,-1.5399976,9.517808,-1.094524
68998399854776,-1.5423926000000001,9.529783,-1.1112891000000003
68998419706657,-1.5423926000000001,9.515413,-1.1184741000000002
68998439562125,-1.5423926000000001,9.517808,-1.1064991000000002
68998459417614,-1.5519726999999999,9.524992999999998,-1.1256591999999999
68998479273231,-1.5399976,9.546548,-1.1472143999999997
68998499128720,-1.5352076000000001,9.5489435,-1.1352394
68998518984209,-1.5950831,9.560919,-1.1184741000000002
68998538842038,-1.5974781999999998,9.5561285,-1.1280543
68998558697783,-1.5663428,9.551338000000001,-1.1280543
68998578553400,-1.5495777,9.544153,-1.1352394
68998598409017,-1.5543678,9.529783,-1.1711646
68998618264634,-1.590293,9.541758999999999,-1.1424243
68998638122271,-1.5926881000000002,9.572892999999999,-1.0729688
68998657978016,-1.5711329,9.599238,-1.0418334999999999
68998677833761,-1.5687379,9.5561285,-1.089734
68998697689506,-1.5950831,9.544153,-1.1424243
68998717545251,-1.6022681,9.584868,-1.1472143999999997
68998737400996,-1.585503,9.541758999999999,-1.0873389
68998757256631,-1.575923,9.493857,-1.0921290000000001
68998777112376,-1.5950831,9.541758999999999,-1.1376343
68998796967993,-1.5926881000000002,9.575289,-1.096919
68998816823738,-1.5471827,9.580078,-1.094524
68998836678759,-1.5543678,9.618399,-1.1160791
68998856534376,-1.5998731000000002,9.642349000000001,-1.1160791
68998876390121,-1.6166383,9.606423,-1.0418334999999999
68998896245866,-1.6310083999999998,9.551338000000001,-1.0514137
68998916101460,-1.6286133999999999,9.513017999999999,-1.1376343
68998935956797,-1.575923,9.527389,-1.1256591999999999
68998955812414,-1.5304176,9.551338000000001,-1.0849438999999999
68998975668031,-1.5328126,9.570497999999999,-1.0873389
68998995523648,-1.5807129,9.5633135,-1.1088941
68999015379265,-1.585503,9.587264,-1.1520045
68999035234882,-1.590293,9.606423,-1.099314
68999055086123,-1.5783178999999998,9.596844,-1.0394385
68999074941612,-1.5711329,9.575289,-1.0370435
68999094797101,-1.5687379,9.558523,-1.1448194
68999114652718,-1.5639478,9.551338000000001,-1.1879296999999998
68999134503575,-1.5663428,9.5561285,-1.1328443000000001
68999154359064,-1.5687379,9.532178,-1.101709
68999174214553,-1.5687379,9.572892999999999,-1.1112891000000003
68999194069914,-1.5783178999999998,9.572892999999999,-1.1280543
68999213925403,-1.5711329,9.575289,-1.1520045
68999233777290,-1.590293,9.568104,-1.1208692
68999253632779,-1.6022681,9.565708,-1.099314
68999273488140,-1.5950831,9.592053,-1.099314
68999293343501,-1.590293,9.596844,-1.1088941
68999313198862,-1.5639478,9.553733,-1.1496094
68999333054223,-1.5639478,9.5561285,-1.1615845
68999352901246,-1.5974781999999998,9.589659,-1.1112891000000003
68999372756479,-1.5974781999999998,9.611214,-1.0753639
68999392611689,-1.583108,9.596844,-1.0346485
68999412466922,-1.5471827,9.587264,-1.0585986
68999432320839,-1.5423926000000001,9.601633999999999,-1.1520045
68999452175944,-1.590293,9.601633999999999,-1.1543995
68999472031049,-1.6166383,9.553733,-1.0538087
68999491886282,-1.6238233,9.544153,-0.977168
68999511741387,-1.5639478,9.544153,-1.0609937
68999531596492,-1.4968873,9.558523,-1.2166698999999999
68999551453723,-1.5256275,9.580078,-1.1567944
68999571308828,-1.5280225,9.589659,-1.0729688
68999591163933,-1.5543678,9.589659,-1.0514137
68999611019038,-1.6238233,9.584868,-1.0346485
68999630874143,-1.6238233,9.587264,-1.0059083
68999650725500,-1.5328126,9.568104,-1.0178833
68999670580477,-1.4729371,9.5633135,-1.1208692
68999690435582,-1.5088624,9.582474000000001,-1.1639795
68999710290687,-1.5543678,9.587264,-1.1328443000000001
68999730153954,-1.5423926000000001,9.608819,-1.0298585
68999750009187,-1.5256275,9.587264,-0.9699829
68999769864420,-1.5352076000000001,9.589659,-1.0394385
68999789719653,-1.5208374,9.570497999999999,-1.099314
68999809575014,-1.5184423999999999,9.568104,-1.0825489
68999829430247,-1.5016773,9.577683,-1.0298585
68999849283212,-1.4825171,9.608819,-1.0154883
68999869138423,-1.4849122,9.582474000000001,-1.0442286
68999888993528,-1.5112573999999999,9.587264,-1.0322535
68999908848761,-1.5136524,9.582474000000001,-1.0035132
68999928703994,-1.4992822000000001,9.568104,-1.0226734
68999948559203,-1.5136524,9.589659,-1.0490186000000001
68999968414436,-1.5423926000000001,9.627979,-0.974773
68999988269669,-1.5280225,9.623189,-0.9508228000000001
69000008124902,-1.5280225,9.553733,-0.98195803
69000027984273,-1.5399976,9.572892999999999,-1.094524
69000047839506,-1.5591576999999999,9.630374,-1.1424243
69000067694739,-1.5998731000000002,9.604028999999999,-1.0250684
69000087549972,-1.6334034,9.592053,-0.93405765
69000107405205,-1.587898,9.5633135,-0.97237796
69000127260566,-1.5160475,9.551338000000001,-1.0801538
69000147112513,-1.477727,9.584868,-1.0825489
69000166967618,-1.4753321000000001,9.601633999999999,-1.0202783000000002
69000186822851,-1.5088624,9.592053,-1.0442286
69000206677956,-1.5232325,9.580078,-1.0849438999999999
69000226533189,-1.5184423999999999,9.575289,-1.0873389
69000246389948,-1.5040723,9.565708,-1.1041040000000002
69000266245181,-1.5160475,9.568104,-1.0825489
69000286100414,-1.583108,9.594449000000001,-1.0633887
69000305955519,-1.5807129,9.577683,-1.0657837
69000325810752,-1.5232325,9.553733,-1.1208692
69000345665963,-1.463357,9.546548,-1.1472143999999997
69000365519118,-1.4370118,9.580078,-1.1208692
69000385374351,-1.456172,9.625584,-1.0202783000000002
69000405229456,-1.4992822000000001,9.616004,-0.9580079
69000425084689,-1.5040723,9.599238,-0.9987232
69000444942068,-1.4897022,9.596844,-1.1041040000000002
69000464797301,-1.5016773,9.580078,-1.1088941
69000484652534,-1.5160475,9.572892999999999,-1.0633887
69000504507767,-1.5304176,9.580078,-1.0035132
69000524363000,-1.5663428,9.604028999999999,-1.0011181999999998
69000544224675,-1.5735278999999998,9.580078,-1.0250684
69000564080036,-1.5615528,9.599238,-1.099314
69000583935525,-1.5399976,9.611214,-1.0130934
69000603791014,-1.5112573999999999,9.613608000000001,-0.8909473
69000623646375,-1.4705421,9.644744000000001,-0.86939216
69000643501864,-1.4034815,9.596844,-0.99393314
69000663357073,-1.4154567,9.5633135,-1.0130934
69000683212562,-1.4322218,9.606423,-0.9388476999999998
69000703067923,-1.4106666,9.594449000000001,-0.91010743
69000722923412,-1.4010864,9.604028999999999,-0.9148975
69000742784881,-1.4226416000000002,9.623189,-0.8669971
69000762640370,-1.4370118,9.613608000000001,-0.8981324
69000782495987,-1.4322218,9.575289,-0.977168
69000802351476,-1.4609618999999998,9.5489435,-0.9699829
69000822207071,-1.5064673000000002,9.589659,-0.9508228000000001
69000842061658,-1.5184423999999999,9.635164,-0.96040285
69000861917147,-1.5304176,9.592053,-0.98914313
69000881772764,-1.5711329,9.558523,-1.0035132
69000901628253,-1.590293,9.594449000000001,-1.0226734
69000921483870,-1.5471827,9.627979,-1.0873389
69000941339359,-1.5783178999999998,9.606423,-1.0801538
69000961185736,-1.6214283,9.580078,-1.0777588
69000981040969,-1.6357985000000002,9.551338000000001,-1.094524
69001000896330,-1.5998731000000002,9.532178,-1.1256591999999999
69001020751691,-1.5519726999999999,9.527389,-1.1256591999999999
69001040604906,-1.5663428,9.570497999999999,-1.1280543
69001060460139,-1.6190332,9.611214,-1.096919
69001080315500,-1.6118482,9.613608000000001,-1.0585986
69001100170733,-1.5471827,9.5633135,-1.1136841999999998
69001120025966,-1.5399976,9.568104,-1.1951148999999999
69001139881327,-1.5447876,9.587264,-1.1376343
69001159732108,-1.5639478,9.616004,-1.0346485
69001179587341,-1.5399976,9.580078,-1.0418334999999999
69001199442574,-1.4705421,9.551338000000001,-1.1591895
69001219297807,-1.453777,9.596844,-1.2430152
69001239153040,-1.4585668999999999,9.620794,-1.1639795
69001259003835,-1.477727,9.587264,-1.0250684
69001278858940,-1.4729371,9.570497999999999,-1.0705738
69001298714024,-1.4394068000000002,9.575289,-1.1615845
69001318569129,-1.4010864,9.611214,-1.1783496
69001338420308,-1.4394068000000002,9.620794,-1.094524
69001358275413,-1.5184423999999999,9.594449000000001,-1.0514137
69001378130390,-1.575923,9.5561285,-1.0442286
69001397985495,-1.585503,9.587264,-1.0562036
69001417840472,-1.5399976,9.587264,-1.0801538
69001437695577,-1.4753321000000001,9.594449000000001,-1.0873389
69001457552122,-1.4968873,9.604028999999999,-1.0202783000000002
69001477407227,-1.5543678,9.601633999999999,-0.9436377
69001497262204,-1.575923,9.570497999999999,-0.9484278
69001517117309,-1.5184423999999999,9.572892999999999,-1.0394385
69001536972286,-1.4944923,9.568104,-1.1472143999999997
69001556835297,-1.5280225,9.587264,-1.1400293
69001576690402,-1.583108,9.620794,-1.0106983
69001596545635,-1.6022681,9.599238,-0.9580079
69001616400740,-1.5543678,9.589659,-1.0322535
69001636255845,-1.4897022,9.584868,-1.1160791
69001656111078,-1.477727,9.596844,-1.1256591999999999
69001675965969,-1.5016773,9.568104,-1.0418334999999999
69001695821074,-1.5280225,9.575289,-0.98435307
69001715676307,-1.4992822000000001,9.572892999999999,-1.0466236
69001735531540,-1.4849122,9.565708,-1.1160791
69001755389059,-1.5232325,9.601633999999999,-1.094524
69001775244270,-1.5519726999999999,9.613608000000001,-1.0585986
69001795099503,-1.583108,9.568104,-1.0059083
69001814954736,-1.5615528,9.5633135,-1.0226734
69001834809969,-1.5567628,9.616004,-1.1232642
69001854667916,-1.5735278999999998,9.599238,-1.1328443000000001
69001874523149,-1.5711329,9.5561285,-1.0562036
69001894378382,-1.5423926000000001,9.5561285,-1.0083033000000001
69001914233743,-1.5280225,9.568104,-0.9987232
69001934088976,-1.5447876,9.601633999999999,-1.089734
69001953944209,-1.5471827,9.596844,-1.0873389
69001973805014,-1.5519726999999999,9.589659,-1.0705738
69001993660375,-1.5376027,9.604028999999999,-1.0154883
69002013515736,-1.5280225,9.604028999999999,-0.9987232
69002033370969,-1.5088624,9.589659,-1.0585986
69002053228932,-1.4968873,9.568104,-1.1088941
69002073084293,-1.5016773,9.558523,-1.0705738
69002092939654,-1.5136524,9.5561285,-1.0035132
69002112795143,-1.5232325,9.558523,-1.0274634
69002132650504,-1.5184423999999999,9.596844,-1.0705738
69002152505865,-1.5112573999999999,9.604028999999999,-1.0657837
69002172361854,-1.5208374,9.596844,-1.0178833
69002192217343,-1.5423926000000001,9.594449000000001,-0.977168
69002212072832,-1.5567628,9.599238,-0.9987232
69002231928193,-1.5376027,9.582474000000001,-1.0609937
69002251783660,-1.5136524,9.584868,-1.0777588
69002271635987,-1.5064673000000002,9.584868,-1.0585986
69002291491348,-1.5112573999999999,9.594449000000001,-1.0322535
69002311346709,-1.5352076000000001,9.568104,-1.0083033000000001
69002331202198,-1.5423926000000001,9.515413,-1.0178833
69002351063605,-1.5088624,9.477093,-1.0681788
69002370919094,-1.4873072,9.412427000000001,-1.0849438999999999
69002390774705,-1.4729371,9.359736,-1.0394385
69002410630321,-1.4681469999999999,9.359736,-0.98195803
69002430485938,-1.4968873,9.496253,-0.9915381
69002450341553,-1.5064673000000002,9.707015,-1.0442286
69002470197779,-1.4825171,9.78605,-1.0011181999999998
69002490053524,-1.5304176,9.817185,-0.94603276
69002509909139,-1.5543678,9.826766000000001,-0.92926764
69002529764755,-1.5567628,9.817185,-0.9364527
69002549620500,-1.5256275,9.766891000000001,-0.93405765
69002569473343,-1.4753321000000001,9.718989,-1.0011181999999998
69002589328959,-1.4465919,9.64714,-1.0801538
69002609184576,-1.4465919,9.604028999999999,-1.0514137
69002629040191,-1.456172,9.553733,-0.9963281999999999
69002648896767,-1.4609618999999998,9.491463000000001,-1.0178833
69002668752512,-1.4322218,9.433982,-1.0442286
69002688608127,-1.4801221000000002,9.433982,-1.0609937
69002708463743,-1.5256275,9.422008,-1.0585986
69002728319360,-1.4920973,9.469908,-1.0274634
69002748174975,-1.4825171,9.496253,-1.0849438999999999
69002768036498,-1.5352076000000001,9.524992999999998,-1.1975098
69002787892243,-1.6118482,9.539363,-1.1855347
69002807747858,-1.6286133999999999,9.618399,-1.1256591999999999
69002827603602,-1.6813037,9.702225,-1.1496094
69002847459347,-1.7124390999999999,9.759705,-1.1639795
69002867314688,-1.6908839,9.721385,-1.1543995
69002887170304,-1.6094532,9.6758795,-1.1999048
69002907026049,-1.5232325,9.639954,-1.1735597
69002926881794,-1.4346168,9.584868,-1.0777588
69002946737408,-1.3244458000000001,9.520203,-0.9699829
69002966593153,-1.2621753,9.515413,-0.8813671999999999
69002986442906,-1.2885206,9.608819,-0.8909473
69003006298395,-1.3555812,9.642349000000001,-0.9244776
69003026154012,-1.4346168,9.735755000000001,-0.9987232
69003046009498,-1.4465919,9.740545,-1.0106983
69003065850571,-1.4154567,9.630374,-0.9508228000000001
69003085705932,-1.4801221000000002,9.489068,-1.0154883
69003105561163,-1.5136524,9.431587,-1.1975098
69003125416036,-1.4441968,9.489068,-1.2046948999999998
69003145271269,-1.4178516,9.623189,-1.101709
69003165125694,-1.4968873,9.627979,-1.0609937
69003184980927,-1.6381934999999999,9.572892999999999,-1.1280543
69003204836288,-1.6669337,9.582474000000001,-1.1807446000000001
69003224691521,-1.5807129,9.594449000000001,-1.1352394
69003244546754,-1.5304176,9.594449000000001,-1.1064991000000002
69003264402115,-1.5232325,9.572892999999999,-1.1064991000000002
69003284249380,-1.4920973,9.5561285,-1.0442286
69003304104357,-1.4370118,9.546548,-0.9627979
69003323959462,-1.4010864,9.539363,-1.0154883
69003343814567,-1.4489869,9.539363,-1.0825489
69003363667648,-1.5280225,9.544153,-1.089734
69003383522625,-1.5040723,9.618399,-1.0657837
69003403377730,-1.463357,9.642349000000001,-1.0346485
69003423232707,-1.4705421,9.604028999999999,-1.1232642
69003443087684,-1.5663428,9.64714,-1.223855
69003462938403,-1.6286133999999999,9.730965,-1.2070899
69003482793380,-1.5974781999999998,9.726174,-1.096919
69003502648229,-1.5423926000000001,9.711803999999999,-1.0322535
69003522503078,-1.5352076000000001,9.623189,-1.1160791
69003542358055,-1.5232325,9.520203,-1.1376343
69003562212904,-1.4418018,9.469908,-1.0777588
69003582066145,-1.334026,9.433982,-1.096919
69003601921102,-1.3675561999999999,9.402847,-1.0585986
69003621775951,-1.4681469999999999,9.448353,-1.0226734
69003641630800,-1.5591576999999999,9.527389,-1.094524
69003661491371,-1.6453785,9.575289,-1.1041040000000002
69003681346348,-1.7268091,9.606423,-1.1112891000000003
69003701201325,-1.7747096000000002,9.692644,-1.1208692
69003721056302,-1.7220191000000002,9.75252,-1.0514137
69003740911407,-1.585503,9.7621,-0.97956306
69003760766384,-1.4729371,9.75252,-0.9627979
69003780627561,-1.4034815,9.637559,-1.0466236
69003800482666,-1.3651612,9.560919,-1.1184741000000002
69003820337771,-1.3771361999999998,9.546548,-1.0106983
69003840192748,-1.4202466,9.5489435,-0.90052736
69003860047853,-1.3771361999999998,9.515413,-0.95561284
69003879901990,-1.3891114,9.472302,-1.0059083
69003899756967,-1.4897022,9.486672,-1.0514137
69003919611944,-1.6142433,9.481883,-1.0801538
69003939466921,-1.6334034,9.508227999999999,-1.0873389
69003959326572,-1.6094532,9.587264,-1.0609937
69003979181677,-1.6262183000000001,9.683064,-1.0609937
69003999036782,-1.6453785,9.730965,-1.0298585
69004018891887,-1.5735278999999998,9.690249,-1.1280543
69004038746992,-1.5399976,9.678274,-1.101709
69004058602097,-1.5591576999999999,9.671089,-0.94603276
69004078454686,-1.4944923,9.649534,-0.9268726
69004098309791,-1.4944923,9.582474000000001,-1.0298585
69004118164768,-1.5567628,9.462723,-0.9436377
69004138019873,-1.5352076000000001,9.398057000000001,-0.9532178
69004157874850,-1.4897022,9.395662,-0.9699829
69004177734075,-1.4729371,9.453142,-0.96758795
69004197589180,-1.4681469999999999,9.575289,-0.97956306
69004217444285,-1.4322218,9.642349000000001,-1.0538087
69004237299390,-1.463357,9.7621,-1.1064991000000002
69004257163055,-1.5256275,9.865086,-1.1112891000000003
69004277018416,-1.5711329,9.848321,-1.0370435
69004296873649,-1.6405883999999997,9.778865,-0.9364527
69004316729010,-1.6310083999999998,9.671089,-0.99393314
69004336584243,-1.5256275,9.529783,-1.099314
69004356439476,-1.4681469999999999,9.424402,-1.1951148999999999
69004376301359,-1.4585668999999999,9.393267,-1.1543995
69004396156976,-1.4226416000000002,9.347761,-1.0801538
69004416012465,-1.4130616000000003,9.340575999999999,-1.0154883
69004435867954,-1.5016773,9.429193,-1.0226734
69004455723571,-1.5352076000000001,9.544153,-1.101709
69004475581182,-1.5136524,9.656719,-1.1041040000000002
69004495436799,-1.5016773,9.74773,-1.0753639
69004515292416,-1.5615528,9.7621,-1.0226734
69004535148033,-1.575923,9.735755000000001,-1.0250684
69004555003754,-1.5280225,9.721385,-1.1208692
69004574859371,-1.5184423999999999,9.692644,-1.1400293
69004594718042,-1.5280225,9.627979,-1.0729688
69004614573787,-1.4944923,9.594449000000001,-0.98195803
69004634429660,-1.4849122,9.568104,-1.0514137
69004654285405,-1.5016773,9.501043,-1.1855347
69004674139462,-1.4920973,9.460327000000001,-1.1807446000000001
69004693995207,-1.4034815,9.505833,-1.1304493
69004713850824,-1.4489869,9.498648,-1.0035132
69004733706569,-1.5256275,9.517808,-1.0298585
69004753562314,-1.5208374,9.546548,-1.1424243
69004773417583,-1.4849122,9.639954,-1.1639795
69004793273328,-1.4705421,9.68067,-1.0442286
69004813129073,-1.477727,9.64714,-1.0106983
69004832984690,-1.5184423999999999,9.671089,-1.0657837
69004852840435,-1.5232325,9.651928999999999,-1.1136841999999998
69004872696180,-1.4825171,9.616004,-1.0921290000000001
69004892553119,-1.4585668999999999,9.594449000000001,-1.094524
69004912408864,-1.4705421,9.544153,-1.1304493
69004932264481,-1.477727,9.565708,-1.1041040000000002
69004952120226,-1.5040723,9.584868,-1.096919
69004971967305,-1.4920973,9.592053,-1.101709
69004991822794,-1.4585668999999999,9.580078,-1.1328443000000001
69005011678411,-1.4489869,9.572892999999999,-1.1567944
69005031533878,-1.477727,9.592053,-1.1352394
69005051389495,-1.5208374,9.572892999999999,-1.1184741000000002
69005071230636,-1.4968873,9.541758999999999,-1.0753639
69005091085869,-1.4944923,9.575289,-1.0394385
69005110941102,-1.5280225,9.687855,-1.0394385
69005130796335,-1.5184423999999999,9.685459,-1.1687696
69005150651696,-1.5112573999999999,9.683064,-1.1567944
69005170506929,-1.453777,9.608819,-1.0514137
69005190358810,-1.3939015,9.546548,-1.089734
69005210213915,-1.3651612,9.606423,-1.1232642
69005230069020,-1.331631,9.649534,-1.1136841999999998
69005249924125,-1.2981006000000002,9.599238,-1.1831397
69005269778414,-1.4202466,9.553733,-1.1232642
69005289633519,-1.5615528,9.536968,-1.0777588
69005309488624,-1.5639478,9.508227999999999,-1.101709
69005329343601,-1.4705421,9.460327000000001,-1.1855347
69005349198706,-1.4418018,9.429193,-1.1855347
69005369053811,-1.4897022,9.589659,-1.1352394
69005388914022,-1.5160475,9.754914999999999,-1.1136841999999998
69005408769127,-1.465752,9.704619000000001,-1.0514137
69005428624360,-1.4346168,9.632769,-1.0609937
69005448479593,-1.4274316999999999,9.572892999999999,-1.1064991000000002
69005468334698,-1.4441968,9.553733,-1.1999048
69005488190217,-1.4801221000000002,9.580078,-1.096919
69005508045299,-1.3747413,9.572892999999999,-1.0035132
69005527900532,-1.2765454,9.558523,-1.0562036
69005547755637,-1.331631,9.551338000000001,-1.089734
69005567606678,-1.4729371,9.580078,-1.0394385
69005587461783,-1.5280225,9.678274,-1.0250684
69005607316888,-1.4944923,9.659114,-1.0154883
69005627171993,-1.4897022,9.618399,-0.98914313
69005647027098,-1.4968873,9.616004,-0.9987232
69005666882203,-1.4322218,9.589659,-1.0753639
69005686739648,-1.3986914,9.587264,-1.0035132
69005706594753,-1.4058765,9.572892999999999,-0.9053174
69005726449858,-1.4298267,9.539363,-0.94603276
69005746304835,-1.4370118,9.5489435,-1.0394385
69005766159940,-1.4082716,9.625584,-1.0585986
69005786023475,-1.3939015,9.666299,-1.0250684
69005805878708,-1.4441968,9.6758795,-0.9508228000000001
69005825733941,-1.5208374,9.64714,-0.91010743
69005845589174,-1.5399976,9.656719,-0.9268726
69005865446309,-1.5399976,9.635164,-0.9915381
69005885301670,-1.4992822000000001,9.575289,-1.0154883
69005905156903,-1.4346168,9.546548,-1.0250684
69005925012264,-1.4226416000000002,9.527389,-0.9532178
69005944867625,-1.4465919,9.522598,-0.9364527
69005964722858,-1.4609618999999998,9.5489435,-0.96758795
69005984575100,-1.4154567,9.592053,-0.98435307
69006004430461,-1.3555812,9.620794,-1.0346485
69006024285694,-1.453777,9.666299,-0.977168
69006044140927,-1.5663428,9.6686945,-0.9244776
69006063996160,-1.585503,9.642349000000001,-0.8885523000000001
69006083852249,-1.5040723,9.592053,-0.9364527
69006103707482,-1.3915064,9.582474000000001,-1.0202783000000002
69006123562715,-1.3627661,9.606423,-1.0609937
69006143418076,-1.3962965,9.587264,-0.98914313
69006163273309,-1.4394068000000002,9.570497999999999,-0.92208254
69006183128542,-1.4681469999999999,9.565708,-0.9580079
69006202985097,-1.4322218,9.582474000000001,-1.0226734
69006222840330,-1.3915064,9.625584,-1.0514137
69006242695691,-1.4394068000000002,9.6615095,-0.98195803
69006262550924,-1.465752,9.649534,-0.90052736
69006282411185,-1.4585668999999999,9.635164,-0.91010743
69006302266674,-1.4322218,9.601633999999999,-1.0106983
69006322122035,-1.4226416000000002,9.589659,-1.1136841999999998
69006341977524,-1.4394068000000002,9.601633999999999,-1.0250684
69006361832885,-1.4489869,9.584868,-0.9532178
69006381688996,-1.453777,9.589659,-0.99393314
69006401544485,-1.456172,9.575289,-1.0370435
69006421399974,-1.4418018,9.599238,-1.0609937
69006441255463,-1.4513819,9.630374,-1.0346485
69006461110930,-1.463357,9.627979,-0.9484278
69006480966291,-1.4441968,9.592053,-0.91729254
69006500828078,-1.4346168,9.584868,-0.974773
69006520683823,-1.4346168,9.589659,-1.0681788
69006540539440,-1.4489869,9.625584,-1.0178833
69006560395185,-1.4801221000000002,9.623189,-0.9867481
69006580243104,-1.477727,9.592053,-1.0106983
69006600098593,-1.465752,9.589659,-0.9915381
69006619954082,-1.4465919,9.630374,-0.9627979
69006639809699,-1.4370118,9.623189,-1.0154883
69006659665188,-1.4825171,9.613608000000001,-1.0490186000000001
69006679519311,-1.4729371,9.592053,-1.0370435
69006699374672,-1.4226416000000002,9.623189,-0.96040285
69006719230161,-1.4178516,9.627979,-0.9412427
69006739085522,-1.4609618999999998,9.601633999999999,-0.99393314
69006758940883,-1.4944923,9.596844,-1.0538087
69006778796372,-1.4681469999999999,9.580078,-1.0106983
69006798653305,-1.463357,9.608819,-0.9484278
69006818508794,-1.4585668999999999,9.592053,-1.0035132
69006838364283,-1.4418018,9.592053,-1.0633887
69006858219644,-1.4825171,9.589659,-1.0538087
69006878071569,-1.5136524,9.599238,-0.9915381
69006897926802,-1.5112573999999999,9.627979,-0.9508228000000001
69006917782163,-1.4609618999999998,9.632769,-0.97956306
69006937637502,-1.4441968,9.582474000000001,-1.0226734
69006957492863,-1.4513819,9.570497999999999,-1.0466236
69006977348224,-1.465752,9.594449000000001,-1.0035132
69006997200041,-1.4729371,9.606423,-0.9627979
69007017055402,-1.4873072,9.613608000000001,-0.9508228000000001
69007036910635,-1.4873072,9.606423,-1.0035132
69007056765996,-1.456172,9.594449000000001,-1.0585986
69007076621357,-1.463357,9.594449000000001,-1.0514137
69007096475036,-1.5088624,9.608819,-0.99393314
69007116330269,-1.5112573999999999,9.616004,-0.9651929
69007136185630,-1.4801221000000002,9.613608000000001,-0.9364527
69007156040863,-1.4489869,9.584868,-0.9627979
69007175887880,-1.4298267,9.589659,-1.0202783000000002
69007195742985,-1.4441968,9.604028999999999,-1.0298585
69007215598090,-1.4489869,9.592053,-0.977168
69007235453067,-1.4729371,9.584868,-0.96758795
69007255308172,-1.5088624,9.594449000000001,-0.96040285
69007275163149,-1.4489869,9.608819,-0.94603276
69007295020156,-1.4274316999999999,9.613608000000001,-0.97237796
69007314875133,-1.4418018,9.594449000000001,-0.99393314
69007334730238,-1.4609618999999998,9.601633999999999,-1.0035132
69007354585343,-1.5136524,9.601633999999999,-0.9867481
69007374440448,-1.5112573999999999,9.594449000000001,-0.9627979
69007394297643,-1.465752,9.606423,-0.9699829
69007414152854,-1.4298267,9.611214,-0.9915381
69007434007959,-1.453777,9.594449000000001,-1.0130934
69007453863192,-1.4729371,9.594449000000001,-1.0059083
69007473718413,-1.465752,9.592053,-1.0418334999999999
69007493573646,-1.4705421,9.611214,-1.0130934
69007513428751,-1.4753321000000001,9.623189,-0.98195803
69007533283984,-1.4944923,9.642349000000001,-0.9987232
69007553139089,-1.5064673000000002,9.692644,-0.9963281999999999
69007572994194,-1.4968873,9.7142,-0.97956306
69007592842625,-1.465752,9.7142,-0.9867481
69007612697602,-1.4729371,9.671089,-1.0154883
69007632552579,-1.4920973,9.632769,-1.0226734
69007652407556,-1.4873072,9.604028999999999,-1.0562036
69007672262661,-1.4753321000000001,9.584868,-1.0418334999999999
69007692120012,-1.4920973,9.580078,-1.0418334999999999
69007711975117,-1.4849122,9.618399,-1.0562036
69007731830094,-1.4849122,9.616004,-1.0514137
69007751685071,-1.4753321000000001,9.625584,-0.98914313
69007771540176,-1.4609618999999998,9.644744000000001,-1.0130934
69007791395153,-1.4585668999999999,9.608819,-1.094524
69007811259564,-1.5184423999999999,9.616004,-1.0538087
69007831114669,-1.5040723,9.651928999999999,-1.0059083
69007850969902,-1.4274316999999999,9.692644,-0.9915381
69007870825135,-1.4322218,9.735755000000001,-1.0490186000000001
69007890684095,-1.4968873,9.7621,-1.0609937
69007910539328,-1.5328126,9.778865,-1.0657837
69007930394561,-1.5280225,9.793235000000001,-1.0178833
69007950249922,-1.5280225,9.7740755,-1.0250684
69007970105155,-1.5280225,9.78605,-1.0418334999999999
69007989965874,-1.4873072,9.81958,-1.0418334999999999
69008009821235,-1.4897022,9.821976,-1.0130934
69008029676596,-1.5160475,9.7812605,-1.0226734
69008049531957,-1.5399976,9.759705,-1.1112891000000003
69008069387318,-1.5136524,9.766891000000001,-1.0777588
69008089242807,-1.4944923,9.78605,-1.0106983
69008109099108,-1.5352076000000001,9.78605,-1.0106983
69008128954597,-1.5543678,9.795630000000001,-0.9963281999999999
69008148809958,-1.5519726999999999,9.82437,-0.9412427
69008168665447,-1.5208374,9.879456,-0.94603276
69008188524368,-1.5040723,9.901011,-1.0418334999999999
69008208379857,-1.5184423999999999,9.915381,-1.0921290000000001
69008228235346,-1.5663428,9.924961,-1.0346485
69008248090835,-1.5615528,9.929751,-0.99393314
69008267946324,-1.5519726999999999,9.972861,-1.0442286
69008287805257,-1.5519726999999999,9.999207,-1.1160791
69008307660874,-1.5399976,10.011182000000002,-1.1328443000000001
69008327516363,-1.5543678,10.049502,-1.0729688
69008347371980,-1.5711329,10.011182000000002,-0.97237796
69008367227573,-1.5711329,9.975257000000001,-1.0035132
69008387083190,-1.5471827,9.946517,-1.1208692
69008406936679,-1.5184423999999999,9.989627,-1.1591895
69008426792296,-1.5519726999999999,10.023157000000001,-1.1088941
69008446647913,-1.5735278999999998,10.068663,-1.0106983
69008466503530,-1.5639478,10.049502,-1.0130934
69008486358631,-1.5519726999999999,10.066267999999999,-1.0801538
69008506214248,-1.5687379,10.111773,-1.096919
69008526069865,-1.5639478,10.133328,-1.1064991000000002
69008545925482,-1.5783178999999998,10.130933,-1.094524
69008565781099,-1.6286133999999999,10.128538,-1.1088941
69008585636716,-1.6262183000000001,10.140513,-1.1184741000000002
69008605494683,-1.6070582,10.130933,-1.1520045
69008625350300,-1.590293,10.150093,-1.1232642
69008645206045,-1.583108,10.164463,-1.0849438999999999
69008665061662,-1.6166383,10.152488,-1.1160791
69008684917407,-1.6214283,10.154883,-1.1232642
69008704770306,-1.6094532,10.162068,-1.1041040000000002
69008724625923,-1.590293,10.147698,-1.1232642
69008744481668,-1.5783178999999998,10.147698,-1.1472143999999997
69008764337285,-1.5974781999999998,10.159674,-1.1448194
69008784194920,-1.6046631000000002,10.133328,-1.0801538
69008804050665,-1.587898,10.166859,-1.1041040000000002
69008823906282,-1.583108,10.164463,-1.1304493
69008843761877,-1.5663428,10.174044,-1.1376343
69008863617494,-1.5735278999999998,10.214758999999999,-1.0873389
69008883473239,-1.5567628,10.195599000000001,-1.0873389
69008903330636,-1.583108,10.169253,-1.1352394
69008923186381,-1.6429833999999999,10.174044,-1.1639795
69008943041998,-1.6094532,10.169253,-1.1232642
69008962897743,-1.5495777,10.193204,-1.0849438999999999
69008982753488,-1.5423926000000001,10.188414,-1.0777588
69009002601595,-1.5687379,10.166859,-1.1472143999999997
69009022457212,-1.583108,10.174044,-1.1472143999999997
69009042312701,-1.5926881000000002,10.181229,-1.1184741000000002
69009062168318,-1.6118482,10.200389,-1.1256591999999999
69009082015519,-1.6286133999999999,10.205178,-1.1184741000000002
69009101870880,-1.6094532,10.197992999999999,-1.089734
69009121726369,-1.6094532,10.186019,-1.0849438999999999
69009141581730,-1.587898,10.166859,-1.1304493
69009161437091,-1.5926881000000002,10.188414,-1.1543995
69009181292452,-1.6310083999999998,10.202784,-1.1424243
69009201137097,-1.6429833999999999,10.200389,-1.0418334999999999
69009220992202,-1.6286133999999999,10.195599000000001,-1.0106983
69009240847307,-1.6166383,10.181229,-1.0609937
69009260702412,-1.585503,10.181229,-1.0801538
69009280557517,-1.5495777,10.200389,-1.1160791
69009300409632,-1.5663428,10.226734,-1.1041040000000002
69009320264587,-1.6094532,10.197992999999999,-1.0753639
69009340119692,-1.6525636000000001,10.164463,-1.089734
69009359974669,-1.6717237,10.162068,-1.1280543
69009379832542,-1.6190332,10.186019,-1.1567944
69009399687647,-1.6022681,10.183622999999999,-1.1352394
69009419542624,-1.6501685000000001,10.219549,-1.1208692
69009439397729,-1.6573536,10.224339,-1.1328443000000001
69009459252834,-1.6381934999999999,10.202784,-1.1184741000000002
69009479107939,-1.6262183000000001,10.207574000000001,-1.1064991000000002
69009498966098,-1.6238233,10.190808,-1.0921290000000001
69009518821203,-1.5926881000000002,10.193204,-1.1136841999999998
69009538676308,-1.587898,10.200389,-1.1352394
69009558531413,-1.5567628,10.186019,-1.1567944
69009578386646,-1.583108,10.178833000000001,-1.1639795
69009598236997,-1.587898,10.176438000000001,-1.1041040000000002
69009618092102,-1.583108,10.178833000000001,-1.094524
69009637947079,-1.5926881000000002,10.195599000000001,-1.1304493
69009657802184,-1.587898,10.217153999999999,-1.1160791
69009677657161,-1.587898,10.224339,-1.1256591999999999
69009697512266,-1.5950831,10.2315235,-1.1136841999999998
69009717363823,-1.590293,10.236314,-1.1232642
69009737218800,-1.5687379,10.219549,-1.1472143999999997
69009757073777,-1.5711329,10.186019,-1.1735597
69009776928626,-1.583108,10.186019,-1.1448194
69009796794381,-1.6238233,10.183622999999999,-1.1041040000000002
69009816649486,-1.6357985000000002,10.188414,-1.1041040000000002
69009836504719,-1.5998731000000002,10.162068,-1.1687696
69009856359824,-1.583108,10.164463,-1.1543995
69009876214929,-1.575923,10.183622999999999,-1.1208692
69009896071540,-1.590293,10.174044,-1.0849438999999999
69009915926773,-1.6118482,10.157278,-1.1184741000000002
69009935782006,-1.6070582,10.181229,-1.1615845
69009955637111,-1.5998731000000002,10.174044,-1.1184741000000002
69009975492344,-1.5807129,10.188414,-1.1160791
69009995347577,-1.6357985000000002,10.219549,-1.1112891000000003
69010015201384,-1.6573536,10.195599000000001,-1.1160791
69010035056489,-1.6334034,10.183622999999999,-1.1591895
69010054911594,-1.5926881000000002,10.195599000000001,-1.1639795
69010074766699,-1.6094532,10.197992999999999,-1.1112891000000003
69010094617086,-1.6094532,10.212363,-1.0753639
69010114472191,-1.5926881000000002,10.217153999999999,-1.089734
69010134327168,-1.575923,10.200389,-1.1160791
69010154182145,-1.587898,10.178833000000001,-1.1088941
69010174037250,-1.5950831,10.197992999999999,-1.101709
69010193894261,-1.5783178999999998,10.186019,-1.0777588
69010213749366,-1.583108,10.162068,-1.0633887
69010233604471,-1.587898,10.138117999999999,-1.0849438999999999
69010253459576,-1.5615528,10.128538,-1.1376343
69010273314659,-1.5447876,10.109378,-1.0825489
69010293169636,-1.5471827,10.083033,-1.0370435
69010313033305,-1.5783178999999998,10.071057000000001,-1.1112891000000003
69010332888538,-1.5950831,10.051897,-1.0921290000000001
69010352743771,-1.587898,10.047108,-1.0298585
69010372599004,-1.5567628,10.027947,-1.0538087
69010392463057,-1.5519726999999999,10.020762,-1.0801538
69010412318546,-1.585503,10.001602,-1.1280543
69010432174035,-1.5783178999999998,10.025552000000001,-1.1208692
69010452029524,-1.5663428,10.032737,-1.0753639
69010471885013,-1.5663428,10.042317,-1.0777588
69010491740374,-1.6142433,10.066267999999999,-1.1064991000000002
69010511602433,-1.6094532,10.047108,-1.0418334999999999
69010531458178,-1.5399976,10.037527,-1.0514137
69010551313795,-1.5328126,10.020762,-1.0633887
69010571169540,-1.5328126,9.963282000000001,-1.1304493
69010591025157,-1.5591576999999999,9.922566,-1.1424243
69010610882476,-1.5735278999999998,9.922566,-1.096919
69010630738221,-1.5783178999999998,9.901011,-1.0466236
69010650593966,-1.5639478,9.932146000000001,-1.0178833
69010670449583,-1.5423926000000001,9.924961,-1.0705738
69010690300824,-1.5447876,9.889036,-1.1160791
69010710156441,-1.5447876,9.869876,-1.0633887
69010730012058,-1.5615528,9.867481,-1.0154883
69010749867652,-1.5543678,9.855506,-0.99393314
69010769723397,-1.5376027,9.802814999999999,-1.0394385
69010789579014,-1.5184423999999999,9.7812605,-1.089734
69010809440117,-1.5088624,9.821976,-1.0825489
69010829295734,-1.5232325,9.841136,-1.0585986
69010849151479,-1.5735278999999998,9.82437,-1.0538087
69010869007224,-1.6357985000000002,9.817185,-1.0442286
69010888862969,-1.6022681,9.798025,-1.0250684
69010908720164,-1.5232325,9.807606,-0.9699829
69010928575909,-1.4992822000000001,9.742939999999999,-1.0921290000000001
69010948431654,-1.5423926000000001,9.742939999999999,-1.0681788
69010968287399,-1.590293,9.75252,-1.0154883
69010988137158,-1.6214283,9.704619000000001,-1.0418334999999999
69011007992775,-1.6166383,9.6758795,-0.9963281999999999
69011027848392,-1.5399976,9.685459,-0.9699829
69011047704137,-1.4897022,9.699829,-1.0059083
69011067559754,-1.5112573999999999,9.6758795,-1.0035132
69011087415371,-1.5160475,9.584868,-1.0609937
69011107266612,-1.5016773,9.582474000000001,-1.0681788
69011127122229,-1.5088624,9.623189,-0.95561284
69011146977846,-1.5328126,9.671089,-0.8813671999999999
69011166833463,-1.5016773,9.666299,-0.9268726
69011186689080,-1.4609618999999998,9.580078,-1.0585986
69011206533549,-1.4465919,9.592053,-1.1711646
69011226388890,-1.456172,9.654325,-1.0585986
69011246244251,-1.4609618999999998,9.656719,-0.9244776
69011266099612,-1.5352076000000001,9.651928999999999,-0.9508228000000001
69011285954973,-1.575923,9.651928999999999,-1.0394385
69011305810334,-1.5016773,9.678274,-1.0490186000000001
69011325660155,-1.4418018,9.687855,-0.977168
69011345515388,-1.4513819,9.663903999999999,-0.9963281999999999
69011365370621,-1.5064673000000002,9.601633999999999,-1.0538087
69011385225726,-1.5328126,9.601633999999999,-1.0681788
69011405081501,-1.5160475,9.625584,-1.0178833
69011424936734,-1.5040723,9.618399,-1.0130934
69011444791967,-1.5232325,9.616004,-1.0106983
69011464647328,-1.5352076000000001,9.599238,-1.0298585
69011484502561,-1.5112573999999999,9.580078,-1.0322535
69011504359946,-1.4849122,9.570497999999999,-1.0178833
69011524215307,-1.4849122,9.580078,-1.0681788
69011544070540,-1.5016773,9.587264,-1.094524
69011563925901,-1.5088624,9.582474000000001,-1.0514137
69011583781134,-1.5567628,9.623189,-1.0059083
69011603636367,-1.5399976,9.639954,-0.9915381
69011623483902,-1.5184423999999999,9.630374,-1.0346485
69011643339007,-1.4944923,9.630374,-1.0609937
69011663194112,-1.5016773,9.663903999999999,-1.0490186000000001
69011683049217,-1.5016773,9.635164,-1.0130934
69011702898441,-1.5184423999999999,9.594449000000001,-0.99393314
69011722753290,-1.5040723,9.551338000000001,-1.0562036
69011742608267,-1.4441968,9.558523,-1.1064991000000002
69011762463116,-1.4418018,9.5561285,-1.0538087
69011782318093,-1.4705421,9.565708,-1.0394385
69011802176580,-1.5016773,9.558523,-1.0059083
69011822031429,-1.4968873,9.5633135,-0.9963281999999999
69011841886406,-1.4968873,9.589659,-1.0298585
69011861741255,-1.477727,9.625584,-1.0609937
69011881596104,-1.4513819,9.637559,-1.0609937
69011901451081,-1.5328126,9.649534,-1.0011181999999998
69011921311726,-1.5639478,9.635164,-0.974773
69011941166703,-1.5256275,9.608819,-1.0083033000000001
69011961021808,-1.4992822000000001,9.580078,-1.0633887
69011980876785,-1.4897022,9.572892999999999,-1.0921290000000001
69012000731866,-1.5088624,9.565708,-1.0681788
69012020586843,-1.5184423999999999,9.536968,-0.98195803
69012040441948,-1.5016773,9.560919,-0.97237796
69012060296925,-1.5136524,9.565708,-1.0514137
69012080152030,-1.5232325,9.575289,-1.0585986
69012100007007,-1.5256275,9.565708,-1.0011181999999998
69012119864396,-1.5232325,9.565708,-0.97237796
69012139719501,-1.5519726999999999,9.5633135,-0.9627979
69012159574606,-1.5495777,9.587264,-0.98195803
69012179429561,-1.4920973,9.599238,-1.0466236
69012199284666,-1.4705421,9.663903999999999,-0.99393314
69012219146397,-1.5088624,9.707015,-0.94603276
69012239001630,-1.5232325,9.702225,-1.0035132
69012258856735,-1.5376027,9.637559,-0.98435307
69012278711968,-1.4873072,9.596844,-0.97237796
69012298567243,-1.4585668999999999,9.584868,-0.9987232
69012318422476,-1.453777,9.572892999999999,-0.9867481
69012338277709,-1.4920973,9.553733,-1.0106983
69012358132942,-1.5519726999999999,9.534574000000001,-1.0633887
69012377988047,-1.575923,9.534574000000001,-1.0849438999999999
69012397843280,-1.6190332,9.551338000000001,-0.97237796
69012417707443,-1.6046631000000002,9.570497999999999,-0.91010743
69012437562804,-1.5519726999999999,9.560919,-0.9388476999999998
69012457418293,-1.5567628,9.5633135,-1.0514137
69012477273782,-1.5543678,9.592053,-1.0633887
69012497129271,-1.5591576999999999,9.68067,-0.9987232
69012516991970,-1.5016773,9.663903999999999,-0.9244776
69012536847715,-1.4897022,9.649534,-0.9268726
69012556703332,-1.5112573999999999,9.623189,-1.0178833
69012576559077,-1.4825171,9.599238,-1.0538087
69012596409806,-1.5064673000000002,9.596844,-1.0466236
69012616265423,-1.5064673000000002,9.577683,-0.98195803
69012636120912,-1.4968873,9.565708,-0.977168
69012655976508,-1.5040723,9.570497999999999,-1.0035132
69012675832125,-1.5064673000000002,9.558523,-1.0226734
69012695687742,-1.5040723,9.532178,-1.0657837
69012715545571,-1.4968873,9.565708,-1.0490186000000001
69012735401316,-1.5184423999999999,9.596844,-1.0059083
69012755256933,-1.5064673000000002,9.572892999999999,-0.98195803
69012775112550,-1.4920973,9.625584,-0.9963281999999999
69012794968295,-1.4897022,9.637559,-1.0370435
69012814826548,-1.5088624,9.625584,-1.0538087
69012834682293,-1.5136524,9.635164,-1.0562036
69012854537910,-1.4944923,9.627979,-0.9987232
69012874393655,-1.5040723,9.632769,-0.977168
69012894249272,-1.4897022,9.625584,-1.0083033000000001
69012914105017,-1.4681469999999999,9.570497999999999,-1.0777588
69012933956738,-1.4729371,9.536968,-1.089734
69012953812355,-1.4992822000000001,9.508227999999999,-1.0633887
69012973667972,-1.5112573999999999,9.513017999999999,-1.0083033000000001
69012993523589,-1.4992822000000001,9.517808,-1.0250684
69013013375848,-1.5064673000000002,9.524992999999998,-1.0322535
69013033231465,-1.4920973,9.527389,-1.0490186000000001
69013053086954,-1.4897022,9.517808,-1.0130934
69013072942571,-1.4897022,9.520203,-1.0394385
69013092798060,-1.4801221000000002,9.508227999999999,-1.0059083
69013112641749,-1.4849122,9.532178,-1.0154883
69013132497090,-1.4968873,9.522598,-1.0106983
69013152352451,-1.4801221000000002,9.505833,-1.0514137
69013172207812,-1.4944923,9.503438000000001,-1.0633887
69013192063173,-1.5016773,9.513017999999999,-1.0226734
69013211918534,-1.4920973,9.484278,-0.98195803
69013231764405,-1.5064673000000002,9.465117,-0.9963281999999999
69013251619510,-1.4992822000000001,9.457932000000001,-1.0657837
69013271474615,-1.4825171,9.405242,-1.0609937
69013291329720,-1.4825171,9.402847,-1.0418334999999999
69013311176749,-1.4897022,9.402847,-1.0035132
69013331031598,-1.465752,9.388477,-0.9963281999999999
69013350886575,-1.4609618999999998,9.414823,-1.0059083
69013370741424,-1.4753321000000001,9.407638,-1.0202783000000002
69013390596401,-1.4897022,9.393267,-0.9987232
69013410451670,-1.4801221000000002,9.381292,-0.9508228000000001
69013430306647,-1.4441968,9.374106,-0.9388476999999998
69013450161496,-1.4394068000000002,9.378897,-0.99393314
69013470016473,-1.4418018,9.374106,-0.9651929
69013489871322,-1.4753321000000001,9.364527,-0.9580079
69013509726299,-1.4753321000000001,9.3309965,-0.977168
69013529584574,-1.4944923,9.321417,-0.94603276
69013549439423,-1.477727,9.307046000000001,-0.9364527
69013569294400,-1.4513819,9.280700999999999,-0.974773
69013589149377,-1.4226416000000002,9.268726,-1.0011181999999998
69013609002970,-1.4298267,9.237591,-1.0035132
69013628857819,-1.4489869,9.223221,-0.98914313
69013648712796,-1.465752,9.239985,-0.96040285
69013668567645,-1.4609618999999998,9.208851,-0.91010743
69013688422494,-1.4705421,9.201666000000001,-0.93405765
69013708277343,-1.4585668999999999,9.182506,-0.974773
69013728134516,-1.4585668999999999,9.18011,-0.98914313
69013747989365,-1.465752,9.19927,-0.97237796
69013767844214,-1.4441968,9.163345,-0.96040285
69013787699063,-1.4513819,9.148975,-1.0059083
69013807554040,-1.463357,9.1202345,-0.98914313
69013827410217,-1.4585668999999999,9.144185,-0.97956306
69013847265194,-1.4729371,9.19448,-0.9364527
69013867120043,-1.4585668999999999,9.223221,-0.9436377
69013886975020,-1.4202466,9.168135000000001,-0.97956306
69013906825755,-1.3915064,9.091495,-1.0226734
69013926680604,-1.3867163999999998,9.05557,-1.0011181999999998
69013946535453,-1.3891114,9.012459,-0.9244776
69013966390174,-1.4298267,8.966953,-0.8813671999999999
69013986245023,-1.4202466,8.909473,-0.97237796
69014006099872,-1.3723463,8.928633,-0.9963281999999999
69014025956939,-1.3196558,9.024434,-0.9436377
69014045811788,-1.3388159,9.093889,-0.8933423
69014065666637,-1.4202466,9.122630000000001,-0.8598120000000001
69014085521464,-1.4465919,9.1202345,-0.9148975
69014105376313,-1.4465919,9.16095,-0.9532178
69014125234276,-1.4465919,9.168135000000001,-0.974773
69014145089253,-1.4585668999999999,9.122630000000001,-0.9484278
69014164944102,-1.4681469999999999,9.067544,-0.9148975
69014184799079,-1.4370118,9.036408999999999,-0.9651929
69014204654428,-1.4010864,9.019644,-1.0298585
69014224509405,-1.3843212999999999,9.019644,-1.0322535
69014244364254,-1.4082716,8.976534,-0.94603276
69014264219231,-1.4441968,8.947792999999999,-0.8933423
69014284074080,-1.453777,8.964559,-0.90052736
69014303929057,-1.4130616000000003,8.988508,-0.95561284
69014323785090,-1.3819263000000002,9.002879,-1.0011181999999998
69014343640067,-1.3891114,9.029224000000001,-0.9867481
69014363495044,-1.4370118,9.038803999999999,-0.9268726
69014383350021,-1.453777,9.069939999999999,-0.9148975
69014403204998,-1.453777,9.069939999999999,-0.9651929
69014423063903,-1.4465919,9.072334,-0.9963281999999999
69014442919136,-1.4274316999999999,9.0891,-0.99393314
69014462774241,-1.4106666,9.062755000000001,-0.9508228000000001
69014482629346,-1.4058765,9.053174,-0.9412427
69014502484451,-1.4130616000000003,9.019644,-0.96758795
69014522339556,-1.4058765,8.981323,-1.0035132
69014542200957,-1.4010864,8.964559,-0.9867481
69014562056167,-1.3915064,8.950189,-0.9699829
69014581911528,-1.3986914,8.993299,-0.9508228000000001
69014601766761,-1.4250367,9.000483500000001,-0.94603276
69014621624720,-1.4226416000000002,9.024434,-0.9532178
69014641480081,-1.4298267,9.019644,-0.974773
69014661335442,-1.4274316999999999,9.017249000000001,-0.9627979
69014681190803,-1.4370118,9.043594,-0.9412427
69014701046164,-1.4202466,9.057964,-0.9627979
69014720898117,-1.4010864,9.031619000000001,-0.9915381
69014740753350,-1.4298267,9.038803999999999,-0.98435307
69014760608583,-1.4298267,9.034013999999999,-0.99393314
69014780463944,-1.4346168,9.017249000000001,-0.96758795
69014800319177,-1.4418018,9.0076685,-0.9484278
69014820174410,-1.4298267,8.998089,-0.96758795
69014840025151,-1.4178516,8.988508,-0.98914313
69014859880256,-1.4370118,8.988508,-0.98914313
69014879735489,-1.4322218,8.990903999999999,-0.9532178
69014899590594,-1.4322218,9.005274,-0.92926764
69014919444657,-1.4202466,9.029224000000001,-0.9029224
69014939299762,-1.4178516,9.019644,-0.95561284
69014959154867,-1.4178516,8.998089,-0.9987232
69014979009844,-1.4346168,9.024434,-0.94603276
69014998864949,-1.4178516,9.072334,-0.9196875
69015018718628,-1.3891114,9.048384,-0.91010743
69015038573582,-1.3795313,9.043594,-0.9484278
69015058428687,-1.3962965,9.057964,-0.9963281999999999
69015078283664,-1.3939015,9.026829,-0.9699829
69015098138769,-1.3939015,8.990903999999999,-0.97237796
69015117993746,-1.4034815,8.983719,-0.92926764
69015137851319,-1.4010864,9.002879,-0.974773
69015157706424,-1.3651612,9.036408999999999,-1.0011181999999998
69015177561529,-1.3627661,9.026829,-0.9627979
69015197416634,-1.3771361999999998,9.012459,-0.9388476999999998
69015217269003,-1.4034815,8.988508,-0.9484278
69015237124108,-1.3843212999999999,8.988508,-0.9532178
69015256979085,-1.346001,9.031619000000001,-0.9867481
69015276834190,-1.3627661,9.019644,-0.9963281999999999
69015296689295,-1.4010864,9.026829,-0.96758795
69015316544400,-1.4370118,9.036408999999999,-0.92208254
69015336399429,-1.4058765,9.012459,-0.96040285
69015356254534,-1.3771361999999998,9.024434,-1.0083033000000001
69015376109639,-1.3771361999999998,9.050778999999999,-1.0035132
69015395964744,-1.3819263000000002,9.022039,-0.96758795
69015415819849,-1.4082716,9.017249000000001,-0.9412427
69015435679788,-1.4130616000000003,9.000483500000001,-0.9508228000000001
69015455535021,-1.3843212999999999,9.000483500000001,-0.98435307
69015475390254,-1.3699511999999998,9.014853500000001,-0.9963281999999999
69015495245487,-1.3699511999999998,9.034013999999999,-0.96040285
69015515106057,-1.3843212999999999,9.060359,-0.9532178
69015534961290,-1.4082716,9.093889,-0.974773
69015554816651,-1.4106666,9.108259,-0.9651929
69015574671884,-1.3651612,9.110655,-0.9627979
69015594527117,-1.3699511999999998,9.10347,-0.94603276
69015614382478,-1.4130616000000003,9.122630000000001,-0.93405765
69015634238455,-1.4130616000000003,9.09868,-0.97237796
69015654093688,-1.4106666,9.105865,-1.0035132
69015673949049,-1.4082716,9.1202345,-0.99393314
69015693804282,-1.4010864,9.15137,-0.9532178
69015713659643,-1.4130616000000003,9.158555,-0.9412427
69015733516120,-1.4058765,9.158555,-0.9532178
69015753371481,-1.4082716,9.14179,-1.0178833
69015773226842,-1.4370118,9.16574,-0.9963281999999999
69015793082075,-1.453777,9.17053,-0.93405765
69015812936846,-1.4418018,9.201666000000001,-0.9484278
69015832792207,-1.4298267,9.230406,-0.9963281999999999
69015852647568,-1.4298267,9.2328005,-1.0202783000000002
69015872502801,-1.4489869,9.237591,-1.0490186000000001
69015892358162,-1.4394068000000002,9.256751,-1.0035132
69015912213523,-1.453777,9.244776,-0.9627979
69015932067952,-1.4441968,9.259146000000001,-0.9699829
69015951923185,-1.456172,9.283096,-1.0130934
69015971778546,-1.4394068000000002,9.271121,-0.9963281999999999
69015991633755,-1.4226416000000002,9.271121,-1.0011181999999998
69016011489116,-1.4394068000000002,9.302257,-1.0083033000000001
69016031348587,-1.4585668999999999,9.319021000000001,-1.0202783000000002
69016051203948,-1.453777,9.340575999999999,-0.9627979
69016071059309,-1.4298267,9.342972,-0.96040285
69016090914670,-1.456172,9.333391,-1.0442286
69016110770031,-1.4753321000000001,9.354947,-1.0514137
69016130625392,-1.5016773,9.405242,-0.9484278
69016150486993,-1.463357,9.412427000000001,-0.94603276
69016170342610,-1.4130616000000003,9.395662,-0.977168
69016190198099,-1.3986914,9.417216999999999,-1.0226734
69016210053588,-1.4322218,9.419611999999999,-1.0657837
69016229911229,-1.4753321000000001,9.402847,-1.0202783000000002
69016249766846,-1.4944923,9.400452,-0.9316626
69016269622335,-1.453777,9.426797,-0.9196875
69016289477952,-1.4226416000000002,9.460327000000001,-0.9915381
69016309333569,-1.4178516,9.484278,-1.0490186000000001
69016329181426,-1.4274316999999999,9.510622999999999,-1.0442286
69016349036915,-1.453777,9.508227999999999,-0.9699829
69016368892404,-1.4681469999999999,9.486672,-0.9388476999999998
69016388747893,-1.4705421,9.510622999999999,-0.9987232
69016408603382,-1.4441968,9.522598,-1.0705738
69016428458871,-1.4729371,9.532178,-1.0490186000000001
69016448312806,-1.4944923,9.5633135,-1.0298585
69016468168147,-1.4825171,9.5561285,-1.0083033000000001
69016488023636,-1.4513819,9.572892999999999,-1.0250684
69016507879125,-1.463357,9.565708,-1.0370435
69016527737466,-1.4825171,9.544153,-1.0538087
69016547592955,-1.4825171,9.5561285,-1.0011181999999998
69016567448444,-1.4609618999999998,9.553733,-0.98914313
69016587303933,-1.4609618999999998,9.577683,-1.0466236
69016607159422,-1.4585668999999999,9.570497999999999,-1.0633887
69016627013803,-1.4465919,9.568104,-1.0154883
69016646869292,-1.453777,9.577683,-0.9699829
69016666724781,-1.4489869,9.560919,-1.0178833
69016686580270,-1.453777,9.558523,-1.0681788
69016706435759,-1.4681469999999999,9.560919,-1.0585986
69016726291248,-1.4585668999999999,9.577683,-1.0394385
69016746149395,-1.4322218,9.5489435,-1.0202783000000002
69016766004884,-1.4441968,9.596844,-1.0346485
69016785860501,-1.4920973,9.618399,-1.0681788
69016805715990,-1.4920973,9.592053,-1.0274634
69016825562611,-1.4849122,9.584868,-0.97956306
69016845417972,-1.4705421,9.584868,-1.0083033000000001
69016865273205,-1.4729371,9.558523,-1.0202783000000002
69016885128566,-1.465752,9.572892999999999,-1.0657837
69016904983927,-1.4681469999999999,9.613608000000001,-1.0825489
69016924839160,-1.4849122,9.639954,-1.0226734
69016944694295,-1.4920973,9.601633999999999,-0.9651929
69016964549528,-1.5016773,9.582474000000001,-1.0274634
69016984404889,-1.5016773,9.596844,-1.0777588
69017004260122,-1.4753321000000001,9.599238,-1.0250684
69017024115355,-1.4681469999999999,9.604028999999999,-0.9699829
69017043966218,-1.4825171,9.553733,-0.97956306
69017063821323,-1.4968873,9.572892999999999,-1.0681788
69017083676556,-1.4968873,9.613608000000001,-1.0490186000000001
69017103531789,-1.4825171,9.613608000000001,-1.0490186000000001
69017123378044,-1.5280225,9.618399,-1.0178833
69017143233149,-1.5232325,9.616004,-0.9867481
69017163088126,-1.4920973,9.608819,-0.9436377
69017182943231,-1.4801221000000002,9.596844,-1.0083033000000001
69017202798208,-1.4920973,9.592053,-1.0825489
69017222653313,-1.4705421,9.5489435,-1.0466236
69017242503774,-1.463357,9.568104,-0.98435307
69017262358751,-1.5040723,9.620794,-0.9867481
69017282213728,-1.5184423999999999,9.620794,-1.0298585
69017302068577,-1.5040723,9.644744000000001,-1.0418334999999999
69017321923554,-1.4968873,9.613608000000001,-1.0442286
69017341775241,-1.4825171,9.594449000000001,-1.0130934
69017361630090,-1.5184423999999999,9.592053,-0.9699829
69017381484939,-1.477727,9.582474000000001,-1.0106983
69017401339788,-1.477727,9.5561285,-1.0801538
69017421195808,-1.4825171,9.541758999999999,-1.0777588
69017441050657,-1.477727,9.606423,-1.0322535
69017460905506,-1.5040723,9.637559,-0.974773
69017480760227,-1.4849122,9.618399,-0.9651929
69017500615076,-1.4897022,9.618399,-1.0130934
69017520469925,-1.4992822000000001,9.604028999999999,-1.0059083
69017540323208,-1.5016773,9.570497999999999,-1.0083033000000001
69017560177929,-1.4992822000000001,9.584868,-1.0250684
69017580032650,-1.456172,9.604028999999999,-1.0274634
69017599887499,-1.453777,9.592053,-1.0490186000000001
69017619742220,-1.4897022,9.599238,-1.0226734
69017639600289,-1.5256275,9.604028999999999,-1.0298585
69017659455010,-1.5136524,9.611214,-1.0106983
69017679309859,-1.4825171,9.606423,-0.98195803
69017699164708,-1.4920973,9.589659,-0.98195803
69017719021051,-1.4801221000000002,9.580078,-0.98914313
69017738875900,-1.4394068000000002,9.575289,-1.0011181999999998
69017758730877,-1.4418018,9.570497999999999,-1.0418334999999999
69017778585726,-1.5064673000000002,9.599238,-1.0777588
69017798440575,-1.4801221000000002,9.627979,-1.0226734
69017818295424,-1.4753321000000001,9.637559,-0.96758795
69017838154857,-1.4897022,9.584868,-0.9867481
69017858009834,-1.5112573999999999,9.560919,-1.0705738
69017877864811,-1.4944923,9.606423,-1.0442286
69017897719765,-1.465752,9.637559,-0.9867481
69017917574742,-1.4418018,9.611214,-0.97237796
69017937428939,-1.456172,9.608819,-1.0178833
69017957283916,-1.4513819,9.644744000000001,-1.0514137
69017977138765,-1.4418018,9.639954,-1.0274634
69017996993614,-1.456172,9.606423,-1.0130934
69018016848591,-1.4729371,9.587264,-0.98435307
69018036703440,-1.453777,9.608819,-1.0178833
69018056564591,-1.4418018,9.627979,-0.99393314
69018076419568,-1.4178516,9.618399,-1.0322535
69018096274673,-1.4346168,9.553733,-1.0657837
69018116129650,-1.453777,9.486672,-1.0059083
69018135983513,-1.4298267,9.474698,-0.977168
69018155838490,-1.4226416000000002,9.532178,-0.9987232
69018175693467,-1.4513819,9.572892999999999,-1.0346485
69018195548572,-1.4489869,9.644744000000001,-1.0705738
69018215403549,-1.4609618999999998,9.73815,-1.0442286
69018235259788,-1.477727,9.788445,-1.0154883
69018255114893,-1.4681469999999999,9.77168,-1.0226734
69018274969998,-1.4681469999999999,9.702225,-1.0106983
69018294824975,-1.4825171,9.627979,-1.0274634
69018314680080,-1.4873072,9.539363,-1.0490186000000001
69018334535185,-1.4753321000000001,9.484278,-0.9867481
69018354345544,-1.4370118,9.453142,-0.9915381
69018374199859,-1.4178516,9.453142,-1.0753639
69018394054068,-1.4034815,9.498648,-1.101709
69018413908405,-1.4130616000000003,9.568104,-1.0825489
69018433767680,-1.453777,9.632769,-1.0370435
69018453621889,-1.5088624,9.70941,-0.9963281999999999
69018473476226,-1.5495777,9.70941,-0.9963281999999999
69018493330563,-1.5304176,9.678274,-0.98435307
69018513184900,-1.5064673000000002,9.620794,-1.0130934
69018533062323,-1.4465919,9.630374,-1.0394385
69018552917172,-1.4058765,9.616004,-1.0370435
69018572772021,-1.3819263000000002,9.565708,-1.0178833
69018592626742,-1.4058765,9.484278,-1.0585986
69018612481591,-1.3986914,9.426797,-1.0418334999999999
69018632336312,-1.4058765,9.524992999999998,-1.0059083
69018652200291,-1.4130616000000003,9.589659,-0.9987232
69018672055268,-1.4753321000000001,9.695039999999999,-1.0466236
69018691910245,-1.5136524,9.848321,-1.0083033000000001
69018711765094,-1.4202466,9.879456,-0.974773
69018731629847,-1.3747413,9.826766000000001,-0.974773
69018751484952,-1.3843212999999999,9.718989,-0.99393314
69018771339929,-1.3627661,9.544153,-1.0322535
69018791195034,-1.331631,9.453142,-1.0130934
69018811050139,-1.3364209999999999,9.431587,-1.101709
69018830906756,-1.3843212999999999,9.433982,-1.1831397
69018850761841,-1.3795313,9.474698,-1.1543995
69018870616946,-1.3723463,9.577683,-1.0250684
69018890472051,-1.3867163999999998,9.683064,-1.0083033000000001
69018910327156,-1.4322218,9.68067,-1.0657837
69018930182261,-1.4154567,9.692644,-1.0801538
69018950040152,-1.3939015,9.718989,-1.0202783000000002
69018969895257,-1.3962965,9.692644,-0.974773
69018989750490,-1.346001,9.616004,-0.97237796
69019009605595,-1.2789403999999998,9.577683,-0.977168
69019029467276,-1.2382251,9.553733,-1.1041040000000002
69019049322637,-1.3028906999999998,9.520203,-1.1328443000000001
69019069177998,-1.3627661,9.558523,-1.0609937
69019089033231,-1.3843212999999999,9.620794,-1.0226734
69019108888592,-1.3962965,9.651928999999999,-1.0370435
69019128742331,-1.4034815,9.6686945,-1.0394385
69019148597692,-1.3627661,9.683064,-1.0011181999999998
69019168452925,-1.3244458000000001,9.639954,-1.0585986
69019188308286,-1.331631,9.618399,-1.1208692
69019208163519,-1.331631,9.584868,-1.0873389
69019228018880,-1.334026,9.534574000000001,-0.9867481
69019247879015,-1.3028906999999998,9.510622999999999,-1.0729688
69019267734504,-1.3004956,9.5489435,-1.1520045
69019287589865,-1.3196558,9.606423,-1.1064991000000002
69019307445354,-1.3436059999999999,9.697434,-1.0274634
69019327294659,-1.4106666,9.766891000000001,-0.96758795
69019347150020,-1.4753321000000001,9.817185,-0.9436377
69019367005381,-1.3699511999999998,9.716595,-1.0274634
69019386860742,-1.2406201000000001,9.644744000000001,-1.1448194
69019406716103,-1.2837305,9.572892999999999,-1.1328443000000001
69019426571464,-1.3603711,9.510622999999999,-1.0130934
69019446427185,-1.3723463,9.479486999999999,-0.9867481
69019466282546,-1.3603711,9.462723,-1.0657837
69019486138035,-1.3364209999999999,9.493857,-1.1400293
69019505993396,-1.2669654,9.565708,-1.1472143999999997
69019525848885,-1.2549903,9.649534,-1.1543995
69019545714220,-1.3436059999999999,9.72378,-1.1735597
69019565569837,-1.4801221000000002,9.721385,-1.1448194
69019585425454,-1.5184423999999999,9.70941,-1.0921290000000001
69019605281199,-1.4705421,9.6758795,-1.1136841999999998
69019625139132,-1.4441968,9.580078,-1.1999048
69019644995005,-1.4370118,9.541758999999999,-1.22625
69019664850878,-1.4298267,9.534574000000001,-1.2358301999999999
69019684706623,-1.4513819,9.560919,-1.2022998
69019704562496,-1.4154567,9.606423,-1.1543995
69019724418369,-1.3771361999999998,9.6615095,-1.0729688
69019744275338,-1.3220508,9.711803999999999,-1.0538087
69019764131211,-1.2406201000000001,9.678274,-1.1280543
69019783987212,-1.22146,9.656719,-1.099314
69019803843063,-1.219065,9.606423,-0.97956306
69019823698936,-1.1999048,9.601633999999999,-0.97956306
69019843552449,-1.223855,9.592053,-1.0705738
69019863408450,-1.2789403999999998,9.587264,-1.1304493
69019883264323,-1.3220508,9.582474000000001,-1.1064991000000002
69019903120324,-1.3627661,9.587264,-1.0250684
69019922950175,-1.3555812,9.618399,-1.0059083
69019942805152,-1.3939015,9.639954,-1.0585986
69019962660129,-1.3915064,9.627979,-1.0514137
69019982515106,-1.3795313,9.613608000000001,-1.0106983
69020002370083,-1.4130616000000003,9.592053,-0.9867481
69020022225060,-1.3651612,9.539363,-1.0178833
69020042086143,-1.2837305,9.5489435,-1.0729688
69020061941120,-1.2454101999999998,9.577683,-1.0681788
69020081796097,-1.2597803,9.606423,-1.0394385
69020101651202,-1.3196558,9.613608000000001,-0.9627979
69020121506179,-1.3268408999999999,9.592053,-0.8933423
69020141367818,-1.2382251,9.606423,-0.9532178
69020161223051,-1.1951148999999999,9.613608000000001,-1.0633887
69020181078284,-1.22625,9.625584,-1.1328443000000001
69020200933517,-1.2957056999999998,9.620794,-1.1041040000000002
69020220788750,-1.3555812,9.592053,-1.094524
69020240643983,-1.3603711,9.592053,-1.1424243
69020260499856,-1.4082716,9.608819,-1.1903248
69020280355065,-1.456172,9.601633999999999,-1.1855347
69020300210298,-1.3867163999999998,9.565708,-1.2334352
69020320065531,-1.3555812,9.577683,-1.2094848999999999
69020339922148,-1.3962965,9.635164,-1.2022998
69020359777509,-1.4370118,9.616004,-1.2621753
69020379632870,-1.477727,9.577683,-1.2669654
69020399488231,-1.5423926000000001,9.570497999999999,-1.2454101999999998
69020419343592,-1.6070582,9.580078,-1.3196558
69020439202069,-1.6429833999999999,9.589659,-1.4010864
69020459057558,-1.6046631000000002,9.587264,-1.3412110000000002
69020478912919,-1.5615528,9.611214,-1.2789403999999998
69020498768408,-1.5280225,9.594449000000001,-1.223855
69020518623769,-1.465752,9.577683,-1.2525953
69020538479258,-1.3986914,9.625584,-1.2909156000000002
69020558341317,-1.331631,9.627979,-1.2669654
69020578196934,-1.3052857,9.589659,-1.1376343
69020598052423,-1.331631,9.560919,-1.1041040000000002
69020617908040,-1.3747413,9.544153,-1.1328443000000001
69020637760567,-1.3819263000000002,9.558523,-1.1879296999999998
69020657616184,-1.3268408999999999,9.592053,-1.1352394
69020677471673,-1.2645704,9.666299,-1.1136841999999998
69020697327290,-1.2789403999999998,9.656719,-1.0825489
69020717182779,-1.3028906999999998,9.584868,-1.0633887
69020737036012,-1.2454101999999998,9.546548,-1.0681788
69020756891479,-1.22146,9.5561285,-1.1663746000000002
69020776746968,-1.3100758,9.604028999999999,-1.2094848999999999
69020796602457,-1.5016773,9.604028999999999,-1.101709
69020816457946,-1.5950831,9.565708,-1.0154883
69020836313435,-1.4944923,9.589659,-1.1184741000000002
69020856171076,-1.3507911,9.601633999999999,-1.2070899
69020876026565,-1.2981006000000002,9.632769,-1.1855347
69020895882182,-1.346001,9.635164,-1.1735597
69020915737799,-1.4609618999999998,9.644744000000001,-1.1136841999999998
69020935582562,-1.5184423999999999,9.613608000000001,-1.0490186000000001
69020955437923,-1.4370118,9.522598,-1.1208692
69020975293284,-1.3555812,9.469908,-1.223855
69020995148517,-1.3579761000000001,9.477093,-1.2693603999999998
69021015003878,-1.4394068000000002,9.5561285,-1.2645704
69021034859111,-1.5040723,9.613608000000001,-1.1567944
69021054710646,-1.4920973,9.663903999999999,-1.1472143999999997
69021074565879,-1.4274316999999999,9.730965,-1.1855347
69021094420984,-1.3962965,9.793235000000001,-1.1591895
69021114276217,-1.3723463,9.788445,-1.1328443000000001
69021134131450,-1.3555812,9.692644,-1.1352394
69021153987237,-1.4034815,9.587264,-1.1352394
69021173842470,-1.4154567,9.484278,-1.1376343
69021193697703,-1.4226416000000002,9.402847,-1.1927198
69021213552936,-1.4513819,9.402847,-1.2454101999999998
69021233408513,-1.4849122,9.438772,-1.2430152
69021253263746,-1.5304176,9.510622999999999,-1.2310401000000002
69021273118979,-1.5352076000000001,9.606423,-1.22625
69021292974084,-1.5208374,9.678274,-1.1567944
69021312829317,-1.4705421,9.699829,-1.1567944
69021332684550,-1.4298267,9.702225,-1.1759547
69021352530537,-1.4010864,9.72378,-1.1352394
69021372385514,-1.3723463,9.678274,-1.0825489
69021392240619,-1.3795313,9.616004,-1.0753639
69021412095596,-1.4058765,9.532178,-1.1400293
69021431950701,-1.4154567,9.520203,-1.2286451
69021451804696,-1.3939015,9.508227999999999,-1.2118799999999998
69021471659673,-1.4178516,9.505833,-1.1400293
69021491514650,-1.5064673000000002,9.587264,-1.1663746000000002
69021511369627,-1.5328126,9.613608000000001,-1.1879296999999998
69021531224196,-1.5040723,9.620794,-1.1208692
69021551079045,-1.4489869,9.618399,-1.0609937
69021570934022,-1.3795313,9.606423,-1.0633887
69021590788871,-1.3651612,9.596844,-1.094524
69021610643848,-1.331631,9.539363,-1.0873389
69021630498697,-1.3699511999999998,9.508227999999999,-1.1064991000000002
69021650352552,-1.4274316999999999,9.541758999999999,-1.1304493
69021670207529,-1.4729371,9.592053,-1.0729688
69021690062506,-1.5088624,9.64714,-1.0514137
69021709917334,-1.5232325,9.663903999999999,-1.0370435
69021729772311,-1.4968873,9.666299,-1.0777588
69021749627704,-1.4968873,9.642349000000001,-1.1088941
69021769482553,-1.5208374,9.584868,-1.1112891000000003
69021789337530,-1.4920973,9.527389,-1.1376343
69021809192507,-1.4849122,9.524992999999998,-1.1567944
69021829047356,-1.5064673000000002,9.539363,-1.1304493
69021848902333,-1.5112573999999999,9.560919,-1.1328443000000001
69021868751904,-1.4753321000000001,9.575289,-1.1567944
69021888606753,-1.4609618999999998,9.592053,-1.1088941
69021908461474,-1.4609618999999998,9.599238,-1.1352394
69021928316323,-1.4513819,9.644744000000001,-1.1232642
69021948175304,-1.4250367,9.649534,-1.0609937
69021968030153,-1.4370118,9.64714,-1.0633887
69021987885002,-1.4513819,9.616004,-1.0873389
69022007739851,-1.4441968,9.551338000000001,-1.1256591999999999
69022027594700,-1.3795313,9.534574000000001,-1.1184741000000002
69022047458235,-1.3436059999999999,9.584868,-1.1136841999999998
69022067313212,-1.3579761000000001,9.580078,-1.1136841999999998
69022087168189,-1.3939015,9.587264,-1.099314
69022107023294,-1.4082716,9.608819,-1.1448194
69022126878271,-1.4154567,9.613608000000001,-1.1160791
69022146733248,-1.4010864,9.635164,-1.0849438999999999
69022166592297,-1.3962965,9.642349000000001,-1.0466236
69022186447380,-1.3986914,9.601633999999999,-1.0562036
69022206302485,-1.4154567,9.565708,-1.1280543
69022226157718,-1.3915064,9.560919,-1.1759547
69022246022149,-1.3939015,9.584868,-1.1711646
69022265877382,-1.3986914,9.608819,-1.1400293
69022285732743,-1.4058765,9.604028999999999,-1.089734
69022305588104,-1.4465919,9.594449000000001,-1.099314
69022325443337,-1.4753321000000001,9.577683,-1.1663746000000002
69022345295412,-1.4513819,9.575289,-1.1711646
69022365150773,-1.4585668999999999,9.584868,-1.1256591999999999
69022385006006,-1.4394068000000002,9.584868,-1.1088941
69022404861239,-1.4441968,9.589659,-1.1256591999999999
69022424716600,-1.4465919,9.599238,-1.1520045
69022444571833,-1.4346168,9.618399,-1.1615845
69022464431972,-1.4298267,9.630374,-1.1328443000000001
69022484287333,-1.4274316999999999,9.604028999999999,-1.0729688
69022504142822,-1.4274316999999999,9.584868,-1.0729688
69022523998311,-1.3939015,9.5561285,-1.1424243
69022543855356,-1.4226416000000002,9.577683,-1.1783496
69022563710717,-1.4346168,9.594449000000001,-1.1520045
69022583566206,-1.4465919,9.584868,-1.1064991000000002
69022603421695,-1.4394068000000002,9.596844,-1.0681788
69022623277056,-1.4489869,9.618399,-1.1208692
69022643132545,-1.3867163999999998,9.606423,-1.1639795
69022662994874,-1.3795313,9.587264,-1.1352394
69022682850491,-1.3939015,9.584868,-1.096919
69022702706108,-1.4106666,9.601633999999999,-1.0705738
69022722561597,-1.4034815,9.594449000000001,-1.094524
69022742417214,-1.3819263000000002,9.580078,-1.1615845
69022762274605,-1.4082716,9.616004,-1.1927198
69022782130222,-1.4418018,9.592053,-1.0466236
69022801985967,-1.4226416000000002,9.637559,-0.9316626
69022821841584,-1.3819263000000002,9.649534,-1.0418334999999999
69022841694165,-1.3627661,9.570497999999999,-1.1472143999999997
69022861549910,-1.3627661,9.584868,-1.1735597
69022881405527,-1.4082716,9.618399,-1.1496094
69022901261272,-1.4418018,9.587264,-1.0801538
69022921116889,-1.463357,9.565708,-1.0418334999999999
69022940972634,-1.4609618999999998,9.565708,-1.1160791
69022960820931,-1.4370118,9.613608000000001,-1.1496094
69022980676420,-1.3939015,9.589659,-1.1184741000000002
69023000531909,-1.3771361999999998,9.587264,-1.1280543
69023020387398,-1.465752,9.620794,-1.0921290000000001
69023040242887,-1.4897022,9.639954,-1.0801538
69023060094000,-1.4322218,9.599238,-1.0657837
69023079949361,-1.4010864,9.536968,-1.1448194
69023099804850,-1.4274316999999999,9.580078,-1.2022998
69023119660211,-1.4370118,9.616004,-1.096919
69023139509388,-1.4130616000000003,9.587264,-1.0466236
69023159364621,-1.3939015,9.589659,-1.1064991000000002
69023179219982,-1.4058765,9.637559,-1.1543995
69023199075343,-1.4034815,9.623189,-1.1567944
69023218930576,-1.4346168,9.575289,-1.096919
69023238785937,-1.4346168,9.560919,-1.0849438999999999
69023258639744,-1.4226416000000002,9.594449000000001,-1.1064991000000002
69023278494977,-1.3747413,9.613608000000001,-1.1064991000000002
69023298350210,-1.3531861,9.599238,-1.1232642
69023318205571,-1.4130616000000003,9.606423,-1.1879296999999998
69023338060804,-1.4418018,9.604028999999999,-1.099314
69023357913631,-1.4298267,9.625584,-1.0442286
69023377768864,-1.4202466,9.601633999999999,-1.0801538
69023397623969,-1.3962965,9.587264,-1.1543995
69023417479202,-1.3843212999999999,9.582474000000001,-1.1831397
69023437334307,-1.4106666,9.572892999999999,-1.1615845
69023457189540,-1.4489869,9.594449000000001,-1.099314
69023477039549,-1.4274316999999999,9.584868,-1.0753639
69023496894526,-1.4082716,9.599238,-1.1376343
69023516749503,-1.4274316999999999,9.596844,-1.1448194
69023536604480,-1.4370118,9.596844,-1.1400293
69023556458859,-1.4010864,9.611214,-1.1160791
69023576313836,-1.4226416000000002,9.594449000000001,-1.1304493
69023596168813,-1.4394068000000002,9.582474000000001,-1.1496094
69023616023769,-1.4394068000000002,9.594449000000001,-1.1711646
69023635878746,-1.4322218,9.599238,-1.1520045
69023655735931,-1.453777,9.608819,-1.1448194
69023675590908,-1.4441968,9.620794,-1.1256591999999999
69023695446013,-1.3867163999999998,9.604028999999999,-1.0753639
69023715300990,-1.3483961000000002,9.580078,-1.089734
69023735155967,-1.3915064,9.618399,-1.1687696
69023755011072,-1.4418018,9.580078,-1.2310401000000002
69023774862763,-1.463357,9.570497999999999,-1.1711646
69023794717612,-1.4322218,9.589659,-1.1184741000000002
69023814572589,-1.4322218,9.589659,-1.1088941
69023834427438,-1.456172,9.594449000000001,-1.1136841999999998
69023854283281,-1.4465919,9.599238,-1.1256591999999999
69023874138386,-1.4274316999999999,9.613608000000001,-1.1567944
69023893993363,-1.4274316999999999,9.601633999999999,-1.1400293
69023913848340,-1.4226416000000002,9.594449000000001,-1.0657837
69023933703317,-1.4346168,9.608819,-1.0705738
69023953557562,-1.4513819,9.575289,-1.1520045
69023973412539,-1.4418018,9.568104,-1.1663746000000002
69023993267388,-1.4465919,9.580078,-1.1615845
69024013122237,-1.4681469999999999,9.587264,-1.1352394
69024032977214,-1.4849122,9.604028999999999,-1.1041040000000002
69024052832063,-1.4681469999999999,9.601633999999999,-1.0562036
69024072691820,-1.4154567,9.589659,-1.0562036
69024092546775,-1.3986914,9.592053,-1.1280543
69024112401752,-1.4178516,9.589659,-1.1304493
69024132256729,-1.4202466,9.596844,-1.1184741000000002
69024152112456,-1.4154567,9.616004,-1.0873389
69024171967561,-1.4298267,9.589659,-1.1112891000000003
69024191822538,-1.4729371,9.560919,-1.1376343
69024211677515,-1.5064673000000002,9.558523,-1.1448194
69024231532492,-1.4825171,9.582474000000001,-1.1687696
69024251387597,-1.4681469999999999,9.575289,-1.1448194
69024271257730,-1.4394068000000002,9.5633135,-1.1160791
69024291113091,-1.4849122,9.618399,-1.1352394
69024310968452,-1.4873072,9.594449000000001,-1.1591895
69024330823813,-1.477727,9.568104,-1.1352394
69024350679174,-1.5016773,9.5633135,-1.1304493
69024370533031,-1.477727,9.565708,-1.1064991000000002
69024390388392,-1.4513819,9.587264,-1.096919
69024410243881,-1.4441968,9.592053,-1.0490186000000001
69024430099242,-1.4346168,9.618399,-1.0633887
69024449958357,-1.4394068000000002,9.630374,-1.0538087
69024469813846,-1.4178516,9.635164,-0.9963281999999999
69024489669335,-1.4106666,9.642349000000001,-0.97237796
69024509524696,-1.3986914,9.620794,-1.0490186000000001
69024529380185,-1.4154567,9.592053,-1.1160791
69024549235674,-1.4298267,9.580078,-1.094524
69024569094505,-1.4202466,9.587264,-1.0633887
69024588950122,-1.4178516,9.577683,-1.0298585
69024608805611,-1.4106666,9.575289,-1.101709
69024628661228,-1.4298267,9.565708,-1.1448194
69024648516845,-1.4465919,9.587264,-1.1041040000000002
69024668368530,-1.4250367,9.616004,-1.0298585
69024688224019,-1.4441968,9.635164,-1.0250684
69024708079508,-1.477727,9.623189,-1.0633887
69024727934997,-1.463357,9.587264,-1.1041040000000002
69024747791932,-1.4513819,9.572892999999999,-1.1831397
69024767647421,-1.4705421,9.570497999999999,-1.1687696
69024787502910,-1.4968873,9.570497999999999,-1.089734
69024807358399,-1.4897022,9.577683,-1.0633887
69024827213888,-1.453777,9.587264,-1.1136841999999998
69024847069377,-1.4322218,9.611214,-1.1927198
69024866925670,-1.456172,9.606423,-1.1999048
69024886781159,-1.4873072,9.5633135,-1.1591895
69024906636648,-1.4968873,9.558523,-1.1711646
69024926492265,-1.5160475,9.589659,-1.1520045
69024946347754,-1.5064673000000002,9.632769,-1.1376343
69024966193279,-1.4801221000000002,9.606423,-1.1376343
69024986048640,-1.4370118,9.5633135,-1.1256591999999999
69025005904001,-1.3915064,9.5633135,-1.1567944
69025025759362,-1.4034815,9.560919,-1.1903248
69025045614702,-1.4585668999999999,9.570497999999999,-1.1927198
69025065470063,-1.4441968,9.568104,-1.1735597
69025085325892,-1.4705421,9.596844,-1.1424243
69025105181253,-1.5136524,9.601633999999999,-1.1184741000000002
69025125036614,-1.5112573999999999,9.594449000000001,-1.1208692
69025144891975,-1.4609618999999998,9.592053,-1.1448194
69025164744180,-1.4010864,9.592053,-1.1759547
69025184599541,-1.4250367,9.596844,-1.1711646
69025204454902,-1.4920973,9.546548,-1.1304493
69025224310135,-1.4920973,9.558523,-1.1184741000000002
69025244165496,-1.4825171,9.594449000000001,-1.1136841999999998
69025264018333,-1.5136524,9.596844,-1.1232642
69025283873694,-1.4992822000000001,9.572892999999999,-1.1184741000000002
69025303728927,-1.456172,9.577683,-1.1855347
69025323584160,-1.4920973,9.584868,-1.2022998
69025343439393,-1.5687379,9.625584,-1.1591895
69025363294626,-1.6022681,9.70941,-1.1208692
69025383146311,-1.5687379,9.718989,-1.101709
69025403001416,-1.5471827,9.673484,-1.094524
69025422856649,-1.5376027,9.656719,-1.101709
69025442711754,-1.4729371,9.582474000000001,-1.1975098
69025462558893,-1.465752,9.536968,-1.1783496
69025482413870,-1.5064673000000002,9.513017999999999,-1.1472143999999997
69025502268847,-1.5328126,9.5489435,-1.1064991000000002
69025522123803,-1.5112573999999999,9.625584,-1.0370435
69025541978652,-1.4513819,9.678274,-1.0633887
69025561833033,-1.4106666,9.690249,-1.1232642
69025581688010,-1.4370118,9.699829,-1.099314
69025601542859,-1.4681469999999999,9.685459,-1.0466236
69025621397708,-1.4609618999999998,9.697434,-1.0418334999999999
69025641252685,-1.4465919,9.68067,-1.096919
69025661107534,-1.4418018,9.673484,-1.1711646
69025680961329,-1.4322218,9.707015,-1.2094848999999999
69025700816178,-1.4753321000000001,9.745335,-1.1735597
69025720671027,-1.5088624,9.7740755,-1.1400293
69025740525876,-1.5376027,9.788445,-1.101709
69025760383403,-1.5447876,9.7621,-1.1567944
