UPTIMENANO,Ax,Ay,Az
68972746204687,0.24411425,-1.0646312,8.972604
68972766061455,-0.13778001,-0.0456767,10.158349
68972785918352,-0.22280455,0.019476606,10.687528
68972805780684,0.16321056,-0.22770707,11.218426
68972825637708,0.34297368,0.105111726,11.028562
68972845494733,-0.4044063,0.3402014,9.178145
68972865351756,-0.718288,-0.78914666,9.196623
68972885208780,0.61469257,-0.2219887,10.644106
68972905065805,1.4756042,0.07499356,9.026493
68972924910211,-0.34760827,-0.61877024,9.468877
68972944766851,-0.52232146,1.446111,9.797673
68972964623492,-1.4573954,2.3443677,10.786183
68972984480259,-1.4907739,1.4991566,9.545349
68973004329664,-1.1045566,0.20234743,8.701973
68973024186049,-0.07243251,-0.7995081,9.79007
68973044042560,0.8738953,-1.6536641,9.96182
68973063899072,0.046306882,-1.7178768,9.2562275
68973083755585,-0.75284517,-0.69973695,9.624559
68973103604550,-0.10947996,-0.26538277,9.625277
68973123460934,0.97377473,-0.42569256,10.607342
68973143317319,0.6445475,0.5106684,10.945259
68973163173574,-0.44817582,0.4542089,9.705098
68973183029958,-1.2350937,1.0032456,9.259138
68973202886343,-0.78072965,0.9101129,9.808006
68973222744567,-0.113648064,0.033245243,9.748094
68973242600951,-0.8028849,-0.34374362,8.849036
68973262457208,-0.7303402,0.5025887,8.928177
68973282313591,-1.0199126,0.42700127,8.662464
68973302169000,-1.4644098,0.29447615,8.289683
68973322025257,-0.3885661,0.18612441,9.075277
68973341881512,0.78730136,-0.33614394,10.74965
68973361737768,0.59896153,0.015540512,10.996629
68973381594025,0.9506522,0.19870785,10.296995
68973401450280,0.916802,-0.21314166,10.296579
68973421300898,0.38753173,-0.67140806,9.862795
68973441157155,0.30946532,-0.122745916,10.291186
68973461013410,-0.22992545,0.41334176,9.669437
68973480869666,-0.71273535,0.37147546,9.257015
68973500725795,0.07591719,-0.32243234,9.674366
68973520584855,0.8140715,-0.080598995,10.546369
68973540441111,0.006315576,0.2335121,10.342529
68973560297368,-1.7733395,0.4514042,9.278692
68973580153623,-1.1850412,-0.40730113,9.068485
68973600008669,0.21997939,-0.52496016,10.14019
68973619864926,0.009041667,0.14068721,9.788847
68973639721181,-0.9143065,0.48062187,9.068559
68973659577437,-0.50762725,0.75178206,9.88534
68973679433694,-0.284988,0.8899458,10.250427
68973699289949,0.07947319,0.35193855,10.3891
68973719140068,0.8212141,-0.6388327,10.827352
68973738996197,1.0596851,-0.1398576,10.440707
68973758852324,0.5220689,0.17705086,10.534782
68973778708324,0.56808764,-0.25161228,10.670005
68973798564453,0.88932824,-0.7858193,10.421342
68973818425649,0.30494267,-1.0529824,9.260748
68973838281777,0.7972234,-0.744366,8.875226
68973858138034,1.2173218,0.0044603436,10.643066
68973877994161,0.57623297,0.8046938,10.926736
68973897856348,-0.097515516,1.2932165,10.645893
68973917712733,-0.53388685,1.7666173,10.290301
68973937568988,-0.1354214,0.07144547,9.834629
68973957425372,0.032454073,0.31653857,9.936513
68973977281629,-0.23553847,0.35935342,10.359807
68973997137884,-0.21376808,-0.98263836,8.49151
68974016993599,-2.0822234,1.1975356,5.092107
68974036849856,-2.31651,0.8052466,5.0370493
68974056706111,-1.2932175,0.05534287,6.010466
68974076562367,-0.8930805,0.7991891,6.2727165
68974096418752,-0.090139516,1.8632063,5.9438014
68974116273873,0.3673415,2.2143884,5.7286487
68974136130129,-1.5893528,0.002365425,4.396073
68974155986386,1.3973169,2.5791078,6.336532
68974175842641,1.9482565,2.4453993,6.571102
68974195696616,2.2344742,2.0712845,7.962843
68974215552745,4.1125264,1.8691294,9.594062
68974235408872,4.347673,1.2217574,12.144699
68974255265128,2.4774876,0.89250124,11.504055
68974275121257,2.6331282,0.1378119,12.472016
68974294977384,1.7080106,-1.507064,12.158851
68974314836584,-9.120811,-18.428154,8.032625
68974334692969,-0.5924258,-4.817779,3.2024877
68974354549224,9.857538,10.709859,12.342061
68974374405480,7.469325,8.451754,3.686805
68974394261737,3.4369633,5.080109,-0.29631197
68974414120503,0.6906765,3.8291564,4.6222034
68974433976887,0.8075755,2.6847472,4.528303
68974453833272,1.4849201,2.4482386,5.5450497
68974473689655,0.51574457,3.2325876,7.262033
68974493546039,3.1278064,5.424341,9.058359
68974513402424,6.1073456,7.7970243,10.332872
68974533262519,3.745523,5.6786475,10.930567
68974553119031,5.2913513,5.612983,13.692414
68974572975544,7.92696,5.583176,17.8303
68974592831927,6.812669,-0.15666902,18.421675
68974612684410,7.07545,-1.9729012,17.246462
68974632540794,4.0442495,-4.716943,19.39459
68974652396901,0.616372,-4.1672707,20.5818
68974672253285,-2.0686288,-4.118749,20.70673
68974692109669,-3.4888651,-5.430268,16.159872
68974711964011,-1.8709835,-4.3389473,13.7469225
68974731820267,-2.3019485,-0.16155642,11.820182
68974751676523,-2.829465,1.273567,11.880491
68974771532907,-4.6879215,-0.8332157,12.361305
68974791389163,-3.879561,-5.2095566,12.105945
68974811238678,-3.2683415,-4.042591,8.900585
68974831094806,-3.8673198,-0.56226885,6.316598
68974850951062,-6.5462165,-2.3325424,7.9615726
68974870807190,-5.760287,-1.7231114,6.6127357
68974890663446,-5.992382,-0.20040649,4.926655
68974910518285,-4.184337,-1.2495412,6.3067565
68974930374541,-4.392364,-1.0027027,2.95938
68974950230797,-5.3787756,0.2476132,4.3878665
68974970086925,-4.047455,-1.9226999,7.7004333
68974989943181,-0.48978344,-2.4110904,9.195227
68975009791314,-0.15336981,-1.2837878,7.6431193
68975029647314,2.3761435,-0.34239057,7.758013
68975049503314,1.7750998,-4.193529,8.85531
68975069359186,4.23135,-1.2300751,13.375347
68975089215186,5.2179,5.7600913,18.811298
68975109062720,2.7351174,8.322141,20.53695
68975128918464,4.579331,2.3395302,9.990628
68975148774336,9.433336,2.7138085,14.381332
68975168630080,3.5013204,-1.6214714,10.493158
68975188485952,-1.9927689,4.7982917,7.9197283
68975208339093,-2.0973287,3.4648266,6.0847893
68975228194837,-4.140211,-2.0303285,3.9389045
68975248050581,-3.69576,-5.0750594,4.4277053
68975267906197,-3.420165,-5.0190325,5.7233615
68975287761941,-1.2082714,-5.3264723,4.817563
68975307617179,0.40377522,-3.0053813,6.183447
68975327472795,2.512628,-1.7329115,6.32159
68975347328411,3.3959467,1.0599494,7.180102
68975367184027,3.0216107,4.663545,6.023708
68975387039643,2.5461438,4.4758043,11.271199
68975406899038,3.7859545,2.986871,11.453148
68975426754782,1.4227265,10.754353,10.4381
68975446610526,-2.6443589,7.313725,12.268143
68975466466142,0.18343571,10.1820965,18.155628
68975486321886,0.758538,8.513123,24.66214
68975506183536,1.1802204,-7.8353834,13.2169285
68975526039280,1.9948752,-9.813555,10.958612
68975545895152,0.93103147,-4.899035,12.724918
68975565751024,-1.0711237,-2.0906377,12.875582
68975585606768,-0.57284236,-4.581167,12.395981
68975605457075,0.47645104,-2.599837,10.111718
68975625312819,1.2106229,-0.84061927,9.710272
68975645168563,0.4317378,-2.5978153,10.015141
68975665024307,1.2525244,-3.5674105,9.1516695
68975684880051,0.60098463,-4.350846,5.463537
68975704736685,0.18670538,0.014152964,-0.6057931
68975724592429,-0.7806618,5.3817387,-1.5658363
68975744448173,-6.712347,24.484018,7.785529
68975764303917,1.2496487,13.396115,11.155474
68975784159661,10.952652,-2.7948327,18.626299
68975804028045,8.614852,-5.039843,20.377048
68975823884045,-2.647476,-2.7170653,9.8749695
68975843739917,-2.214001,-3.2168102,7.6924796
68975863595917,1.5241807,-1.0057298,8.741275
68975883451917,2.0480647,0.7811619,10.300775
68975903313671,0.7524752,0.12096559,10.580851
68975923169671,-0.7508242,-1.4110031,10.869101
68975943025799,-3.5324426,-1.0909182,11.119338
68975962881799,-4.521047,-1.5194445,10.867173
68975982737927,-1.2750342,-0.28364918,11.020523
68976002602003,0.47387785,1.6741596,10.4662895
68976022458259,1.067986,1.46005,9.974153
68976042314515,0.87604135,0.9019693,10.281652
68976062170771,0.525654,0.25187588,10.503313
68976082027027,0.43910012,-0.43019712,10.502891
68976101883283,-0.1572896,-1.0555845,10.317365
68976121734822,-0.281527,-1.0005423,10.101134
68976141591078,0.45842585,-0.36624753,10.142802
68976161447206,0.7674364,-0.07572632,10.088497
68976181303462,0.24389242,0.16030574,10.378652
68976201159718,-0.43693575,-0.1750459,10.591601
68976221018892,-0.22372048,-0.7887926,10.511268
68976240875148,0.56526446,-0.94951373,10.499245
68976260731532,0.5756542,-0.575143,10.354311
68976280587788,-0.060568288,-0.23932286,10.177679
68976300444172,-0.50796026,-0.13831341,10.141696
68976320300178,-0.09256329,-0.09519906,10.511752
68976340156562,0.20525661,-0.08874955,10.445475
68976360012946,-0.12833358,0.05508417,9.967739
68976379869330,-0.2490656,0.1918808,10.030463
68976399725714,-0.06531336,0.30043477,10.914733
68976419578733,0.13459504,0.1845458,11.166867
68976439434989,0.14045595,-0.1351249,10.276348
68976459291373,0.22292206,-0.37524015,10.109688
68976479147629,-0.068059064,-0.27247214,10.289777
68976499004013,-0.37274677,0.025207212,10.269736
68976518865655,-0.14457728,0.20076036,10.257094
68976538722039,0.048575226,0.27864948,10.467504
68976558578551,-0.12474253,0.17162,10.395947
68976578434935,-0.06859448,-0.18213439,10.339892
68976598291319,0.073333815,-0.55276024,10.462911
68976618146154,-0.046264164,-0.5484959,10.449001
68976638002538,0.043046664,-0.15391828,10.319023
68976657856095,0.068417445,0.2381945,10.26185
68976677712607,-0.07209603,0.2811882,10.301674
68976697568991,-0.121985115,0.028328327,10.372118
68976717419674,-0.06827678,-0.21272098,10.411213
68976737275930,0.098366916,-0.2680045,10.333537
68976757132186,0.197466,-0.055983398,10.369086
68976776988442,0.0134059815,0.17396101,10.400352
68976796844698,-0.09073403,0.037007883,10.43297
68976816708877,0.060360663,-0.22904852,10.440468
68976836565261,-4.1788258E-4,-0.29671898,10.343223
68976856421645,-0.01694103,-0.04115451,10.265855
68976876278029,0.053400572,0.19478276,10.278118
68976896134413,0.08590498,0.048999444,10.346082
68976915986492,0.019131133,-0.23153593,10.328268
68976935842748,0.009264699,-0.3003004,10.350639
68976955699132,0.10748323,-0.11737777,10.390762
68976975555388,0.13078526,0.048607845,10.373705
68976995411644,-0.06882198,0.04174322,10.342622
68977015261091,-0.20799582,-0.033687923,10.322284
68977035117219,-0.062723875,-0.05497967,10.304586
68977054973347,0.09781614,-0.0074403994,10.3044405
68977074829603,0.059047274,-0.058782678,10.315292
68977094685731,0.033847492,-0.14047308,10.321179
68977114534836,0.017764997,-0.12207801,10.308045
68977134390837,0.0659202,-0.044912394,10.302349
68977154246964,0.06473702,0.0015791381,10.294013
68977174102964,0.046981636,0.021678425,10.241535
68977193959092,0.04510206,0.03393004,10.24341
68977213811922,0.02913592,0.030547356,10.222469
68977233667794,0.038059596,-0.025008576,10.163536
68977253523666,0.093922205,-0.02714275,10.166231
68977273379538,0.094446644,0.024614222,10.194151
68977293235411,0.032972537,0.030776102,10.172523
68977313089770,-0.024057126,0.016210953,10.133819
68977332945515,0.0019357372,-0.03064233,10.130871
68977352801388,0.03648773,-0.052587967,10.128586
68977372657133,0.03559202,-0.07082662,10.12453
68977392512878,0.04620109,-0.07854288,10.113045
68977412374341,0.057722986,-0.05675266,10.124988
68977432230341,0.014525644,-0.05466081,10.115652
68977452086213,0.019679496,-0.08275934,10.077382
68977471942213,0.056387812,-0.02090006,10.068672
68977491798213,0.04156661,0.012029116,10.056244
68977511660339,-0.0031806855,0.016655052,10.059726
68977531516467,-0.006770284,-0.038149048,10.022829
68977551372595,0.02307612,-0.079160534,10.006196
68977571228723,0.0027499357,-0.06941761,10.0038185
68977591084723,0.002577021,-0.055869143,10.051087
68977610940730,-7.8548765E-4,-0.013305851,9.98929
68977630796987,-0.0029918952,-0.022204295,10.0069475
68977650653114,-0.02004769,-0.0744931,9.973153
68977670509242,-0.010850493,-0.09619484,9.9239435
68977690365498,0.0023403305,-0.07715259,9.917883
68977710221063,0.05843138,-0.040204138,9.90849
68977730077191,0.11196048,0.012260701,9.926994
68977749933191,0.04220681,-0.014115349,9.940964
68977769789319,-0.042548828,-0.06327291,9.936606
68977789645447,-0.06770548,-0.061516944,9.88523
68977809512380,-0.019976113,-0.06933914,9.866862
68977829368636,0.020406952,-0.06515436,9.816656
68977849225021,0.037090007,-0.04456679,9.806612
68977869081276,0.058567617,-0.051870074,9.780491
68977888937660,0.048496477,-0.06855782,9.793827
68977908789934,0.039398577,-0.093144625,9.820068
68977928646062,-0.03765246,-0.12768027,9.816954
68977948499500,-0.038264815,-0.115426525,9.807524
68977968355757,0.012396628,-0.07177356,9.814847
68977988211886,0.035873894,-0.04644669,9.795977
68978008069915,0.029730616,-0.063053764,9.780027
68978027926172,0.004503086,-0.090632565,9.746889
68978047782301,0.029384084,-0.055997178,9.732531
68978067638558,0.061845668,-0.021415366,9.74516
68978087494815,0.059078522,-0.007864488,9.701545
68978107346900,-6.4615195E-4,-0.08176373,9.702232
68978127203157,4.213975E-4,-0.10771037,9.684239
68978147059414,0.019495217,-0.054426484,9.676437
68978166915543,0.042952497,-0.016373431,9.655472
68978186771800,0.061130594,-0.037920885,9.677741
68978206628057,0.021365654,-0.07091161,9.702234
68978226479064,-0.006903295,-0.07911689,9.710158
68978246335065,0.0085369665,-0.070254475,9.668007
68978266191194,0.03792616,-0.054794263,9.602822
68978286047323,0.032758385,-0.04747515,9.565181
68978305903452,0.015894465,-0.052919894,9.600724
68978325745535,-0.0038969964,-0.058245126,9.653458
68978345601408,0.014897603,-0.049843438,9.611214
68978365457153,0.054233916,-0.05985634,9.599293
68978385313026,0.06267729,-0.06691862,9.507005
68978405168899,0.056723904,-0.053235378,9.409448
68978425019357,0.06502262,-0.043627076,9.352726
68978444875102,0.037131146,-0.05630583,9.396453
68978464730975,-0.0017493663,-0.087395795,9.443444
68978484586720,0.031024631,-0.09152234,9.535824
68978504442593,0.08343039,-0.046133965,9.597497
68978524308904,0.04845292,-0.053417847,9.605606
68978544164777,-0.02130055,-0.09428343,9.574321
68978564020778,-0.024001736,-0.118395,9.53465
68978583876779,0.02576775,-0.06288355,9.512704
68978603732780,0.06785039,-0.0018239925,9.494416
68978623588769,0.09085151,0.01971111,9.4771595
68978643444642,0.098689206,-0.0019909868,9.435595
68978663300643,0.059066124,-0.023100482,9.406299
68978683156516,0.02529318,-0.059241984,9.354077
68978703012517,0.036280897,-0.026555112,9.341704
68978722872284,0.08660956,0.010911293,9.3059635
68978742728285,0.07757443,0.011799806,9.284061
68978762584158,0.03407148,-0.016773136,9.275182
68978782440159,0.054617822,-0.020395294,9.294058
68978802296032,0.07132006,-0.014105355,9.310208
68978822156787,0.07848499,0.0014911017,9.306314
68978842012788,0.09236738,-0.011869535,9.318115
68978861868789,0.085677244,-0.00939825,9.311285
68978881724790,0.024342969,-0.02348054,9.327635
68978901580769,-0.023962658,-0.050241403,9.321596
68978921435322,0.0038363405,-0.045311123,9.312948
68978941291323,0.05839896,-0.021197172,9.31106
68978961147324,0.09240903,0.0060225804,9.292635
68978981003325,0.072429985,0.035461143,9.227955
68979000859198,0.030170169,-0.03314611,9.153823
68979020717045,0.020267129,-0.075953685,9.132077
68979040573046,0.03998456,-0.07682769,9.1074095
68979060429047,0.048463944,-0.030602267,9.122546
68979080285048,0.033960663,-0.0043624514,9.147926
68979100141049,0.01908709,-0.04502971,9.183055
68979119994136,-0.02356691,-0.089077346,9.219815
68979139850009,-0.003032901,-0.093732566,9.243368
68979159706010,0.015099126,-0.090343945,9.263786
68979179562011,-0.022670165,-0.08614314,9.237634
68979199418012,0.013849591,-0.086738035,9.200809
68979219269521,0.035411395,-0.09188722,9.202181
68979239125266,-0.0018803956,-0.09817074,9.183524
68979258981139,-0.034355827,-0.11950966,9.166462
68979278837012,-0.0066323024,-0.10650224,9.176767
68979298692885,0.03912985,-0.025957592,9.194678
68979318544340,0.007941004,-0.04780267,9.226562
68979338400085,-0.06994047,-0.12715729,9.216186
68979358255958,-0.07358161,-0.15781908,9.175065
68979378111681,0.016376425,-0.09872664,9.16628
68979397967426,0.07221037,-0.047599863,9.199796
68979417834287,0.021521393,-0.064766854,9.183606
68979437690416,-0.05779743,-0.12746088,9.16219
68979457546545,-0.058817614,-0.14072666,9.191144
68979477402674,0.007675438,-0.1059279,9.196553
68979497258675,0.0629316,-0.07421784,9.120309
68979517119626,0.070561595,-0.07013896,9.128588
68979536975883,0.017649105,-0.08599003,9.210794
68979556832012,-0.019041684,-0.09242665,9.152862
68979576688269,-0.03091798,-0.084186025,9.115406
68979596544526,0.024636805,-0.0779415,9.114481
68979616398699,0.11850013,-0.081216164,9.123816
68979636254956,0.055179626,-0.10290439,9.1679125
68979656111085,-0.06598525,-0.12777081,9.176817
68979675967342,-0.019548612,-0.09880114,9.166169
68979695823599,0.020488929,-0.07906593,9.2172365
68979715686856,0.0042780424,-0.10908302,9.2130165
68979735543241,0.011641161,-0.14885315,9.182177
68979755399498,0.054895617,-0.16257927,9.14492
68979775255883,0.0619162,-0.072690874,9.137814
68979795112268,0.03603554,-0.07569745,9.14444
68979814971449,-0.014268442,-0.111097656,9.170826
68979834827834,-0.021840129,-0.1390795,9.1597185
68979854684324,0.022798114,-0.13077067,9.124881
68979874540709,0.07962898,-0.08272077,9.147908
68979894397222,0.055139754,-0.07745177,9.163724
68979914253607,-0.02475058,-0.12313395,9.16078
68979934100562,-0.06295485,-0.16245374,9.149543
68979953956819,0.01465501,-0.14174065,9.132247
68979973812948,0.091533385,-0.059826005,9.155449
68979993669077,0.038844395,-0.071356334,9.162575
68980013525206,-0.038154025,-0.13453378,9.1655855
68980033381493,-0.08037936,-0.13557759,9.189772
68980053237494,-0.04877127,-0.100313686,9.16821
68980073093495,0.037417397,-0.097007304,9.176526
68980092949496,0.04702409,-0.114907615,9.179956
68980112805625,0.010704543,-0.1263345,9.160168
68980132663448,-0.053930506,-0.17865147,9.185231
68980152519577,-0.034263838,-0.16938195,9.170161
68980172375706,0.008738778,-0.08904585,9.151229
68980192231963,0.003447621,-0.09205873,9.160361
68980212088092,0.018995222,-0.16058734,9.135453
68980231941699,-0.040374853,-0.19768201,9.15163
68980251797700,-0.079164326,-0.20674704,9.154432
68980271653829,7.384021E-4,-0.16003168,9.152698
68980291509958,0.022630166,-0.13044219,9.178913
68980311365959,-0.04820792,-0.16118701,9.1817465
68980331222055,-0.06673307,-0.19020422,9.150761
68980351078184,-0.027028311,-0.17665526,9.158763
68980370934313,0.034703873,-0.12215206,9.141532
68980390790570,0.045166086,-0.09738941,9.149482
68980410646699,-0.008516911,-0.13439533,9.185316
68980430505948,-0.046730123,-0.14567943,9.158195
68980450362205,-0.012311734,-0.12035055,9.16388
68980470218462,0.0058942623,-0.110762805,9.156237
68980490074719,0.0068617193,-0.13069856,9.166552
68980509930976,-0.018570866,-0.16104856,9.201477
68980529790287,-0.044864476,-0.17695718,9.195441
68980549646672,-0.023385756,-0.16026966,9.208995
68980569502929,0.00858124,-0.13102922,9.230254
68980589359314,0.0032887908,-0.119765885,9.230276
68980609215571,-0.009619969,-0.12582445,9.226451
68980629076546,-0.027380846,-0.13420346,9.244175
68980648933059,-0.04662213,-0.12953775,9.26723
68980668789444,-0.031849228,-0.14048097,9.29919
68980688645957,0.008870929,-0.12845911,9.28969
68980708502342,0.035147507,-0.12837629,9.3118515
68980728358209,0.0039511705,-0.13646182,9.336965
68980748214722,-0.037570402,-0.17222157,9.311786
68980768071107,-0.04442177,-0.111284204,9.31787
68980787927492,-0.0043376386,-0.058864005,9.332008
68980807783982,0.06386185,-0.118962094,9.314008
68980827640111,0.0825696,-0.17541347,9.343284
68980847496496,0.006016933,-0.17976137,9.317594
68980867352881,-0.022265766,-0.17472367,9.321085
68980887209266,0.005253375,-0.10686638,9.360675
68980907065651,0.010901991,-0.09560093,9.385253
68980926922036,-0.034215834,-0.13677043,9.442264
68980946774703,-0.040382307,-0.16971958,9.44478
68980966630960,0.010385548,-0.13156085,9.421456
68980986487217,0.032220315,-0.09234467,9.45961
68981006343474,0.03318636,-0.098004214,9.460815
68981026194527,0.025520695,-0.11945875,9.475678
68981046050656,-0.021405686,-0.13897716,9.483506
68981065906785,-0.04141904,-0.14119016,9.451079
68981085763042,-0.029545449,-0.12087836,9.470314
68981105619171,-0.029677827,-0.10317448,9.5012045
68981125469992,-0.020541262,-0.12434984,9.503908
68981145326121,-0.02618696,-0.16416752,9.497552
68981165182250,-0.025749274,-0.14919935,9.50086
68981185038251,-0.019656736,-0.12244907,9.526407
68981204894380,-0.0317182,-0.12970614,9.559112
68981224750509,-0.072908245,-0.14500305,9.567886
68981244602846,-0.09208498,-0.16372399,9.585776
68981264458847,-0.0782966,-0.17055698,9.623547
68981284314698,-0.014265715,-0.14715609,9.658319
68981304170699,-0.011832918,-0.15261726,9.64976
68981324025072,-0.03351808,-0.15780002,9.695161
68981343881073,-0.06758647,-0.16111651,9.716413
68981363736946,-0.086265326,-0.14542714,9.705112
68981383592947,-0.062857345,-0.11150641,9.702856
68981403448948,-0.027314559,-0.12175098,9.678612
68981423302153,0.0105899675,-0.17220815,9.692095
68981443158026,-0.052121986,-0.20780867,9.703687
68981463013899,-0.09192352,-0.18627802,9.703432
68981482869900,-0.02839914,-0.11163051,9.71273
68981502725773,-0.039839618,-0.13176674,9.708253
68981522581774,-0.057474256,-0.15836611,9.697424
68981542429897,-0.027738497,-0.14996217,9.679737
68981562285514,-0.015817119,-0.111241914,9.671152
68981582141259,-0.0037975174,-0.12187691,9.663931
68981601997004,0.014234512,-0.11247757,9.712656
68981621860039,-0.02557509,-0.1348082,9.744409
68981641715912,-0.0691487,-0.1405113,9.743034
68981661571913,-0.099727124,-0.13292395,9.712745
68981681427786,-0.08868106,-0.12413997,9.697545
68981701283659,-0.015974078,-0.09560403,9.711398
68981721139660,0.009843441,-0.08348736,9.719048
68981740990595,-0.036649946,-0.102830335,9.741633
68981760846318,-0.07053534,-0.13399425,9.722396
68981780702063,-0.068108626,-0.1399719,9.716177
68981800557936,-0.050041147,-0.113196924,9.741761
68981820413681,-0.05484511,-0.09710887,9.735491
68981840264794,-0.060554005,-0.12781617,9.743409
68981860120411,-0.081931256,-0.16479042,9.710658
68981879976028,-0.0516548,-0.17598131,9.686192
68981899831645,0.027740812,-0.1356404,9.697764
68981919687310,0.016926218,-0.11795124,9.775226
68981939542927,-0.020043658,-0.13335796,9.813422
68981959398416,-0.0839976,-0.17911226,9.768808
68981979254033,-0.097761355,-0.17021254,9.721683
68981999109650,-0.009222828,-0.15053062,9.733623
68982018965139,0.031005442,-0.17240225,9.750972
68982038825090,0.013864137,-0.17938422,9.722404
68982058680707,-0.031348534,-0.14212914,9.757494
68982078536324,-0.09887961,-0.13412268,9.749273
68982098391941,-0.08539658,-0.17362821,9.752847
68982118247558,-0.04330079,-0.18343267,9.777772
68982138107521,0.029537184,-0.15832478,9.751624
68982157963138,0.04202397,-0.13713264,9.726906
68982177818883,-0.02652254,-0.1275991,9.73619
68982197674628,-0.12809478,-0.14939472,9.758087
68982217539003,-0.085148074,-0.13132909,9.798983
68982237394855,-0.056803748,-0.13120072,9.772105
68982257250856,-0.042662833,-0.18048616,9.724464
68982277106729,-0.034564294,-0.15885583,9.724358
68982296962602,0.012266877,-0.1185339,9.733388
68982316818475,0.029468462,-0.092109844,9.729459
68982336673366,-0.048655856,-0.1054377,9.753288
68982356529367,-0.1050936,-0.12785938,9.740829
68982376385240,-0.08022834,-0.12332607,9.751707
68982396241113,-0.054943815,-0.10537389,9.772908
68982416097114,-0.054418314,-0.09744961,9.752585
68982435960809,-0.060108732,-0.1266072,9.753488
68982455816938,-0.046257157,-0.14255086,9.776984
68982475673067,-0.019841518,-0.10203446,9.727137
68982495529196,-0.021289852,-0.10068316,9.729883
68982515385197,-0.009851244,-0.1238919,9.764032
68982535241326,-0.041932046,-0.13387838,9.766646
68982555104495,-0.13838053,-0.09471223,9.794665
68982574960752,-0.1077124,-0.0659988,9.771656
68982594817137,-0.010802962,-0.07385431,9.72848
68982614673394,-0.005627696,-0.09493274,9.772892
68982634527963,-0.041463543,-0.116327114,9.758261
68982654384348,-0.047130637,-0.12914228,9.740699
68982674240605,-0.0285348,-0.122995205,9.764181
68982694096862,-0.033306655,-0.1186001,9.755328
68982713953225,-0.01796832,-0.14707164,9.771154
68982733807470,-0.0031090504,-0.15078267,9.770372
68982753663727,-0.03901555,-0.14930746,9.763246
68982773519984,-0.07530907,-0.17294405,9.743213
68982793376241,-0.07855564,-0.19225378,9.72177
68982813232498,-0.044137254,-0.1669249,9.727456
68982833088755,-0.040417388,-0.11527118,9.729063
68982852948566,-0.052395705,-0.14436501,9.749586
68982872804951,-0.11217873,-0.19436148,9.7531
68982892661336,-0.14389734,-0.1813027,9.777978
68982912517721,-0.101257555,-0.1816331,9.775563
68982932376680,-0.061049115,-0.19077848,9.790818
68982952233065,-0.10082315,-0.19573376,9.79943
68982972089450,-0.15725003,-0.2028461,9.773184
68982991945963,-0.14989924,-0.24364923,9.747021
68983011802348,-0.08777301,-0.23541483,9.788247
68983031650145,-0.048112456,-0.15358484,9.76473
68983051506402,-0.07675255,-0.1567999,9.734511
68983071362659,-0.093424484,-0.21812811,9.745448
68983091218916,-0.060967594,-0.19833915,9.769527
68983111075173,-0.07541333,-0.12410508,9.744189
68983130931430,-0.07869984,-0.11796183,9.718558
68983150777027,-0.018370438,-0.1446643,9.744703
68983170633028,-0.043835286,-0.16332138,9.782213
68983190489006,-0.1677554,-0.23122467,9.781604
68983210345007,-0.13223858,-0.2292594,9.757604
68983230208086,-0.02264,-0.14868762,9.733994
68983250064215,-0.020110331,-0.18922839,9.717687
68983269920344,-0.046868328,-0.26551634,9.747368
68983289776601,-0.07327126,-0.24737856,9.7537565
68983309632730,-0.060577236,-0.14415845,9.761874
68983329488987,-0.059168775,-0.12005702,9.754938
68983349339498,-0.07388394,-0.190638,9.75893
68983369195499,-0.06568853,-0.20408732,9.751075
68983389051628,-0.05195657,-0.14367291,9.762004
68983408907629,-0.109678105,-0.19414018,9.718818
68983428763630,-0.07553004,-0.24172921,9.705944
68983448620319,-0.057000462,-0.25554055,9.76426
68983468476320,-0.042746343,-0.21627028,9.775425
68983488332321,-0.07481917,-0.18239549,9.746032
68983508188322,-0.16095427,-0.22439739,9.746338
68983528044609,-0.11543963,-0.25804907,9.7660055
68983547900610,-0.10445057,-0.23963834,9.762742
68983567756611,-0.09646108,-0.18396184,9.775062
68983587612612,-0.07306835,-0.12252231,9.759263
68983607468613,-0.14726074,-0.15280615,9.762188
68983627324614,-0.14626569,-0.19922794,9.78137
68983647176879,-0.09353688,-0.21315047,9.778434
68983667032859,-0.046093903,-0.15767172,9.7344
68983686888732,-0.06611346,-0.16040143,9.704311
68983706744733,-0.0646115,-0.20044842,9.710185
68983726600606,-0.041646566,-0.25390986,9.75485
68983746453505,-0.07808471,-0.2608758,9.770385
68983766309378,-0.1062346,-0.2159212,9.704205
68983786165251,-0.061616767,-0.25250676,9.706052
68983806021124,-0.11849191,-0.253985,9.820855
68983825875503,-0.17741472,-0.24652569,9.817443
68983845731376,-0.15754491,-0.2778301,9.763978
68983865587249,-0.1239987,-0.25336897,9.742489
68983885442994,-0.12698929,-0.24413894,9.773953
68983905298867,-0.11201605,-0.2671037,9.749297
68983925154740,-0.01281041,-0.21988806,9.701122
68983945009821,0.020612529,-0.20575882,9.726407
68983964865694,-0.070952155,-0.23358612,9.7690735
68983984721439,-0.15188684,-0.23697925,9.765657
68984004577184,-0.1280596,-0.18964007,9.773725
68984024432929,-0.10765598,-0.13324668,9.798499
68984044292820,-0.15781197,-0.15624869,9.768758
68984064148693,-0.13806699,-0.18360868,9.752955
68984084004566,-0.099236295,-0.21427229,9.7634535
68984103860311,-0.032738518,-0.16468085,9.757414
68984123716184,-0.032748867,-0.12236912,9.732422
68984143572036,-0.1065206,-0.1535106,9.754782
68984163430231,-0.10981996,-0.20602177,9.772607
68984183286104,-0.11125445,-0.21791337,9.779787
68984203142105,-0.12713063,-0.19839917,9.788961
68984222997978,-0.07814112,-0.19362794,9.743543
68984242856839,-0.08621505,-0.21319154,9.734294
68984262712840,-0.062282138,-0.22896783,9.750494
68984282568841,-0.05440447,-0.2761226,9.713119
68984302424714,-0.076001756,-0.28834912,9.734889
68984322280715,-0.09572689,-0.27371585,9.752785
68984342131194,-0.07278886,-0.2430702,9.749804
68984361987067,-0.062369917,-0.2219237,9.774125
68984381842940,-0.11951011,-0.2239056,9.820139
68984401698685,-0.15723483,-0.23036496,9.786726
68984421554558,-0.08822111,-0.20807122,9.759948
68984441410431,-0.0700858,-0.17561378,9.759807
68984461268078,-0.118976474,-0.17211986,9.767808
68984481123951,-0.13082254,-0.21891746,9.75744
68984500979824,-0.08040324,-0.21704736,9.716289
68984520835825,-0.067526706,-0.19929561,9.722696
68984540693466,-0.123693354,-0.22069672,9.776688
68984560549467,-0.1710608,-0.2842522,9.801767
68984580405468,-0.17519043,-0.31973884,9.766936
68984600261469,-0.18754767,-0.33008277,9.742544
68984620117446,-0.15361162,-0.30906227,9.752183
68984639966895,-0.11327366,-0.30735937,9.718328
68984659822768,-0.135184,-0.33849844,9.699127
68984679678513,-0.15870105,-0.3383725,9.71381
68984699534386,-0.1381822,-0.3155089,9.72382
68984719390259,-0.0988782,-0.31382856,9.714483
68984739246132,-0.11135871,-0.33450416,9.736864
68984759105187,-0.14687125,-0.37929794,9.788195
68984778961060,-0.17743881,-0.35640118,9.744117
68984798816933,-0.2171814,-0.30115226,9.702254
68984818672678,-0.19102573,-0.21043548,9.702741
68984838526967,-0.115404956,-0.16877632,9.694973
68984858382712,-0.059259232,-0.2498912,9.716448
68984878238585,-0.12796415,-0.3758737,9.712965
68984898094458,-0.14618969,-0.31511408,9.679737
68984917950331,-0.067323156,-0.18224844,9.645521
68984937806204,-0.04340538,-0.17050558,9.648178
68984957655511,-0.089502074,-0.26466942,9.747442
68984977511256,-0.10849316,-0.361499,9.912414
68984997367001,-0.077634044,-0.3384804,9.986257
68985017222618,-0.027935207,-0.26009908,9.971814
68985037078363,0.033565756,-0.23206936,9.892323
68985056938356,0.0286175,-0.14168943,9.88284
68985076794101,-0.107625864,-0.022854557,9.869486
68985096649952,-0.28636143,0.051087487,9.841199
68985116505697,-0.30209708,0.096759014,9.787473
68985136354884,-0.08559259,0.14813456,9.755242
68985156210629,0.07115169,0.10823491,9.746842
68985176066246,0.12153478,0.035108477,9.767614
68985195921991,0.08767562,-0.008265325,9.748133
68985215777736,-0.05953336,-0.056929097,9.675676
68985235633353,-0.18240596,-0.13805273,9.654981
68985255487092,-0.06528547,-0.09125249,9.699965
68985275342709,0.058324084,-0.12843542,9.716605
68985295198326,0.005519533,-0.32948676,9.733376
68985315053943,-0.025350206,-0.49733275,9.759991
68985334909560,-0.056431334,-0.53894836,9.770338
68985354762977,-0.13904017,-0.45913774,9.787749
68985374618594,-0.2189731,-0.45081484,9.762396
68985394474083,-0.22824624,-0.5345373,9.719351
68985414329700,-0.12284761,-0.5961005,9.755086
68985434178197,-0.114045806,-0.50137705,9.788295
68985454033686,-0.167852,-0.36157525,9.745452
68985473889047,-0.17326549,-0.2596775,9.723796
68985493744408,-0.18483163,-0.20397192,9.709089
68985513599769,-0.18145746,-0.2171592,9.711092
68985533455130,-0.08410742,-0.2385987,9.689443
68985553311557,-0.04348275,-0.20577334,9.696801
68985573166898,-0.08039995,-0.18797848,9.695729
68985593022259,-0.16071612,-0.30521673,9.723582
68985612877620,-0.14866336,-0.3994423,9.761666
68985632732981,-0.060271364,-0.40643463,9.838843
68985652585638,0.03429651,-0.3508918,9.890605
68985672440871,0.0064487946,-0.3023339,9.879182
68985692296232,-0.092645444,-0.2826301,9.846482
68985712151593,-0.14419706,-0.27107948,9.78022
68985732006826,-0.11683668,-0.20922022,9.720374
68985751862187,-0.07211488,-0.16512692,9.634573
68985771720316,-0.0011767305,-0.14039293,9.603433
68985791575677,0.00590033,-0.11775246,9.62317
68985811431038,-0.06472347,-0.1378499,9.70439
68985831286399,-0.105224535,-0.12443163,9.780831
68985851142826,-0.115835674,-0.08969515,9.781117
68985870998187,-0.16493896,-0.07521289,9.850411
68985890853548,-0.23264089,-0.038325533,9.878003
68985910709037,-0.28583312,0.030459596,9.839096
68985930564398,-0.25129887,0.07987959,9.791237
68985950421599,-0.19043644,0.04734168,9.803832
68985970277088,-0.09220543,-0.001265657,9.825241
68985990132449,-0.06202136,-0.020205265,9.835853
68986009987810,-0.090726644,-0.057654984,9.84958
68986029843299,-0.06888439,-0.046401113,9.5945835
68986049698638,0.019847982,-0.07516939,9.421675
68986069559607,0.05141754,-0.20166549,9.830407
68986089415096,-0.07056546,-0.2301835,9.951331
68986109270713,-0.121847056,-0.18162717,9.773058
68986129126202,-0.112519644,-0.24440931,9.742044
68986148983137,-0.08206453,-0.42775854,9.775208
68986168838626,-0.13958673,-0.60549,9.752968
68986188694243,-0.13182302,-0.63339114,9.739466
68986208549732,-0.064039566,-0.5124087,9.734484
68986228405349,-0.033062764,-0.42195404,9.725113
68986248267280,-0.07201209,-0.38682932,9.749937
68986268122897,-0.10189393,-0.36428607,9.794082
68986287978642,-0.13405944,-0.37407196,9.669197
68986307834259,-0.12918426,-0.35540888,9.629184
68986327689876,0.010068313,-0.28058168,9.778529
68986347545493,0.084937714,-0.16499443,9.809164
68986367403902,-0.009378377,-0.14916907,9.782976
68986387259647,-0.10401429,-0.21039383,9.75694
68986407115392,-0.14499792,-0.23719606,9.706761
68986426971265,-0.10015627,-0.23354894,9.764098
68986446829210,-0.07244936,-0.17874627,9.751751
68986466685083,-0.07971856,-0.14550364,9.756621
68986486540956,-0.09320352,-0.14934297,9.782717
68986506396701,-0.07909634,-0.17265895,9.728549
68986526252552,-0.047531344,-0.14101127,9.723359
68986546108425,-0.06059243,-0.116639346,9.74833
68986565973042,-0.08322038,-0.09981979,9.77406
68986585829043,-0.14064749,-0.13292433,9.778862
68986605685044,-0.22728477,-0.16650829,9.781026
68986625541045,-0.1783569,-0.16690263,9.758992
68986645397046,-0.057554483,-0.16508189,9.727827
68986665256095,-0.014988567,-0.17161112,9.753478
68986685112224,-0.07770064,-0.20721158,9.76507
68986704968353,-0.117836885,-0.23521218,9.751421
68986724824482,-0.111207955,-0.18522821,9.742858
68986744685769,-0.10270104,-0.16548894,9.766863
68986764542026,-0.13194703,-0.18334432,9.78737
68986784398283,-0.10314351,-0.19525015,9.775004
68986804254412,-0.050110966,-0.16222419,9.797155
68986824110669,-0.03425134,-0.13994308,9.765327
68986843966926,-0.033705916,-0.14474522,9.747099
68986863826871,-0.073789984,-0.19716506,9.732961
68986883683256,-0.11063988,-0.23130897,9.744944
68986903539641,-0.0972748,-0.20873262,9.745061
68986923395898,-0.043277465,-0.16709009,9.759307
68986943252283,-0.01266826,-0.17209472,9.7779045
68986963108766,-0.043824818,-0.20563322,9.807205
68986982965151,-0.11318092,-0.26369846,9.813818
68987002821513,-0.122664176,-0.23546647,9.763616
68987022677898,-0.09057046,-0.16682568,9.717544
68987042534283,-0.030715331,-0.15397511,9.715635
68987062390668,0.0019536498,-0.20279552,9.7172
68987082244207,-0.054162264,-0.23434027,9.761592
68987102100592,-0.13226326,-0.23132578,9.766958
68987121956977,-0.08538138,-0.20114706,9.76639
68987141813234,-0.051979803,-0.1600152,9.780469
68987161659221,-0.098847926,-0.20343667,9.785471
68987181515350,-0.12742227,-0.24431463,9.759196
68987201371479,-0.086278245,-0.20408133,9.7485695
68987221227608,-0.055806946,-0.1342773,9.761617
68987241083865,-0.056332447,-0.14220181,9.7819395
68987260930488,-0.07144636,-0.18130656,9.738924
68987280786361,-0.06429861,-0.1815358,9.751156
68987300642362,-0.101195864,-0.17646728,9.752178
68987320498235,-0.116958134,-0.1762067,9.737476
68987340354236,-0.12322621,-0.18886937,9.7591915
68987360210109,-0.11453476,-0.21125346,9.751817
68987380056016,-0.078679025,-0.20258541,9.768542
68987399911761,-0.041496348,-0.16225524,9.7996235
68987419767506,-0.0414764,-0.17498155,9.801719
68987439623251,-0.11364415,-0.20883605,9.7719755
68987459469316,-0.12463473,-0.21297087,9.766127
68987479324783,-0.09779223,-0.17279556,9.733376
68987499180272,-0.096922964,-0.14337538,9.742329
68987519035761,-0.09644874,-0.18292853,9.770385
68987538891378,-0.05699098,-0.22595508,9.741364
68987558746867,-0.035071317,-0.1652304,9.737664
68987578594590,-0.0798385,-0.12676637,9.782834
68987598449823,-0.112271294,-0.20211032,9.78818
68987618305184,-0.10294867,-0.27968532,9.768618
68987638160545,-0.09472248,-0.2905521,9.749069
68987658015778,-0.056077264,-0.20719495,9.743056
68987677872201,-0.031741656,-0.1677573,9.746925
68987697727562,-0.06415254,-0.21248282,9.724697
68987717582795,-0.070966,-0.22034322,9.76464
68987737438156,-0.075297154,-0.22953199,9.777316
68987757296113,-0.059468556,-0.20983368,9.75718
68987777151474,-0.087312065,-0.2041042,9.77309
68987797006707,-0.059104804,-0.2010645,9.788552
68987816862068,-0.0341626,-0.21888411,9.789587
68987836717301,-0.044113096,-0.22247948,9.756882
68987856572662,-0.05998921,-0.20296533,9.766055
68987876425249,-0.09021435,-0.14429696,9.742143
68987896280482,-0.041323613,-0.14779086,9.734142
68987916135715,0.0011653564,-0.13196698,9.769636
68987935990948,-0.04856669,-0.12675792,9.73877
68987955846160,-0.015989793,-0.12570629,9.736634
68987975698419,0.01931785,-0.083683714,9.753367
68987995553524,-0.07290429,-0.044110347,9.80847
68988015408629,-0.18452944,9.7357214E-4,9.938317
68988035263734,-0.22088522,-0.099652834,9.680531
68988055118047,-0.033423353,-0.070794076,9.760981
68988074973152,-0.09369535,-0.18323663,9.809568
68988094828129,-0.018139873,-0.21172406,9.715176
68988114683106,0.03148493,-0.13954183,9.728798
68988134538211,-0.11369161,-0.16962376,9.761014
68988154393188,-0.18676418,-0.25027397,9.74546
68988174253715,-0.107675806,-0.28595033,9.752504
68988194108820,-0.119095,-0.33308905,9.759231
68988213963925,-0.09413243,-0.30601406,9.723581
68988233819158,-0.07279371,-0.25786304,9.761253
68988253674263,-0.13217747,-0.2817147,9.772997
68988273535232,-0.10861098,-0.27770787,9.739606
68988293390465,-0.019665094,-0.18801947,9.727766
68988313245698,0.017440792,-0.12533613,9.768689
68988333100931,-0.062977865,-0.15039045,9.767849
68988352956200,-0.083022095,-0.15518625,9.747115
68988372811433,-0.09603236,-0.1409579,9.762487
68988392666794,-0.093180194,-0.13300061,9.764253
68988412522027,-0.028110862,-0.09478377,9.763055
68988432377367,-0.02044854,-0.102398306,9.768753
68988452232600,-0.074421324,-0.14197417,9.745151
68988472100493,-0.07194098,-0.1866478,9.747553
68988491955982,-0.030511975,-0.15863702,9.807811
68988511811599,-0.048054744,-0.06967881,9.8445835
68988531667216,-0.068109326,-0.03216288,9.798857
68988551522833,-0.0665513,-0.009939522,9.744904
68988571380750,-0.10292973,-0.05508451,9.766722
68988591236495,-0.09281952,-0.09567898,9.777404
68988611092240,-0.043810032,-0.103634164,9.734079
68988630947857,-2.1852322E-4,-0.15400216,9.767217
68988650803602,-0.03479252,-0.17796937,9.810887
68988670659219,-0.07719368,-0.20083703,9.751762
68988690526428,-0.071388006,-0.20520939,9.736095
68988710382429,-0.038720496,-0.23975357,9.728552
68988730238430,7.319094E-5,-0.2735171,9.753082
68988750094431,-0.084180586,-0.31669486,9.765397
68988769956736,-0.14490308,-0.3156205,9.7286825
68988789812865,-0.061722964,-0.2470127,9.7367
68988809668994,0.0042185597,-0.20792845,9.762675
68988829525123,-0.012493151,-0.24380356,9.7694235
68988849381252,-0.044028718,-0.25859213,9.75381
68988869239093,-0.08867258,-0.20979661,9.752207
68988889095350,-0.07784337,-0.1471959,9.770968
68988908951458,-0.012632658,-0.15471901,9.754762
68988928807715,0.048259262,-0.17039774,9.746553
68988948663844,0.017112123,-0.17435095,9.752957
68988968520101,-0.05170753,-0.20918295,9.725459
68988988370896,-0.0363199,-0.23352176,9.722576
68989008227025,0.004808455,-0.2233906,9.737187
68989028083154,-0.02312418,-0.19634053,9.767616
68989047939155,-0.032726545,-0.22126865,9.791517
68989067786356,-0.05360583,-0.22383301,9.729577
68989087642229,-0.06246194,-0.17205155,9.770425
68989107498102,-0.09692916,-0.1438918,9.744667
68989127354103,-0.06774018,-0.11640987,9.736098
68989147209976,-0.036197122,-0.115380675,9.758484
68989167060769,-0.03954099,-0.15723197,9.78357
68989186916642,-0.11519405,-0.18719777,9.79392
68989206772387,-0.11854354,-0.17194442,9.782564
68989226628132,-0.08522029,-0.09418306,9.797377
68989246483877,-0.10203152,-0.06642646,9.793652
68989266339750,-0.085963264,-0.14182359,9.7598715
68989286195477,-0.024928715,-0.21751827,9.745763
68989306051222,0.03242723,-0.21916501,9.787249
68989325906967,0.025195042,-0.18282287,9.778088
68989345762840,-0.021264248,-0.17051393,9.76842
68989365612277,-0.09685414,-0.20959,9.764495
68989385468001,-0.0718489,-0.23652002,9.751253
68989405323746,0.014344554,-0.2184209,9.74812
68989425179491,0.027228639,-0.21442893,9.7613
68989445035236,0.0019318316,-0.23341405,9.744776
68989464890853,0.016732786,-0.21322225,9.746822
68989484744660,0.02672505,-0.1917346,9.754047
68989504600277,-0.025493994,-0.19998974,9.761898
68989524455894,-0.04749205,-0.22408512,9.766328
68989544311639,-0.038453612,-0.19590463,9.767672
68989564167256,-0.054223377,-0.18188494,9.7462
68989584021057,-0.027428884,-0.16011813,9.741266
68989603876546,0.02334453,-0.17906423,9.754385
68989623732163,0.03290052,-0.18682107,9.767413
68989643587780,0.0118993,-0.21399295,9.761356
68989663444335,-0.01731851,-0.20071283,9.751948
68989683299952,-0.007879339,-0.16066383,9.770632
68989703155441,-0.02082036,-0.15502904,9.769388
68989723011058,-0.044644278,-0.17329946,9.740763
68989742866547,-0.04455229,-0.22317174,9.744462
68989762722164,0.019489523,-0.18446128,9.765447
68989782576087,0.036632724,-0.13413453,9.764344
68989802431576,-0.010308915,-0.12613395,9.75863
68989822287065,-0.024626076,-0.1562936,9.761741
68989842142554,-0.019026872,-0.14916077,9.805028
68989861998021,0.005348776,-0.08646707,9.85545
68989881855662,0.04210284,-0.08189584,9.865569
68989901711279,0.06009115,-0.040456012,9.862007
68989921566768,0.033786666,0.0035990651,9.840718
68989941422385,-0.014247104,0.039871413,9.814006
68989961278918,-0.01608925,0.0038648413,9.791616
68989981134407,-7.730882E-4,-0.009246659,9.777624
68990000989768,-0.014928102,0.0035084656,9.754688
68990020845257,-0.050578102,0.04898571,9.734955
68990040700746,-0.06651238,0.05165424,9.754777
68990060556235,-0.019251645,0.0016989878,9.774608
68990080410998,0.009517028,-0.03514947,9.774625
68990100266487,0.020492539,-0.008666499,9.801586
68990120121976,0.0039660153,-0.023280216,9.804159
68990139977465,0.01840848,-0.0066920654,9.846237
68990159832954,0.033416133,0.03150015,9.87197
68990179688591,0.022790598,0.005014555,9.92082
68990199544080,-0.0013498676,-0.07640259,9.938709
68990219399569,0.021925101,-0.09652041,9.949422
68990239254930,0.035921045,-0.020524247,9.949284
68990259110419,0.042820003,0.039975483,9.964915
68990278965908,0.03800202,0.019262183,9.999137
68990298827621,0.02107752,-0.07366063,9.982414
68990318683110,0.033827487,-0.055632066,9.939305
68990338538706,0.015521317,0.0037830144,9.983634
68990358394323,0.008185553,0.038197313,10.006872
68990378249348,-0.04240339,0.026153393,9.9588785
68990398104965,-0.048298843,-0.012372084,9.9614935
68990417960710,0.016805107,-0.0118368,9.971377
68990437816327,0.035710204,-0.012638942,9.997786
68990457672072,0.039965354,-0.032593794,10.035839
68990477535545,0.0332868,5.897798E-4,10.049012
68990497391418,0.007359395,-0.023117933,10.069025
68990517247291,-0.004840801,-0.06106631,10.092246
68990537103164,0.011128252,-0.017676583,10.118189
68990556959037,0.010507124,-0.022941845,10.102834
68990576814910,4.8534753E-4,-0.046912547,10.0714855
68990596672801,-0.028506791,-0.021028314,10.086944
68990616528674,-0.03976535,0.026884342,10.122525
68990636384675,-0.030957786,0.044120412,10.150628
68990656240548,-0.0047776117,-0.01741359,10.169549
68990676098439,-0.032745425,-0.061427616,10.159997
68990695954440,-0.055832755,-0.045689914,10.173092
68990715810441,-0.04005082,-0.013854834,10.17536
68990735666314,-0.009928832,-0.0364193,10.20915
68990755522315,0.02193564,-0.04807977,10.232033
68990775383222,0.011936767,-0.048600238,10.245691
68990795239223,-0.0127464775,-0.052414358,10.261074
68990815095332,0.024743505,-0.08249862,10.268403
68990834951333,0.07502785,-0.067925826,10.27916
68990854807462,0.0563718,-0.0343975,10.284153
68990874663463,0.018414633,-0.040515058,10.318969
68990894517586,0.026523847,-0.08953912,10.323478
68990914373587,0.054433107,-0.113781236,10.301043
68990934229588,0.07649522,-0.051138647,10.317815
68990954085717,0.059279554,-0.021969955,10.375841
68990973928006,0.006162918,-0.042067878,10.333017
68990993783751,-0.024531906,-0.10350085,10.308034
68991013639496,0.012986688,-0.098377526,10.300081
68991033495241,0.06786275,-0.04992891,10.309605
68991053350858,0.046630416,-0.04651543,10.34291
68991073206603,0.037445955,-0.031741768,10.36103
68991093050212,0.01170012,0.001774155,10.367188
68991112905829,-0.03783648,-0.03509424,10.360743
68991132761318,-0.03826642,-0.11968934,10.342444
68991152616807,0.02290496,-0.09230179,10.345739
68991172472296,0.027499318,0.023561114,10.345404
68991192320599,-0.02807663,0.08177125,10.332769
68991212175960,-0.018132525,0.068000056,10.3636
68991232031321,5.0683034E-4,-0.004370607,10.417172
68991251886682,-0.027120853,-0.049476855,10.396261
68991271739137,-0.026428837,-0.056452256,10.356081
68991291594348,0.014956321,-0.028900752,10.322711
68991311449709,0.023534536,0.026949134,10.327727
68991331304942,-0.0051120347,0.03881421,10.329232
68991351160175,0.012213723,0.049841218,10.335776
68991371015536,0.018939905,0.012999454,10.350245
68991390866459,-0.014439534,-0.012251609,10.3637085
68991410721564,0.01010217,-0.050697397,10.379289
68991430576797,0.041360144,-0.056595095,10.3652
68991450431902,0.05007616,-0.002680335,10.365225
68991470287135,0.036871433,0.026257839,10.381223
68991490145794,0.055392865,0.04091373,10.40478
68991510001027,0.04838476,-0.013699135,10.397029
68991529856132,0.023383904,-0.086461425,10.372835
68991549711365,0.0066100084,-0.029924545,10.392973
68991569566470,-0.036045283,0.030792639,10.42112
68991589421703,-0.048501734,-0.020357316,10.350972
68991609278258,-0.017189486,-0.06648636,10.350183
68991629133491,0.021776037,-0.046633434,10.394124
68991648988596,-0.02496203,-0.041844964,10.396724
68991668843829,-0.027529137,-0.031204296,10.370695
68991688698264,0.046291564,-0.0039724754,10.341491
68991708553369,0.08394573,0.02249038,10.354104
68991728408474,0.069875635,0.016248956,10.36418
68991748263707,0.01840476,-0.016078712,10.378738
68991768118791,6.786591E-4,-0.0027053684,10.387497
68991787981536,0.009498877,0.0051298914,10.370777
68991807836769,1.7985565E-4,-0.03693508,10.373594
68991827692130,-0.04006588,-0.063634366,10.350829
68991847547363,-0.032238256,-0.014133527,10.372666
68991867402596,-0.011537475,-0.013826751,10.405002
68991887257829,-0.021433583,-0.03271717,10.385438
68991907109568,0.025310228,-0.06635555,10.37375
68991926964673,0.054876458,0.0048846044,10.405236
68991946819906,0.022539692,-0.0031116887,10.392664
68991966675139,-0.0028848113,-0.046944264,10.376893
68991986534176,-0.009011581,-0.040356316,10.363368
68992006389409,0.022787934,-0.034715917,10.349165
68992026244514,0.0022942163,-0.012023825,10.355506
68992046099747,-0.022301162,-0.014430179,10.370565
68992065954980,-0.0100849215,0.010610933,10.367474
68992085814041,0.02676357,-0.014078315,10.365051
68992105669274,0.014173978,-0.033472303,10.390147
68992125524635,-0.0077699935,-0.022531271,10.39948
68992145379868,0.015665483,-0.026988503,10.379906
68992165235229,0.04311952,0.0041875965,10.366115
68992185090590,0.043987915,0.027659852,10.424231
68992204953229,0.024571272,0.032334365,10.389076
68992224808718,0.017693972,-0.032068625,10.382026
68992244664185,0.050516035,-0.0011541119,10.379582
68992264519674,0.03942801,0.04739325,10.386642
68992284380619,0.040205814,0.018822433,10.391771
68992304236236,0.060486075,0.0076721446,10.364608
68992324091981,0.03985518,0.0050861654,10.358925
68992343947598,0.020320402,-0.014493147,10.379197
68992363803215,-0.002175493,0.0033097751,10.3498125
68992383658960,4.7313838E-4,0.03203485,10.368507
68992403519889,0.01360584,-0.0087836385,10.350511
68992423375762,-0.0013518266,-0.03830713,10.3415365
68992443231635,-0.012417649,-0.052698243,10.367058
68992463087508,0.011639462,-0.027399817,10.360064
68992482943381,0.008117016,0.011125812,10.359358
68992502803008,0.033979002,-8.6992804E-4,10.355716
68992522659137,0.054738227,-0.034804936,10.350302
68992542515138,0.030054605,-0.018161265,10.3092
68992562371139,0.016216233,-0.014785805,10.294315
68992582225142,0.0146134645,-0.012312272,10.274787
68992602081143,0.036795344,-0.031722203,10.250533
68992621937144,0.038628045,-0.031711575,10.225713
68992641793145,0.023169186,-0.02062838,10.249533
68992661649146,0.005334144,0.008911461,10.252388
68992681505147,0.018951522,0.022993108,10.246004
68992701359758,0.04784796,-0.002126332,10.250439
68992721215609,0.053346626,0.0058611594,10.243297
68992741071610,0.016280018,-0.0040727914,10.283177
68992760927483,0.007995808,-0.0063713617,10.275194
68992780783356,0.052102573,-0.015173429,10.188862
68992800638503,0.06812406,-0.005617021,10.19966
68992820494376,0.020442927,0.03814596,10.193429
68992840350249,-0.015966808,0.008688968,10.090259
68992860206250,-0.009843132,-0.0020990872,10.023791
68992880060435,0.03406655,0.016635612,10.050428
68992899916308,0.066632986,0.0053859134,10.106086
68992919772181,0.09181896,-0.024895407,10.172006
68992939628054,0.061731238,-0.030855203,10.166144
68992959483799,-0.021307383,0.005503558,10.0866585
68992979339672,7.990525E-4,-0.014250419,9.99326
68992999190717,0.052079473,-0.035762765,9.95056
68993019046462,0.05641726,-0.019489702,9.931315
68993038902079,0.02265549,-0.02594217,9.940904
68993058757824,-0.025160216,-0.020013047,9.957197
68993078613569,-0.006461883,-0.028208692,10.05941
68993098456536,0.062163252,-0.024745774,10.067673
68993118312025,0.14220089,-0.021365592,10.095729
68993138167514,0.10779731,-0.0103621995,10.047794
68993158023003,0.007872572,-0.022773156,9.999869
68993177878492,-0.012088323,-0.017879087,9.97894
68993197733961,0.022987848,-0.028624233,9.942206
68993217585610,0.045567352,-0.028202595,9.923033
68993237440971,-0.010360741,-0.020994753,9.913871
68993257296332,-0.014428081,0.0013973702,9.873673
68993277151693,-0.021176036,0.024059463,9.870712
68993297003122,0.023605907,-0.018168937,9.867773
68993316858355,0.04375654,-0.03692483,9.813905
68993336713716,0.0465642,-0.02214352,9.81215
68993356568949,0.0032611797,-0.009056648,9.8269615
68993376424310,-0.017415157,0.05921008,9.832833
68993396282525,0.048769146,0.059163053,9.80756
68993416137886,0.08591421,0.03651221,9.826572
68993435993247,0.05007788,0.029280175,9.8587055
68993455848608,0.0016733322,-0.007664753,9.829609
68993475703969,-0.036245365,-0.010991195,9.83245
68993495559330,0.009392986,-0.022656012,9.846448
68993515410765,0.059679825,-0.015603706,9.855562
68993535265998,0.050775565,2.8475239E-5,9.80952
68993555121231,-0.020538168,0.04133455,9.788374
68993574976464,-0.057494685,0.05202827,9.78009
68993594833203,-0.02236164,-7.4707204E-5,9.770059
68993614688436,0.016607381,-0.05355952,9.734895
68993634543669,-0.018953247,-0.0043507586,9.772183
68993654398902,-0.020190058,0.0169496,9.792736
68993674254114,6.133304E-4,-0.013066053,9.794802
68993694109445,0.021118922,-0.04018185,9.791005
68993713964550,0.015949689,-0.037964776,9.786533
68993733819783,-0.01831244,-0.013532874,9.780528
68993753675016,-0.0016762032,-0.011216521,9.775272
68993773530249,0.041110862,-0.033532128,9.769904
68993793385482,0.01006822,-0.0078862,9.787723
68993813244463,-0.0028270106,-0.009066559,9.802046
68993833099824,0.02622096,-0.026502332,9.817549
68993852955057,0.033086624,-0.007151966,9.776868
68993872810290,0.018231455,0.003766155,9.745573
68993892667811,0.01741036,0.016165184,9.746255
68993912523172,0.00720364,0.04240052,9.736425
68993932378533,0.008418025,0.0604922,9.728599
68993952233894,0.011029166,0.035203904,9.754094
68993972089127,0.013724707,0.0015827615,9.788189
68993991944488,0.048179973,-0.015719518,9.807771
68994011803769,0.100202404,-0.010185417,9.828631
68994031659258,0.054003805,0.021243159,9.798841
68994051514619,-0.003103457,0.0095931515,9.78211
68994071369980,0.033086624,-0.007151966,9.776868
68994091225341,0.06177737,-0.03373316,9.722817
68994111079654,0.04051776,-0.010115273,9.705224
68994130935143,0.035782266,0.036495183,9.718417
68994150790482,0.030842261,0.055787172,9.73805
68994170645843,0.069265336,0.055024665,9.755408
68994190499266,0.045493446,0.034298085,9.737392
68994210354627,0.023389848,0.0017420391,9.750521
68994230209860,0.033617694,0.007759408,9.755573
68994250065221,0.042410214,0.02241368,9.769139
68994269920582,0.031929966,0.016767558,9.781185
68994289775943,0.006002092,-0.027631188,9.782102
68994309641776,0.020891737,-0.039648484,9.765137
68994329497393,0.005250835,-0.013852619,9.7774315
68994349352882,0.038778663,0.0066125854,9.777146
68994369208499,0.02138292,-2.53138E-4,9.753554
68994389064116,-0.033172082,-0.04338516,9.738254
68994408924061,-0.020185934,-0.049150947,9.744946
68994428779806,0.03137187,-0.034002364,9.753092
68994448635551,0.03430589,-0.01350002,9.759065
68994468491168,0.016986638,0.00756713,9.75768
68994488346913,0.00861675,0.012162994,9.787315
68994508202658,0.03806754,0.021156747,9.791916
68994528058311,0.06957508,0.049469806,9.795456
68994547914056,0.062852666,0.04429181,9.780037
68994567769801,0.020020079,0.06271762,9.767597
68994587625674,-0.028491367,0.062581204,9.746757
68994607481713,-0.0017316516,0.03414318,9.745756
68994627337564,0.014566867,-0.014619897,9.744124
68994647193309,0.07319809,-0.0342275,9.718365
68994667049182,0.081456944,-0.013213629,9.715824
68994686905055,0.029371312,0.02212161,9.737162
68994706760800,-0.011791082,0.042777523,9.747105
68994726612933,-0.04590169,-0.035468113,9.720563
68994746468550,-0.024882229,-0.071022965,9.725103
68994766324295,0.008316537,-0.016980095,9.7381525
68994786179912,0.03097917,0.00914107,9.756936
68994806035657,0.022517284,9.7622076E-4,9.72964
68994825887774,0.023808045,-0.025792867,9.74271
68994845743391,0.016090823,-0.004433888,9.7385025
68994865599008,0.0017575899,-0.02475817,9.720238
68994885454625,-0.03588113,-0.02480642,9.705862
68994905313168,-0.051487748,-0.0016196381,9.664047
68994925168785,-0.012052396,-0.019612355,9.629886
68994945024402,-0.00718976,-0.041551527,9.620021
68994964880019,-0.030491197,0.0034158435,9.591098
68994984735764,-0.029120969,0.010973373,9.6174135
68995004591381,-0.01903391,-0.018273199,9.638584
68995024442878,0.0013117249,-0.05739607,9.638516
68995044298495,-0.025650041,-0.05995658,9.624524
68995064153984,-0.041022483,-0.040826347,9.624409
68995084009601,-0.04092549,0.01024223,9.627175
68995103865195,-0.003855829,0.06577395,9.610524
68995123713876,0.0072766393,0.03739617,9.592601
68995143569237,-0.012092537,0.03200734,9.597104
68995163424726,-0.020504849,0.008428216,9.560724
68995183280215,-0.01590815,-0.009087446,9.540424
68995203134132,-0.0041036247,0.008173555,9.526507
68995222989493,0.0032995674,0.028297756,9.513645
68995242844854,0.014488001,0.019034475,9.498456
68995262700343,0.042238414,-0.0018515319,9.442508
68995282555704,0.039006844,-0.0069013564,9.48626
68995302411065,0.031513546,0.025266025,9.509087
68995322259812,0.009623126,0.0040432783,9.448121
68995342115045,-0.022146745,-0.049596056,9.423065
68995361970278,0.017151065,-0.03140862,9.412597
68995381825511,0.06574261,-0.0049681696,9.423958
68995401680744,0.048165515,-0.03864793,9.458364
68995421530527,0.014576342,-0.060121343,9.430856
68995441385632,0.020573998,-0.055994466,9.45013
68995461240737,0.010854243,-0.07915045,9.450672
68995481095970,-0.00769816,-0.09894147,9.394315
68995500951075,0.03066841,-0.042695206,9.352772
68995520806180,0.03664486,0.0071538654,9.356607
68995540659269,0.011594023,0.0011763815,9.371635
68995560514374,-0.007460479,-0.048167124,9.377117
68995580369458,0.009195605,-0.045742795,9.307825
68995600224563,0.028651929,-0.012017172,9.272003
68995620079574,0.0464311,0.006816102,9.297468
68995639934679,0.018837942,-0.008916243,9.312826
68995659789784,-0.032386158,-0.067427605,9.326315
68995679644889,-0.042973578,-0.09719748,9.288372
68995699499994,0.02397646,-0.061666828,9.215354
68995719352201,0.043428015,9.4522664E-4,9.172136
68995739207178,0.060554113,0.03377554,9.109548
68995759062155,0.049620245,0.012003812,9.129227
68995778917132,-0.037752114,-0.03783817,9.168073
68995798772109,-0.055744983,-0.057133567,9.186571
68995818627086,-0.02401453,-0.032211076,9.26762
68995838478779,0.013188583,-0.008401736,9.323371
68995858333500,0.029287232,-0.011212095,9.30385
68995878188349,0.0019256995,-0.041284557,9.331452
68995898043198,-0.023116767,-0.05077117,9.291306
68995917900833,-0.05286198,-0.03302523,9.248944
68995937755682,-0.0664131,-0.026413288,9.232116
68995957610659,0.03357026,-0.005012877,9.184552
68995977465508,0.08110434,0.003407255,9.194918
68995997320485,0.05531162,-0.013226159,9.192791
68996017184568,0.006605896,-0.029136047,9.144635
68996037039673,-0.031637564,-0.033257704,9.136315
68996056894755,-0.033711374,-0.07476839,9.131311
68996076749860,-0.01746008,-0.029019274,9.153009
68996096604965,0.016451085,0.023128964,9.179184
68996116460070,0.015264727,0.020042293,9.166489
68996136315943,0.008386447,0.004585186,9.1862545
68996156171048,-0.01612882,-0.020563262,9.225387
68996176026153,-0.029144116,-0.029965803,9.224823
68996195881258,-0.0074032913,-0.010015707,9.214325
68996215738057,-0.003987552,-0.002728832,9.227597
68996235593162,-0.002021898,-0.0057680574,9.202396
68996255448267,-0.031276174,-0.025607392,9.201369
68996275303372,-0.041280814,-0.033540256,9.198359
68996295158477,-0.002416287,0.02033134,9.173042
68996315013582,0.0062163044,0.03658066,9.160602
68996334876465,-0.027332187,0.0036260749,9.172202
68996354731826,-0.029048415,-0.024803437,9.167076
68996374587059,-0.023662452,-0.00629575,9.130893
68996394442420,-0.007297073,0.027063088,9.142942
68996414297781,0.02432547,0.038815904,9.193611
68996434156074,0.014422535,-0.016819153,9.159716
68996454011435,0.0068270136,-0.049611464,9.149422
68996473866796,-0.013090885,-0.008125644,9.222529
68996493722157,-2.9041906E-4,-0.00168318,9.185878
68996513590106,-0.015372292,-0.023396837,9.163649
68996533445829,-0.021312883,-0.0088418545,9.185018
68996553301446,0.020103792,8.169528E-4,9.188133
68996573157191,0.022820638,-0.017722193,9.2113285
68996593012936,0.0070440383,-0.061512444,9.192273
68996612868681,0.0068828124,-0.027853018,9.16924
68996632721824,-0.034268986,9.719188E-4,9.146402
68996652577569,-0.03418689,0.0019625002,9.158808
68996672433314,0.01761314,0.03844285,9.185608
68996692288931,-0.0010988702,0.013759636,9.199725
68996712144676,-0.034592558,0.0028402382,9.154117
68996732003079,-0.023341587,-0.004452569,9.16156
68996751858824,-0.0062300917,-3.659283E-4,9.182854
68996771714569,-0.015251769,0.010091718,9.163582
68996791570314,-0.022488851,0.00519534,9.168182
68996811422841,-0.039235894,-0.011172662,9.154343
68996831278586,-0.030052263,-0.011656195,9.160792
68996851134331,0.0024245563,-0.012365988,9.174968
68996870990076,0.0156405,-0.011343804,9.154454
68996890845821,0.021786014,5.872365E-4,9.183054
68996910701566,-0.023930209,-0.041067682,9.188995
68996930559591,-0.041976925,-0.07760969,9.1666
68996950415336,-0.008585491,-0.05156604,9.183259
68996970271209,0.046438005,0.023816766,9.175487
68996990126954,0.070972234,0.08411647,9.179758
68997009982676,-0.036027666,0.019682743,9.21393
68997029837435,-0.052261207,-0.08974165,9.184438
68997049693180,-0.013436285,-0.09357546,9.191878
68997069548925,0.031216014,0.021702481,9.207155
68997089404670,0.05893042,0.10865923,9.1728735
68997109260415,0.019262217,0.08446744,9.163103
68997129116160,-0.022095662,-0.02885368,9.16248
68997148962761,-0.009108774,-0.046444327,9.216708
68997168818250,0.0013339748,-0.02586686,9.2460575
68997188673867,0.013948598,-0.0033294754,9.253521
68997208529484,0.03227802,0.02271673,9.2561
68997228382389,0.01339151,0.006771504,9.257777
68997248237878,-0.014156871,0.030739851,9.240416
68997268093495,-5.8403425E-4,0.021382874,9.249574
68997287948984,-0.009940931,-0.02946223,9.249072
68997307804473,-0.009288537,-0.026854634,9.247012
68997327649826,0.004880438,0.008760271,9.2492485
68997347505187,0.045452196,0.059961107,9.248947
68997367360420,0.037153162,0.031277873,9.235072
68997387215781,-0.008984463,-0.07789536,9.257674
68997407071142,-0.045699652,-0.08762394,9.247655
68997426926375,-0.006771792,-0.004323931,9.226214
68997446780944,0.03550952,0.06337704,9.213934
68997466636177,0.015852986,0.07993558,9.228666
68997486491517,-0.020454321,0.017193533,9.259335
68997506346750,0.002152146,-0.05176954,9.3064375
68997526200423,-0.004287558,-0.05757717,9.308697
68997546055656,0.034417346,0.014886572,9.3183975
68997565910761,0.05899637,0.048791,9.328355
68997585765994,0.005837485,0.0086916,9.340337
68997605621099,-0.046069764,-0.049553983,9.332095
68997625478746,-0.035608638,-0.06812932,9.3522415
68997645333979,0.012889883,-0.010055521,9.370639
68997665189212,0.03532353,0.022778962,9.4148855
68997685044445,-0.008444472,0.015516712,9.423797
68997704899678,-0.054546457,-0.05984841,9.375403
68997724754911,-0.049281903,-0.08845651,9.367648
68997744612808,0.016664773,-0.061167084,9.364262
68997764468041,0.040959284,0.018211663,9.39636
68997784323274,0.008484731,0.02072571,9.439738
68997804178507,-0.020533262,-0.047127187,9.449188
68997824030382,-0.031169033,-0.09132363,9.465209
68997843885615,-0.015358371,-0.08457683,9.471762
68997863740720,0.023419933,-0.0040010675,9.497444
68997883595825,0.050027907,0.019739944,9.5226
68997903451058,0.013869838,-0.022622736,9.549293
68997923306163,-0.06606647,-0.07391114,9.557746
68997943161692,-0.09304041,-0.04636892,9.528816
68997963016774,-0.013803601,0.061787248,9.533345
68997982872007,0.03737708,0.06774629,9.542667
68998002727112,0.020509768,0.068002746,9.561887
68998022582345,-0.022234363,0.015563474,9.561186
68998042444784,-0.0369931,-0.042346474,9.556169
68998062300017,0.02041351,0.005756642,9.576363
68998082155378,0.04921283,0.08410928,9.585371
68998102010611,0.03469998,0.07322054,9.607402
68998121876316,0.0036277422,0.0029938081,9.661058
68998141731933,-0.042705644,-0.026296524,9.6449585
68998161587422,-0.022268971,-0.0063733864,9.657855
68998181443039,0.0048645544,0.014360262,9.709149
68998201298528,0.034941114,0.0333122,9.706043
68998221154145,0.058746457,0.018256783,9.7080345
68998241009542,0.0059914403,-0.045705583,9.682287
68998260865159,0.0015952062,-0.020379439,9.733309
68998280720648,0.008179998,0.032553237,9.7580805
68998300576137,6.191034E-5,0.013664676,9.726731
68998320431754,0.0013172925,-0.025777917,9.6958275
68998340287925,0.021799194,-0.013991608,9.692754
68998360143542,0.022203464,-0.011340076,9.690685
68998379999159,0.0012818773,-0.039304998,9.703438
68998399854776,0.0053007365,-0.024610937,9.717515
68998419706657,0.00564758,-0.015528256,9.704267
68998439562125,0.008989184,-0.012651369,9.705243
68998459417614,0.007120655,0.0071173403,9.716023
68998479273231,0.027897032,0.020174893,9.737714
68998499128720,0.028731957,0.007084909,9.737919
68998518984209,-0.03153647,0.007925435,9.757324
68998538842038,-0.031186864,0.018414773,9.754112
68998558697783,-0.00254406,0.009573735,9.744429
68998578553400,0.014709069,0.012288037,9.735524
68998598409017,0.020362068,0.049753033,9.726333
68998618264634,-0.021381732,0.03197441,9.740525
68998638122271,-0.042854644,-0.037398197,9.76345
68998657978016,-0.029842516,-0.07746642,9.782248
68998677833761,-0.01681896,-0.026383352,9.745104
68998697689506,-0.025598105,0.03306875,9.74364
68998717545251,-0.026091365,0.033248935,9.785257
68998737400996,-0.034972716,-0.021150509,9.733427
68998757256631,-0.029913474,-0.011935574,9.685482
68998777112376,-0.027445253,0.028961698,9.740743
68998796967993,-0.034717977,-0.015327373,9.768551
68998816823738,0.0077110035,-0.032384887,9.765682
68998836678759,0.012446183,-0.016102357,9.806877
68998856534376,-0.027471734,-0.0058984,9.837647
68998876390121,-0.071683876,-0.064574175,9.79658
68998896245866,-0.08833199,-0.04232472,9.745979
68998916101460,-0.05876804,0.047072597,9.717942
68998935956797,-0.011364031,0.017731782,9.722207
68998955812414,0.02122222,-0.038013242,9.733726
68998975668031,0.021969493,-0.03808623,9.753168
68998995523648,-0.017032312,-0.0023106383,9.756277
68999015379265,-0.004976851,0.035874344,9.7854595
68999035234882,-0.024073,-0.015299781,9.798982
68999055086123,-0.033049013,-0.07369241,9.780816
68999074941612,-0.029570945,-0.07467478,9.758258
68999094797101,0.005143036,0.028656209,9.753771
68999114652718,0.022576535,0.06891603,9.750892
68999134503575,0.0032920046,0.017053735,9.749669
68999154359064,-0.011696503,-0.0077127414,9.723009
68999174214553,-0.0038883756,-0.005168716,9.764022
68999194069914,-0.0075440197,0.013473711,9.767477
68999213925403,0.007140535,0.033469655,9.771414
68999233777290,-0.021658994,0.011064835,9.763881
68999253632779,-0.040083583,-0.0052424516,9.760987
68999273488140,-0.030253822,-0.011581286,9.785663
68999293343501,-0.022131043,-0.004765873,9.790687
68999313198862,0.010618695,0.032487527,9.748855
68999333054223,0.014722216,0.043371882,9.752574
68999352901246,-0.028961368,7.820927E-4,9.785069
68999372756479,-0.03791968,-0.03643728,9.802091
68999392611689,-0.043021757,-0.048302315,9.781203
68999412466922,-0.0020248278,-0.037331473,9.768759
68999432320839,0.038643375,0.044731297,9.792546
68999452175944,-0.0046385545,0.063817844,9.800457
68999472031049,-0.07146088,-0.011821552,9.746415
68999491886282,-0.10759323,-0.0783676,9.729584
68999511741387,-0.02123301,-0.022209825,9.729416
68999531596492,0.09999515,0.09530075,9.750242
68999551453723,0.053564187,0.04674167,9.769266
68999571308828,0.021240748,-0.03122825,9.769658
68999591163933,-0.011062609,-0.041810747,9.771449
68999611019038,-0.081856035,-0.03200867,9.775954
68999630874143,-0.092276804,-0.058886096,9.775086
68999650725500,-0.00596244,-0.07680587,9.743114
68999670580477,0.08700148,-0.0022107929,9.740394
68999690435582,0.07195166,0.04706661,9.769745
68999710290687,0.018935474,0.033627927,9.778218
68999730153954,-0.0059672124,-0.06901054,9.785917
68999750009187,-0.015072851,-0.12659846,9.755398
68999769864420,0.0021566919,-0.05959915,9.767051
68999789719653,0.03559388,-0.0063655237,9.75267
68999809575014,0.03131575,-0.022271527,9.748062
68999829430247,0.028229224,-0.07829766,9.748883
68999849283212,0.04390819,-0.10335361,9.774756
68999869138423,0.024595251,-0.01831991,9.752858
68999888993528,-0.003671645,-0.016086949,9.760368
68999908848761,-0.02100369,-0.038431354,9.752952
68999928703994,5.492716E-5,-0.026919132,9.738666
68999948559203,0.0031798836,-0.0010824305,9.764892
68999968414436,-0.056841455,-0.05621667,9.799018
68999988269669,-0.057417456,-0.08290625,9.789511
69000008124902,-0.04666327,-0.044558533,9.724646
69000027984273,0.0030749806,0.053596903,9.757407
69000047839506,0.01611155,0.09393245,9.821972
69000067694739,-0.08151937,0.019372933,9.789826
69000087549972,-0.15823874,-0.038922977,9.773504
69000107405205,-0.10185228,-0.024305351,9.742327
69000127260566,0.014320575,0.03311026,9.730975
69000147112513,0.05079113,0.010157702,9.758207
69000166967618,0.02180768,-0.046727303,9.767613
69000186822851,0.004956654,-0.007957941,9.7659855
69000206677956,0.012930401,0.03583097,9.760829
69000226533189,0.017877728,0.036283664,9.755639
69000246389948,0.038065914,0.044941302,9.745798
69000266245181,0.016869709,0.032257136,9.747697
69000286100414,-0.04810233,0.045106348,9.781929
69000305955519,-0.046126295,0.04882013,9.765349
69000325810752,0.029529015,0.070824444,9.738814
69000345665963,0.09223899,0.08735899,9.72512
69000365519118,0.106221855,0.04689821,9.751194
69000385374351,0.04671844,-0.040531736,9.788231
69000405229456,-0.021020142,-0.07448154,9.778914
69000425084689,-0.007845625,-0.033767037,9.76749
69000444942068,0.053495724,0.05290243,9.774048
69000464797301,0.043670814,0.06522553,9.75994
69000484652534,0.00925434,0.03279975,9.7502985
69000504507767,-0.030549455,-0.0146355955,9.753255
69000524363000,-0.061192796,-0.004659631,9.78209
69000544224675,-0.058546558,0.023563297,9.762207
69000564080036,-0.01184178,0.08036091,9.787018
69000583935525,-0.031777114,-0.007069837,9.786333
69000603791014,-0.06289931,-0.12772508,9.771329
69000623646375,-0.034241546,-0.16999103,9.793333
69000643501864,0.07837882,-0.08247846,9.749059
69000663357073,0.073728144,-0.054750632,9.72
69000683212562,0.028344564,-0.119682364,9.757096
69000703067923,0.03294387,-0.15260573,9.738961
69000722923412,0.0444627,-0.15424848,9.747395
69000742784881,0.0049475566,-0.18991986,9.76449
69000762640370,0.0058733905,-0.15454096,9.760593
69000782495987,0.043350827,-0.08084195,9.730563
69000802351476,0.012341042,-0.0699891,9.708375
69000822207071,-0.06855078,-0.08454685,9.753114
69000842061658,-0.0703083,-0.0782197,9.800683
69000861917147,-0.06856743,-0.04045236,9.763286
69000881772764,-0.09803034,-0.0018794524,9.738135
69000901628253,-0.101560876,0.017832514,9.778433
69000921483870,-0.028581232,0.044767443,9.811791
69000941339359,-0.06034888,0.05821787,9.7946
69000961185736,-0.10011087,0.08261533,9.775054
69000981040969,-0.10562293,0.10901317,9.750839
69001000896330,-0.06023559,0.12036431,9.729903
69001020751691,-0.019973544,0.0968768,9.7178755
69001040604906,-0.027710611,0.09876653,9.762677
69001060460139,-0.08571841,0.09221174,9.807349
69001080315500,-0.09956314,0.055801652,9.804445
69001100170733,-0.019538658,0.07814767,9.751132
69001120025966,0.02965146,0.142421,9.763573
69001139881327,-0.003163735,0.093025595,9.776889
69001159732108,-0.07134055,0.010857296,9.796876
69001179587341,-0.0499198,0.010955267,9.758704
69001199442574,0.068447374,0.07972699,9.732587
69001219297807,0.13003136,0.13414639,9.783816
69001239153040,0.08625654,0.06572853,9.7995
69001259003835,-0.005386364,-0.03604225,9.754422
69001278858940,0.021320198,0.0028310786,9.742159
69001298714024,0.12009687,0.036160268,9.751492
69001318569129,0.16391312,0.02384577,9.782614
69001338420308,0.08724389,-0.027827933,9.788829
69001358275413,-0.0042366674,-0.01795216,9.770581
69001378130390,-0.059130125,0.012776563,9.741143
69001397985495,-0.05842594,0.02229393,9.774513
69001417840472,-0.0073351953,0.018549182,9.770034
69001437695577,0.05130632,-0.010450531,9.767785
69001457552122,-0.002255341,-0.05687418,9.773217
69001477407227,-0.09199498,-0.090447925,9.77145
69001497262204,-0.109768555,-0.069727145,9.744771
69001517117309,-0.012275324,-0.024157159,9.74811
69001536972286,0.06561395,0.0541643,9.75146
69001556835297,0.03501523,0.06228707,9.774714
69001576690402,-0.07851613,-0.022842454,9.802078
69001596545635,-0.124593824,-0.05304188,9.778143
69001616400740,-0.045058075,-0.014363514,9.769386
69001636255845,0.05405912,0.022723978,9.763764
69001656111078,0.07014879,0.022367906,9.7747
69001675965969,0.0027285034,-0.030061029,9.741055
69001695821074,-0.049857203,-0.06556707,9.745932
69001715676307,0.007672286,-0.028154213,9.745906
69001735531540,0.056674752,0.023595816,9.744208
69001755389059,0.015531873,0.019271836,9.783096
69001775244270,-0.024573397,0.010038194,9.795408
69001795099503,-0.08374972,-0.0054328907,9.749854
69001814954736,-0.056784842,-0.0038153357,9.743616
69001834809969,0.010503468,0.06367852,9.80554
69001854667916,0.001851556,0.084052466,9.792733
69001874523149,-0.04476967,0.029645827,9.741701
69001894378382,-0.050536443,-0.025065377,9.732013
69001914233743,-0.04408522,-0.043182526,9.740487
69001934088976,-8.999789E-4,0.032708358,9.785919
69001953944209,-0.004536056,0.033065774,9.781327
69001973805014,-0.018840786,0.023851667,9.773196
69001993660375,-0.039517958,-0.030786471,9.779075
69002013515736,-0.04191859,-0.049656663,9.775758
69002033370969,0.008393992,-0.010729256,9.765176
69002053228932,0.046796422,0.026075825,9.747619
69002073084293,0.019428615,1.9839834E-4,9.73479
69002092939654,-0.03046604,-0.045586724,9.727013
69002112795143,-0.023614587,-0.021449724,9.733461
69002132650504,0.00835735,0.0030472619,9.775025
69002152505865,0.011655126,-0.0062271045,9.780439
69002172361854,-0.025133373,-0.037347004,9.769668
69002192217343,-0.066885605,-0.05666403,9.766249
69002212072832,-0.065148786,-0.032071028,9.775534
69002231928193,-0.013545211,0.009187489,9.762862
69002251783660,0.013917178,0.026121138,9.763275
69002271635987,0.008871295,0.0065448866,9.760105
69002291491348,-0.009438468,-0.013948015,9.767426
69002311346709,-0.0444613,-0.015565783,9.742685
69002331202198,-0.048388988,0.005491625,9.693079
69002351063605,0.0051961024,0.03465797,9.655658
69002370919094,0.028098203,0.047782745,9.590615
69002390774705,0.008707308,0.021592798,9.531741
69002410630321,-0.020063082,-0.027536312,9.524873
69002430485938,-0.029060477,-0.027856806,9.66442
69002450341553,0.0058496757,-0.016739953,9.878546
69002470197779,0.0062152715,-0.07993759,9.947886
69002490053524,-0.06204895,-0.10463386,9.979955
69002509909139,-0.09544816,-0.108748905,9.991197
69002529764755,-0.09518409,-0.101938635,9.982893
69002549620500,-0.07432262,-0.1121938,9.928447
69002569473343,-8.161497E-4,-0.07585405,9.880884
69002589328959,0.0640778,-0.0098919505,9.814399
69002609184576,0.045592938,-0.026579704,9.768964
69002629040191,0.0025860702,-0.059452362,9.715112
69002648896767,0.0035386735,-0.02822045,9.656995
69002668752512,0.03767113,-0.011141244,9.598967
69002688608127,0.0024753942,0.024965633,9.608112
69002708463743,-0.041228812,0.046170957,9.603051
69002728319360,-0.026530009,-0.005654934,9.641601
69002748174975,0.008316232,0.028464297,9.672275
69002768036498,0.028395874,0.14470561,9.720834
69002787892243,-0.040990483,0.173158,9.745323
69002807747858,-0.085592225,0.116183266,9.818974
69002827603602,-0.11122036,0.14845194,9.91197
69002847459347,-0.12538213,0.16684541,9.974748
69002867314688,-0.117504224,0.15007009,9.932811
69002887170304,-0.016564433,0.15605558,9.880696
69002907026049,0.03830411,0.09465507,9.829332
69002926881794,0.055702083,-0.02220736,9.751196
69002946737408,0.084349856,-0.15849687,9.659041
69002966593153,0.08756439,-0.26418883,9.63512
69002986442906,0.06658091,-0.26822373,9.731757
69003006298395,0.034510147,-0.2089223,9.778667
69003026154012,0.020485334,-0.12093889,9.890675
69003046009498,0.018229058,-0.10535265,9.898532
69003065850571,-7.5189304E-4,-0.15383855,9.778958
69003085705932,-0.021540506,-0.03945197,9.657246
69003105561163,0.055314917,0.13127932,9.625993
69003125416036,0.11829625,0.0860414,9.67254
69003145271269,0.08508728,-0.03503755,9.78884
69003165125694,-0.0021099003,-0.02197103,9.80122
69003184980927,-0.077587195,0.12355947,9.7762575
69003204836288,-0.068267874,0.18031968,9.795892
69003224691521,-0.02621446,0.0917919,9.7893715
69003244546754,-0.003404637,0.039672468,9.778467
69003264402115,0.001083831,0.03936306,9.756194
69003284249380,-0.012498706,-0.025083302,9.728083
69003304104357,-0.018097661,-0.119976476,9.70123
69003323959462,0.04180013,-0.097957194,9.694452
69003343814567,0.043936428,-0.016906343,9.709209
69003363667648,-0.014464054,0.034072716,9.726865
69003383522625,-0.005507426,-0.012256481,9.793445
69003403377730,0.009602889,-0.06499509,9.807269
69003423232707,0.054948144,0.016248275,9.780507
69003443087684,0.041539937,0.14403826,9.84866
69003462938403,-0.013355597,0.15202068,9.938705
69003482793380,-0.055046815,0.047502838,9.917074
69003502648229,-0.050841913,-0.033257492,9.887366
69003522503078,1.8783976E-4,0.044870622,9.80848
69003542358055,0.016774455,0.07350609,9.707886
69003562212904,0.042793393,-0.012371032,9.639375
69003582066145,0.13815056,-0.053668357,9.589626
69003601921102,0.086599305,-0.058803692,9.559992
69003621775951,-0.012559515,-0.036698837,9.616196
69003641630800,-0.0373638,0.05906918,9.715721
69003661491371,-0.097574644,0.108367085,9.777077
69003681346348,-0.15637065,0.15599506,9.82097
69003701201325,-0.18383679,0.17600532,9.914059
69003721056302,-0.1801551,0.07946626,9.957093
69003740911407,-0.11398968,-0.058853522,9.937582
69003760766384,-0.034898482,-0.13613261,9.909008
69003780627561,0.06425047,-0.08961978,9.794671
69003800482666,0.1335854,-0.04131152,9.721435
69003820337771,0.058422748,-0.11703041,9.697293
69003840192748,-0.042032868,-0.17948537,9.694143
69003860047853,0.023517951,-0.15501644,9.660654
69003879901990,0.04173285,-0.10044215,9.625705
69003899756967,-0.010260583,-0.00827231,9.660305
69003919611944,-0.09252301,0.08806909,9.67793
69003939466921,-0.10196149,0.100195214,9.707539
69003959326572,-0.09416951,0.051106766,9.77856
69003979181677,-0.102028266,0.043624893,9.875209
69003999036782,-0.13326563,0.02153482,9.921762
69004018891887,-0.019303389,0.06463658,9.881544
69004038746992,-0.0091042705,0.026362445,9.861724
69004058602097,-0.118377544,-0.084368624,9.840468
69004078454686,-0.079593085,-0.1334112,9.807242
69004098309791,-0.021533085,-0.039808374,9.752739
69004118164768,-0.12987942,-0.05009497,9.635234
69004138019873,-0.11065464,-0.043441396,9.569476
69004157874850,-0.06444344,-0.056314792,9.56197
69004177734075,-0.04921832,-0.07836445,9.615567
69004197589180,-0.03118381,-0.093706384,9.736089
69004217444285,0.045937747,-0.06801258,9.804589
69004237299390,0.059677582,-0.029716996,9.932771
69004257163055,0.018841246,-0.008128545,10.044004
69004277018416,-0.06302667,-0.037295856,10.026365
69004296873649,-0.18284923,-0.06382835,9.95777
69004316729010,-0.14684938,-0.0044961898,9.8568
69004336584243,-0.0076213363,0.042847387,9.713441
69004356439476,0.08973235,0.10410455,9.611672
69004376301359,0.07110233,0.07189789,9.575141
69004396156976,0.052487344,3.580503E-4,9.516751
69004416012465,0.020834852,-0.05512321,9.501099
69004435867954,-0.040385466,-0.013663193,9.602541
69004455723571,-0.012991805,0.047746804,9.72929
69004475581182,0.012095581,0.016759098,9.836768
69004495436799,0.009591144,-0.02939066,9.921127
69004515292416,-0.0689833,-0.038718898,9.938646
69004535148033,-0.08051075,-0.02368121,9.915251
69004555003754,0.014435852,0.026761428,9.904324
69004574859371,0.031939156,0.041513685,9.8767395
69004594718042,-0.01972692,0.0056897416,9.807329
69004614573787,-0.049641706,-0.07988009,9.759221
69004634429660,-0.0017643581,-0.025751492,9.739528
69004654285405,0.061650876,0.10228505,9.691032
69004674139462,0.06406773,0.100240186,9.649051
69004693995207,0.10707673,4.7716196E-4,9.674559
69004713850824,-0.005917098,-0.07212127,9.660523
69004733706569,-0.0500644,-0.009966653,9.694032
69004753562314,0.023076631,0.07114867,9.733914
69004773417583,0.07003551,0.05038863,9.822479
69004793273328,0.011836858,-0.06012559,9.847058
69004813129073,-0.015973924,-0.07642308,9.811545
69004832984690,-0.013933914,-0.013364412,9.847395
69004852840435,0.00994403,0.030800056,9.834594
69004872696180,0.027373668,-0.003560732,9.79068
69004892553119,0.04666468,-0.011765458,9.766093
69004912408864,0.05582776,0.032730546,9.722506
69004932264481,0.035501134,0.012188196,9.741874
69004952120226,0.011283976,0.018432101,9.763949
69004971967305,0.024121147,0.013934638,9.7696905
69004991822794,0.06887632,0.021155715,9.756203
69005011678411,0.090497516,0.035812754,9.750311
69005031533878,0.0016890485,0.04320731,9.771287
69005051389495,-0.046311047,0.043627694,9.757058
69005071230636,-0.041099407,5.8188586E-4,9.718053
69005091085869,-0.046924844,-0.039057676,9.746608
69005110941102,-0.0664417,-0.046100322,9.862214
69005130796335,-0.01574959,0.07281166,9.872906
69005150651696,-0.013135088,0.059728734,9.8681345
69005170506929,-0.0011976559,-0.045454618,9.774777
69005190358810,0.060870644,-0.018236596,9.708915
69005210213915,0.10514096,-0.004769368,9.767174
69005230069020,0.1381456,-0.030684408,9.80342
69005249924125,0.18682511,0.032014325,9.756759
69005269778414,0.047748037,0.020231085,9.72368
69005289633519,-0.10161421,0.023397598,9.723317
69005309488624,-0.0991617,0.051051613,9.698126
69005329343601,0.010711972,0.10851981,9.646444
69005349198706,0.034406964,0.10449864,9.611548
69005369053811,-0.0098219495,0.04724779,9.770732
69005388914022,-0.023959272,0.009645883,9.934607
69005408769127,-0.002241363,-0.056526657,9.87068
69005428624360,0.022471348,-0.046017155,9.796501
69005448479593,0.037599936,0.0037379256,9.741703
69005468334698,0.05009163,0.09956375,9.735855
69005488190217,-0.014266156,0.009790295,9.755592
69005508045299,0.05084519,-0.024680125,9.722862
69005527900532,0.15656343,0.005595645,9.699792
69005547755637,0.110928245,0.051500205,9.704323
69005567606678,-0.033995118,0.031436946,9.748115
69005587461783,-0.07895852,0.016790148,9.851299
69005607316888,-0.051298168,0.0024982882,9.826524
69005627171993,-0.057943776,-0.018433766,9.783022
69005647027098,-0.06279156,-0.007228948,9.782722
69005666882203,0.015121127,0.05543873,9.755302
69005686739648,0.029491007,-0.02116065,9.740519
69005706594753,-0.0031891412,-0.11220114,9.71719
69005726449858,-0.020205105,-0.06290065,9.691979
69005746304835,-0.0030920452,0.027465072,9.712209
69005766159940,0.038290575,0.02889578,9.785368
69005786023475,0.048695408,-0.012267534,9.819803
69005805878708,-0.016776636,-0.07362717,9.828871
69005825733941,-0.10389505,-0.091409974,9.807619
69005845589174,-0.11709443,-0.072173595,9.821609
69005865446309,-0.10378082,-0.0069039366,9.807157
69005885301670,-0.065782726,0.015034933,9.744778
69005905156903,-0.004592338,0.013393398,9.708
69005925012264,-0.012940052,-0.055985298,9.679895
69005944867625,-0.040661722,-0.0660099,9.676954
69005964722858,-0.043753568,-0.036307335,9.70823
69005984575100,0.01719548,-0.024923297,9.74572
69006004430461,0.09184633,0.0026871236,9.770331
69006024285694,-0.0129555175,-0.0317878,9.82367
69006044140927,-0.13490213,-0.05175173,9.837219
69006063996160,-0.16642556,-0.07706305,9.810435
69006083852249,-0.080864154,-0.04648873,9.753871
69006103707482,0.04922878,0.0041303006,9.73646
69006123562715,0.09097186,0.031739447,9.759967
69006143418076,0.03625711,-0.024889072,9.738673
69006163273309,-0.025921809,-0.074693024,9.721643
69006183128542,-0.043462943,-0.032014344,9.724872
69006202985097,0.011193432,0.01745856,9.742716
69006222840330,0.06303949,0.027726598,9.78207
69006242695691,0.001550243,-0.030453777,9.817331
69006262550924,-0.04827723,-0.09916221,9.801059
69006282411185,-0.040306367,-0.089972824,9.786849
69006302266674,0.00990698,0.0033668585,9.760331
69006322122035,0.047291666,0.100510694,9.757737
69006341977524,0.007206628,0.018999584,9.762871
69006361832885,-0.024459615,-0.04446362,9.740397
69006381688996,-0.016764961,-0.005067297,9.750007
69006401544485,-0.008261458,0.03864888,9.740663
69006421399974,0.014991997,0.05419347,9.764565
69006441255463,0.001809405,0.02733728,9.793896
69006461110930,-0.030910714,-0.053701397,9.7844305
69006480966291,-0.026420271,-0.08360624,9.743045
69006500828078,-3.2945094E-4,-0.031069392,9.740485
69006520683823,0.029174825,0.056517076,9.754827
69006540539440,0.0039441325,0.008058618,9.787106
69006560395185,-0.035379082,-0.0118740145,9.786155
69006580243104,-0.02910432,0.014519101,9.757645
69006600098593,-0.024003468,-0.0067636897,9.751539
69006619954082,-0.010358306,-0.045390245,9.785784
69006639809699,0.014246395,0.002619754,9.782729
69006659665188,-0.019373223,0.04905165,9.783506
69006679519311,-0.016407749,0.03800912,9.75965
69006699374672,0.010726258,-0.053661164,9.77492
69006719230161,0.00983093,-0.073862545,9.776946
69006739085522,-0.017422745,-0.007624083,9.762855
69006758940883,-0.031035293,0.059500046,9.769285
69006778796372,-0.021372167,0.013420587,9.744446
69006798653305,-0.033013564,-0.050955053,9.765585
69006818508794,-0.013240493,0.002098985,9.754064
69006838364283,0.021166798,0.053758215,9.757752
69006858219644,-0.020515699,0.057011254,9.760444
69006878071569,-0.06818443,0.005937941,9.76806
69006897926802,-0.07540007,-0.037363347,9.791776
69006917782163,-0.01846396,-0.025667127,9.791995
69006937637502,0.016724734,0.015447866,9.744479
69006957492863,0.018214729,0.041876927,9.736237
69006977348224,-0.009266349,0.0040452657,9.757503
69006997200041,-0.030414984,-0.032430265,9.766163
69007017055402,-0.04751247,-0.039179035,9.774141
69007036910635,-0.027849557,0.010202783,9.772494
69007056765996,0.020815836,0.050984614,9.761737
69007076621357,0.011449687,0.047058787,9.762071
69007096475036,-0.051081926,0.009035937,9.777081
69007116330269,-0.06368098,-0.01750943,9.7815485
69007136185630,-0.046480123,-0.055008043,9.771592
69007156040863,-0.010581032,-0.03801814,9.741391
69007175887880,0.02968423,0.0068427385,9.749155
69007195742985,0.02162973,0.018757014,9.766416
69007215598090,-0.00431611,-0.025940116,9.749935
69007235453067,-0.030689914,-0.024764502,9.745458
69007255308172,-0.06546387,-0.01951007,9.7595005
69007275163149,-0.0146996705,-0.05702301,9.763222
69007295020156,0.01572369,-0.041583188,9.767425
69007314875133,0.008990554,-0.013598391,9.752944
69007334730238,-0.004165174,0.0011805474,9.763853
69007354585343,-0.058961112,0.005315691,9.76999
69007374440448,-0.06673397,-0.016428683,9.760104
69007394297643,-0.021048693,-0.028504385,9.76583
69007414152854,0.023821333,-0.033300146,9.76736
69007434007959,0.005265737,-0.0039503365,9.756703
69007453863192,-0.015016601,-0.005645533,9.758822
69007473718413,0.001802145,0.026989117,9.7591305
69007493573646,-0.008765554,-0.0018201858,9.775695
69007513428751,-0.020840324,-0.031893097,9.784947
69007533283984,-0.032089513,-0.013486269,9.808398
69007553139089,-0.038404915,-0.019677993,9.859393
69007572994194,-0.031606123,-0.041280705,9.87741
69007592842625,7.0641334E-5,-0.042804334,9.873499
69007612697602,-0.0035003286,-0.007381479,9.835176
69007632552579,-0.024070567,0.01004547,9.801112
69007652407556,-0.01323302,0.044776242,9.775627
69007672262661,-0.008136572,0.030582562,9.753499
69007692120012,-0.024637612,0.03576781,9.751297
69007711975117,-0.009307607,0.042095643,9.789397
69007731830094,-0.010949549,0.037871588,9.786544
69007751685071,-0.01851457,-0.02538715,9.78805
69007771540176,0.00419187,-0.009147802,9.807231
69007791395153,0.025602905,0.072880395,9.780025
69007811259564,-0.042169992,0.049166065,9.79181
69007831114669,-0.03805609,-0.005423744,9.819998
69007850969902,0.035430368,-0.04548572,9.847069
69007870825135,0.052222617,0.004453774,9.896156
69007890684095,0.012118396,0.01065073,9.933014
69007910539328,-0.018450411,0.02319102,9.955439
69007930394561,-0.027084261,-0.025590843,9.963786
69007950249922,-0.027024282,-0.015994778,9.945713
69007970105155,-0.02050516,-0.0018975831,9.95925
69007989965874,0.021726578,-0.018664131,9.986033
69008009821235,0.010868526,-0.045487367,9.985721
69008029676596,-0.015643386,-0.022798711,9.950707
69008049531957,-0.013356674,0.07110724,9.942494
69008069387318,0.0019934871,0.03068276,9.942029
69008089242807,0.0015618117,-0.041099336,9.950887
69008109099108,-0.036895998,-0.029239025,9.957057
69008128954597,-0.05834811,-0.03864479,9.96786
69008148809958,-0.069843225,-0.095624276,9.989937
69008168665447,-0.032756854,-0.1082257,10.039861
69008188524368,0.015056074,-0.02569581,10.068606
69008208379857,0.018614633,0.023935482,10.09021
69008228235346,-0.04328252,-0.017853469,10.100822
69008248090835,-0.05077816,-0.058441106,10.1005125
69008267946324,-0.021362856,-0.019991701,10.146732
69008287805257,0.003765648,0.04407917,10.1802
69008307660874,0.021596218,0.05468794,10.191921
69008327516363,-0.00613372,-0.0033380988,10.225449
69008347371980,-0.05731108,-0.08794337,10.179723
69008367227573,-0.0463029,-0.08246606,10.147526
69008387083190,0.0017547058,0.029305087,10.128299
69008406936679,0.044005,0.053691093,10.170407
69008426792296,0.0036191703,0.008052564,10.203032
69008446647913,-0.035422537,-0.08814933,10.240432
69008466503530,-0.02796821,-0.08530471,10.220407
69008486358631,0.0019111261,-0.025721926,10.242286
69008506214248,-0.004572681,-0.012184054,10.291352
69008526069865,0.005005223,-0.0070644147,10.312833
69008545925482,-0.012026892,-0.01502844,10.311376
69008565781099,-0.057222687,0.0105099445,10.318232
69008585636716,-0.051122535,0.017518578,10.330666
69008605494683,-0.025707413,0.046866804,10.321951
69008625350300,-0.014216365,0.012681281,10.335122
69008645206045,-0.01485922,-0.027903238,10.344014
69008665061662,-0.041020285,0.011362323,10.340713
69008684917407,-0.043589145,0.019032275,10.34457
69008704770306,-0.035844576,-0.0031514189,10.347739
69008724625923,-0.01450962,0.013018405,10.332769
69008744481668,0.0028360137,0.033403926,10.3335285
69008764337285,-0.0147164455,0.033732656,10.347954
69008784194920,-0.04057751,-0.023273844,10.316192
69008804050665,-0.014516901,-0.008689525,10.349163
69008823906282,-0.0037961216,0.01596326,10.348921
69008843761877,0.019223236,0.01711964,10.35655
69008863617494,0.007926864,-0.036163785,10.392218
69008883473239,0.021740776,-0.03650508,10.370835
69008903330636,0.0018308773,0.018337209,10.354147
69008923186381,-0.050304595,0.05613291,10.3711
69008943041998,-0.026088428,0.011229313,10.356879
69008962897743,0.027961267,-0.039768346,10.367127
69008982753488,0.03295429,-0.047383532,10.360549
69009002601595,0.017787745,0.027845982,10.350892
69009022457212,0.004743478,0.029377822,10.360146
69009042312701,-0.0091328425,0.0020380933,10.365565
69009062168318,-0.023903783,0.009805271,10.388089
69009082015519,-0.04096329,0.0050644595,10.394581
69009101870880,-0.028751183,-0.025338951,10.381495
69009121726369,-0.031226771,-0.028405914,10.369216
69009141581730,-0.004056645,0.014817133,10.35201
69009161437091,-0.0013313844,0.036123853,10.376499
69009181292452,-0.039028607,0.02916807,10.395179
69009201137097,-0.07021371,-0.066569924,10.383803
69009220992202,-0.06280738,-0.09879918,10.373544
69009240847307,-0.043418083,-0.049881794,10.363024
69009260702412,-0.009465547,-0.036596015,10.360334
69009280557517,0.034847442,-0.01035601,10.377544
69009300409632,0.01968126,-0.022661552,10.404694
69009320264587,-0.040127102,-0.04297439,10.379902
69009340119692,-0.07975644,-0.011285466,10.35511
69009359974669,-0.08571878,0.030943375,10.359851
69009379832542,-0.024278278,0.038344834,10.378458
69009399687647,-0.01570753,0.013338542,10.371201
69009419542624,-0.061401892,0.0089366315,10.412239
69009439397729,-0.06377895,0.021658836,10.419344
69009459252834,-0.052764323,0.0055829976,10.3936825
69009479107939,-0.044823162,-0.010044106,10.395258
69009498966098,-0.049045138,-0.021751408,10.376863
69009518821203,-0.012569458,-0.011297359,10.376804
69009538676308,-3.3966542E-4,0.0064354897,10.385474
69009558531413,0.034282155,0.019426797,10.368951
69009578386646,0.011022177,0.035276737,10.366694
69009598236997,-0.012998877,-0.019226598,10.358563
69009618092102,-0.01130967,-0.030055609,10.359142
69009637947079,-0.006914131,0.0041101174,10.3809805
69009657802184,-0.0046463935,-0.01412472,10.399858
69009677657161,-7.715878E-4,-0.006200727,10.407958
69009697512266,-0.010584385,-0.016369356,10.41481
69009717363823,-0.0024698202,-0.009538387,10.419827
69009737218800,0.02364798,0.008978897,10.402672
69009757073777,0.026158685,0.039562464,10.372967
69009776928626,0.005656312,0.016166463,10.37167
69009796794381,0.046461213,0.018219432,10.371092
69009816649486,0.05757973,0.017908534,10.377622
69009836504719,0.020018164,-0.04661765,10.353293
69009856359824,0.00446823,-0.030856913,10.351532
69009876214929,-0.0022796325,0.005185675,10.365618
69009896071540,0.016535155,0.038519643,10.354494
69009915926773,0.037103713,0.0016983784,10.344949
69009935782006,0.025022926,-0.03772174,10.372429
69009955637111,0.022909822,0.0046168603,10.359595
69009975492344,0.0021957192,0.010150608,10.370533
69009995347577,0.052480463,0.0145625295,10.408988
69010015201384,0.07670278,0.005321201,10.389263
69010035056489,0.0508645,-0.03702014,10.378533
69010054911594,0.0085914815,-0.037285723,10.384618
69010074766699,0.029591653,0.013913912,10.3838005
69010094617086,0.030827317,0.051213376,10.394015
69010114472191,0.012306946,0.03881494,10.397729
69010134327168,-0.004233454,0.011955317,10.381568
69010154182145,0.011300897,0.015569543,10.361437
69010174037250,0.016305652,0.024465455,10.380571
69010193894261,0.0036818588,0.04797107,10.363655
69010213749366,0.013133987,0.058942094,10.339295
69010233604471,0.019300282,0.034351967,10.318838
69010253459576,-0.010116372,-0.017004548,10.311138
69010273314659,-0.015772328,0.020696858,10.283829
69010293169636,0.011449802,0.053985562,10.253475
69010313033305,0.0014024843,-0.026782827,10.254342
69010332888538,0.027014539,-0.02185638,10.236037
69010352743771,0.052842043,0.034098767,10.223623
69010372599004,0.015469354,0.025667302,10.202592
69010392463057,-0.0014541082,0.004282467,10.197599
69010412318546,0.004492324,-0.05634827,10.188973
69010432174035,1.00988385E-4,-0.042643573,10.210647
69010452029524,0.012369206,0.0033464795,10.211047
69010471885013,0.010403096,0.002913898,10.2207155
69010491740374,0.035031587,-0.04111897,10.254606
69010511602433,0.065255105,0.013286351,10.228182
69010531458178,0.001551721,0.037554212,10.209192
69010551313795,-0.009380269,0.02801518,10.192896
69010571169540,-0.038929176,-0.03900661,10.143538
69010591025157,-0.019219013,-0.06903182,10.108824
69010610882476,0.01621467,-0.037177082,10.106182
69010630738221,0.04754855,-1.6066161E-4,10.080392
69010650593966,0.04737465,0.036708266,10.10574
69010670449583,0.0026911253,0.0010243088,10.100987
69010690300824,-0.0155462,-0.045110464,10.070887
69010710156441,0.012706709,-0.0032930546,10.046464
69010730012058,0.051598586,0.029030781,10.041581
69010749867652,-0.0542622,-0.032435913,10.026514
69010769723397,-0.013708247,-3.7961043E-4,9.976956
69010789579014,0.03319946,0.028021099,9.958132
69010809440117,0.037298262,0.009135462,9.995916
69010829295734,0.011460189,-0.002570384,10.014425
69010849151479,-0.029807344,0.02975005,10.005149
69010869007224,-0.08274303,0.06463091,10.006616
69010888862969,-0.07151937,0.03210675,9.980641
69010908720164,-0.049286637,-0.06173693,9.972162
69010928575909,0.047330935,0.024194766,9.917796
69010948431654,-6.802455E-4,0.03470059,9.921879
69010968287399,-0.07104612,0.025452476,9.933086
69010988137158,-0.078643106,0.07380128,9.893557
69011007992775,-0.10679065,0.04237154,9.859799
69011027848392,-0.06711295,-0.028757859,9.854709
69011047704137,-0.0051269615,-0.03773201,9.8649025
69011067559754,-0.023781,-0.021107486,9.844419
69011087415371,0.007096582,0.040741917,9.761768
69011107266612,0.0224609,0.03708454,9.757971
69011127122229,-0.056363534,-0.04841555,9.787244
69011146977846,-0.12168307,-0.09607004,9.830172
69011166833463,-0.06835318,-0.08203378,9.82548
69011186689080,0.046163026,0.0038973757,9.748375
69011206533549,0.13264234,0.07520194,9.769776
69011226388890,0.045529447,-0.024456,9.820611
69011246244251,-0.061875187,-0.104194954,9.809517
69011266099612,-0.08800299,-0.030319575,9.818963
69011285954973,-0.044543304,0.05557763,9.834564
69011305810334,0.009858497,-7.7351055E-5,9.850096
69011325660155,-0.008394068,-0.092013255,9.842747
69011345515388,1.8107066E-4,-0.0684043,9.822707
69011365370621,0.009514005,0.02076128,9.776033
69011385225726,0.0041768015,0.049765695,9.781586
69011405081501,-0.024134712,0.0014138977,9.797234
69011424936734,-0.020452565,-0.009359639,9.787835
69011444791967,-0.03437011,0.0042336714,9.788161
69011464647328,-0.027197111,0.028338239,9.775548
69011484502561,-0.010575481,0.0150863435,9.753308
69011504359946,-0.0053720633,-0.012140854,9.738343
69011524215307,0.03392417,0.017189013,9.753074
69011544070540,0.044021316,0.044951655,9.765486
69011563925901,0.0058793924,0.02466347,9.757321
69011583781134,-0.059033405,0.025541129,9.799849
69011603636367,-0.059471875,7.4160565E-4,9.812233
69011623483902,-0.012515988,0.012722965,9.804079
69011643339007,0.02302164,0.010729343,9.803198
69011663194112,0.009657987,0.0025886456,9.835978
69011683049217,-0.018716222,-0.014298838,9.803941
69011702898441,-0.03622473,0.006556531,9.764511
69011722753290,0.028572889,0.023814809,9.726483
69011742608267,0.09732384,-0.013996966,9.729633
69011762463116,0.04952339,-0.0348481,9.721381
69011782318093,0.025046704,-0.015522149,9.733697
69011802176580,-0.017395984,0.0020925547,9.727897
69011822031429,-0.024664124,-0.0066279536,9.730862
69011841886406,0.005324943,7.416638E-4,9.760268
69011861741255,0.039897744,-0.0120114805,9.795894
69011881596104,0.04929841,-0.038269173,9.803616
69011901451081,-0.037184045,0.012297013,9.821595
69011921311726,-0.07268295,0.03382016,9.809489
69011941166703,-0.026192093,0.015724229,9.781242
69011961021808,0.035864644,0.016822537,9.754742
69011980876785,0.06636436,0.019785391,9.7492285
69012000731866,0.03728613,0.029925046,9.742597
69012020586843,-0.044995967,0.01265141,9.706776
69012040441948,-0.048544362,-0.010494615,9.72673
69012060296925,0.019963255,0.028227795,9.741571
69012080152030,0.022636551,0.037850246,9.753209
69012100007007,-0.031107051,0.02094648,9.73813
69012119864396,-0.05682428,0.008340781,9.734745
69012139719501,-0.076381885,0.031576708,9.735797
69012159574606,-0.05870569,0.03198349,9.760974
69012179429561,0.022261398,6.9977064E-4,9.770705
69012199284666,-0.021055944,-0.049840968,9.825402
69012219146397,-0.08153099,-0.03999677,9.868614
69012239001630,-0.03349733,-0.0051580854,9.8721485
69012258856735,-0.05402388,0.012773811,9.8088045
69012278711968,-0.04460235,-0.030153,9.759823
69012298567243,-0.008939181,-0.044703994,9.74641
69012318422476,-0.017748984,-0.051248994,9.732651
69012338277709,-0.009172656,-0.004059443,9.722222
69012358132942,0.017932646,0.073251,9.718119
69012377988047,0.028909206,0.102957524,9.724058
69012397843280,-0.09218557,0.09852687,9.735331
69012417707443,-0.14523487,0.05934336,9.745414
69012437562804,-0.09846511,0.023331271,9.730929
69012457418293,0.003886392,0.068072364,9.745835
69012477273782,0.014715484,0.06500556,9.774964
69012497129271,-0.050541673,0.029860403,9.855981
69012516991970,-0.097058244,-0.04655097,9.822891
69012536847715,-0.089767955,-0.054021426,9.807183
69012556703332,-0.0125087,0.0034510365,9.794162
69012576559077,0.032509543,-0.0054539223,9.769989
69012596409806,0.016966896,0.014271093,9.770558
69012616265423,-0.042145733,-0.0056871814,9.744944
69012636120912,-0.04250453,-0.014006872,9.731204
69012655976508,-0.020995554,0.0012399667,9.7397785
69012675832125,-0.0036671523,0.012547576,9.7303915
69012695687742,0.03821776,0.0307652,9.708664
69012715545571,0.024034921,0.012033746,9.738747
69012735401316,-0.025231432,0.010461882,9.768122
69012755256933,-0.041952495,-0.0048175496,9.740236
69012775112550,-0.025378903,-0.022311335,9.79131
69012794968295,0.012742173,-0.011918486,9.806983
69012814826548,0.02156303,0.013847194,9.799918
69012834682293,0.021597357,0.017354798,9.810318
69012854537910,-0.024156068,-0.01968873,9.794284
69012874393655,-0.047905188,-0.019612748,9.798197
69012894249272,-0.013390446,-0.020160688,9.792199
69012914105017,0.0612397,-0.004692885,9.742059
69012933956738,0.07188514,0.010113193,9.711105
69012953812355,0.03876292,0.02986606,9.684145
69012973667972,-0.016936446,0.019979434,9.684906
69012993523589,0.002888809,0.014238712,9.689535
69013013375848,0.0065573747,0.022106742,9.698452
69013033231465,0.027377669,0.014611438,9.70036
69013053086954,-0.004607013,0.0011409464,9.686808
69013072942571,0.019694148,0.010254386,9.691926
69013092798060,-0.00728042,-0.008481875,9.67517
69013112641749,-0.0011717039,-0.004978732,9.700442
69013132497090,-0.009713806,0.0059716315,9.692366
69013152352451,0.034957875,0.00844552,9.677593
69013172207812,0.04075318,0.026356926,9.678703
69013192063173,-3.4487522E-5,0.016429776,9.684944
69013211918534,-0.032986823,-0.0018668215,9.650961
69013231764405,-0.024297139,0.019956166,9.63585
69013251619510,0.043009736,0.039864805,9.634978
69013271474615,0.04698885,0.03236823,9.580132
69013291329720,0.029341623,0.025858706,9.575767
69013311176749,-0.008841691,0.018538695,9.572846
69013331031598,-0.005930683,-0.00335092,9.554296
69013350886575,0.0036755695,-0.0090404,9.580453
69013370741424,0.011882044,0.010608634,9.577107
69013390596401,-0.012891148,0.018541928,9.56293
69013410451670,-0.053173684,-0.005402367,9.544665
69013430306647,-0.050495826,-0.04127942,9.530832
69013450161496,0.0021215603,-0.026563475,9.540587
69013470016473,-0.025199512,-0.033920657,9.533231
69013489871322,-0.044046406,-0.0041335532,9.528212
69013509726299,-0.024950009,0.008897673,9.497277
69013529584574,-0.0605855,0.01686803,9.487536
69013549439423,-0.06258804,6.7870185E-4,9.469838
69013569294400,-0.0161539,-0.004733972,9.443931
69013589149377,0.019509213,-0.019285224,9.430519
69013609002970,0.020287577,-0.006196428,9.401281
69013628857819,3.7117314E-4,0.008719569,9.388595
69013648712796,-0.033210527,0.010585914,9.404623
69013668567645,-0.07673519,-0.0063692112,9.368016
69013688422494,-0.057859655,0.01237304,9.364941
69013708277343,-0.014888434,0.01966057,9.348552
69013728134516,-0.0014838426,0.025303578,9.347707
69013747989365,-0.020478263,0.022317475,9.365875
69013767844214,-0.022032332,0.004794161,9.326011
69013787699063,0.017993439,0.03046368,9.317772
69013807554040,-8.6562324E-4,0.040552203,9.289611
69013827410217,-0.008906658,0.028353319,9.311403
69013847265194,-0.056250285,0.01673515,9.3585005
69013867120043,-0.045364544,9.848491E-4,9.385288
69013886975020,0.0045036124,-0.011025415,9.329053
69013906825755,0.058301054,-0.007761038,9.253863
69013926680604,0.0415854,-0.013430289,9.215567
69013946535453,-0.02854944,-0.031191181,9.165529
69013966390174,-0.08191242,-0.0013340826,9.122542
69013986245023,0.0082836,0.033327762,9.074149
69014006099872,0.047661044,-0.0052587753,9.088136
69014025956939,0.014768555,-0.08991465,9.168646
69014045811788,-0.041798975,-0.10323636,9.23455
69014065666637,-0.10455993,-0.04616561,9.27177
69014085521464,-0.06333341,-0.0016824323,9.2792425
69014105376313,-0.029488122,0.0048145577,9.32327
69014125234276,-0.009816138,0.011322358,9.332593
69014145089253,-0.036870908,0.020982094,9.286955
69014164944102,-0.069294706,0.027587948,9.230781
69014184799079,-0.0097803855,0.02300598,9.200689
69014204654428,0.064259335,0.016644482,9.185491
69014224509405,0.07276699,0.0021864835,9.183168
69014244364254,-0.014326691,6.583082E-4,9.135434
69014264219231,-0.07544079,0.019620879,9.107179
69014284074080,-0.073057234,0.02793917,9.125876
69014303929057,-0.0077348244,0.0063354927,9.148941
69014323785090,0.045507923,-0.008243701,9.16306
69014343640067,0.028441755,-0.011666295,9.1885395
69014363495044,-0.045364697,0.008682899,9.1990185
69014383350021,-0.064000204,0.014016477,9.230928
69014403204998,-0.017422596,0.03224491,9.236209
69014423063903,0.0140101705,0.036526106,9.240726
69014442919136,0.018304043,0.01509895,9.254006
69014462774241,-0.014267287,-0.011068772,9.221023
69014482629346,-0.020955654,-0.017180474,9.209868
69014502484451,0.002099164,0.0050231717,9.180791
69014522339556,0.03961021,0.018431824,9.145808
69014542200957,0.026557652,0.011020335,9.12684
69014562056167,0.015205502,-0.0012048467,9.10949
69014581911528,-0.0069728713,-0.009406875,9.15094
69014601766761,-0.021582425,0.01163653,9.16154
69014621624720,-0.014996087,0.007703088,9.185459
69014641480081,0.0024634318,0.02295325,9.184119
69014661335442,-0.0076313866,0.016858442,9.180141
69014681190803,-0.03225008,0.013021378,9.205235
69014701046164,-0.0065781726,0.0028986472,9.219044
69014720898117,0.02828849,5.822351E-4,9.193234
69014740753350,0.010562462,0.022947043,9.203951
69014760608583,0.019627623,0.027288755,9.20025
69014780463944,-0.005891017,0.025162837,9.181747
69014800319177,-0.025943888,0.02652616,9.171425
69014820174410,-0.003321044,0.02426236,9.162186
69014840025151,0.021519914,0.022866582,9.153196
69014859880256,0.014331654,0.04038215,9.156137
69014879735489,-0.017237639,0.022547923,9.153985
69014899590594,-0.039997075,0.011259074,9.16559
69014919444657,-0.060868397,-0.013584431,9.18452
69014939299762,-0.010787774,0.0050618607,9.180269
69014959154867,0.030005362,0.0245994,9.163616
69014979009844,-0.026142657,0.016046261,9.186543
69014998864949,-0.04618297,-0.017523812,9.228269
69015018718628,-0.04330652,-0.042921133,9.199319
69015038573582,-0.0040314924,-0.036921047,9.1971655
69015058428687,0.033458807,-0.006843305,9.218887
69015078283664,0.011215447,-0.012928544,9.185161
69015098138769,0.01488255,-0.0055388166,9.150115
69015117993746,-0.02834532,-0.0111011015,9.139999
69015137851319,0.013921948,-2.7646814E-4,9.163236
69015157706424,0.050445035,-0.02965679,9.193431
69015177561529,0.01624236,-0.043995306,9.179627
69015197416634,-0.0107488865,-0.036930278,9.165199
69015217269003,-0.010794653,-0.0050263326,9.146716
69015237124108,8.294825E-4,-0.020805784,9.144278
69015256979085,0.04451862,-0.051510748,9.184275
69015276834190,0.047583915,-0.030538743,9.176088
69015296689295,0.0063019474,-0.0072283247,9.186012
69015316544400,-0.049704067,0.007381604,9.196163
69015336399429,-0.0015694018,-0.0028448596,9.171874
69015356254534,0.053089477,-0.013931704,9.1842575
69015376109639,0.047590796,-0.020450432,9.2096405
69015395964744,0.013683327,-0.023874382,9.178366
69015415819849,-0.020405026,-0.008469196,9.174937
69015435679788,-0.012653849,0.0024254217,9.160205
69015455535021,0.02918021,-0.011695535,9.159313
69015475390254,0.045081533,-0.02310077,9.172483
69015495245487,0.011038948,-0.039599378,9.187538
69015515106057,-0.002068853,-0.033849545,9.214875
69015534961290,0.0075552184,-0.010230056,9.25376
69015554816651,-0.0027949598,-0.014121486,9.267242
69015574671884,0.011962448,-0.05702363,9.262359
69015594527117,-0.005070686,-0.057416495,9.254274
69015614382478,-0.03310692,-0.025825191,9.2784605
69015634238455,0.0033469053,-0.007588829,9.258951
69015654093688,0.032789353,2.0159422E-4,9.268912
69015673949049,0.024236314,-0.00806869,9.281657
69015693804282,-0.012029743,-0.03504569,9.306872
69015713659643,-0.027902098,-0.029742958,9.314513
69015733516120,-0.014116621,-0.031971194,9.314668
69015753371481,0.045546584,-0.003301663,9.305352
69015773226842,0.013836423,0.01081162,9.331033
69015793082075,-0.050314005,0.0026994452,9.331776
69015812936846,-0.03376944,-0.008692078,9.362038
69015832792207,0.013923505,-0.0074962145,9.393468
69015852647568,0.036006667,7.4934005E-4,9.398335
69015872502801,0.055241052,0.027811423,9.408999
69015892358162,0.015920643,-9.171552E-4,9.421578
69015912213523,-0.02669319,-3.6282963E-4,9.407743
69015932067952,-0.017024817,-0.00912532,9.421146
69015951923185,0.01744015,0.013098383,9.451043
69015971778546,0.008687058,-0.0061298674,9.434943
69015991633755,0.019412654,-0.019719861,9.432872
69016011489116,0.018520987,-0.0074421884,9.466793
69016031348587,0.021746434,0.011369934,9.487464
69016051203948,-0.030557597,-0.017754393,9.501873
69016071059309,-0.02388699,-0.04095163,9.5002985
69016090914670,0.044245094,0.015252152,9.503729
69016110770031,0.042841304,0.031458396,9.5286045
69016130625392,-0.06444444,0.009086736,9.571255
69016150486993,-0.052575827,-0.028116608,9.57218
69016170342610,-0.004196864,-0.059766967,9.551256
69016190198099,0.042466484,-0.06032432,9.5750065
69016210053588,0.069714166,-0.014482563,9.587032
69016229911229,0.012075283,0.011478266,9.572401
69016249766846,-0.077081546,-0.0026880133,9.563684
69016269622335,-0.07395927,-0.049031306,9.582064
69016289477952,0.0029084743,-0.057540428,9.617772
69016309333569,0.056971017,-0.04543473,9.646604
69016329181426,0.047878176,-0.043195687,9.673457
69016349036915,-0.030666472,-0.0455859,9.667355
69016368892404,-0.06402179,-0.03982027,9.645111
69016388747893,-0.010436867,-0.020278249,9.675298
69016408603382,0.065503255,-0.020495445,9.690563
69016428458871,0.03437269,-0.003773525,9.702125
69016448312806,0.007286174,0.003334913,9.734014
69016468168147,-0.007893169,-0.014120114,9.722854
69016488023636,0.01863719,-0.0395501,9.736306
69016507879125,0.02552433,-0.022958517,9.732343
69016527737466,0.034731545,0.0045463066,9.715865
69016547592955,-0.014547152,-0.016724192,9.722099
69016567448444,-0.017453656,-0.04033431,9.715179
69016587303933,0.034811754,-0.023849862,9.744747
69016607159422,0.051525943,-0.018658796,9.739079
69016627013803,0.011755471,-0.046531573,9.729859
69016646869292,-0.033468127,-0.058194786,9.735599
69016666724781,0.013364783,-0.04216973,9.723419
69016686580270,0.05824205,-0.01912752,9.727081
69016706435759,0.04388227,-0.009897903,9.730635
69016726291248,0.029056309,-0.028643398,9.743626
69016746149395,0.022355475,-0.054453712,9.709331
69016766004884,0.029238658,-0.046994258,9.759742
69016785860501,0.041450348,0.0050336695,9.791795
69016805715990,0.0048074094,-0.004940003,9.761635
69016825562611,-0.03656679,-0.027564362,9.748443
69016845417972,-0.0045598983,-0.030284686,9.749253
69016865273205,0.006694175,-0.018972466,9.724994
69016885128566,0.050951757,-0.011657184,9.742786
69016904983927,0.063936725,-0.010782924,9.784919
69016924839160,0.0011347767,-0.021940237,9.807093
69016944694295,-0.053246595,-0.029247804,9.764511
69016964549528,0.0015997258,0.005556822,9.753693
69016984404889,0.047597628,0.021176454,9.773091
69017004260122,0.008589218,-0.02243844,9.765868
69017024115355,-0.039922,-0.049840868,9.76369
69017043966218,-0.03441232,-0.02410148,9.7174835
69017063821323,0.041488912,0.01767352,9.747818
69017083676556,0.022102717,0.0033380245,9.78581
69017103531789,0.027493898,-0.009798631,9.783605
69017123378044,-0.018605122,0.019646691,9.792028
69017143233149,-0.04554519,0.0044181966,9.785671
69017163088126,-0.073498294,-0.03836438,9.769307
69017182943231,-0.008637035,-0.023701025,9.76249
69017202798208,0.055820953,0.015024457,9.767417
69017222653313,0.032376964,-0.00987454,9.7179785
69017242503774,-0.0233679,-0.042489827,9.729165
69017262358751,-0.038550228,-0.013966885,9.7874365
69017282213728,-0.0040177274,0.014794054,9.794168
69017302068577,0.011497243,0.0016497729,9.8167515
69017321923554,0.01766673,0.0016019732,9.785308
69017341775241,-0.0050029666,-0.01934076,9.761009
69017361630090,-0.058307946,-0.0016888066,9.759644
69017381484939,-0.004940845,-0.02241368,9.748256
69017401339788,0.06044325,0.007541567,9.729662
69017421195808,0.05700789,0.013661114,9.716026
69017441050657,0.014054924,-0.018949414,9.774051
69017460905506,-0.050316423,-0.021350406,9.802651
69017480760227,-0.05122725,-0.038859557,9.77988
69017500615076,-0.008664659,-0.017120248,9.785644
69017520469925,-0.018333029,-0.008357987,9.772241
69017540323208,-0.015661025,7.865606E-4,9.739914
69017560177929,1.8371166E-4,0.0020645824,9.755425
69017580032650,0.017802175,-0.039955497,9.767886
69017599887499,0.039145652,-0.032158747,9.758015
69017619742220,9.801027E-4,-0.0101699,9.767822
69017639600289,-0.0060370136,0.02440605,9.778799
69017659455010,-0.019578077,0.005210361,9.782008
69017679309859,-0.03431982,-0.03279895,9.7695055
69017699164708,-0.037237708,-0.020997647,9.754504
69017719021051,-0.025704548,-0.027601535,9.744006
69017738875900,8.5337606E-4,-0.059612416,9.734307
69017758730877,0.037853763,-0.041797005,9.734242
69017778585726,0.04570399,0.025120582,9.776179
69017798440575,0.0034148928,-0.024145221,9.794592
69017818295424,-0.04618811,-0.050227623,9.797485
69017838154857,-0.03170994,-0.020581422,9.749931
69017858009834,0.03879882,0.03385201,9.738509
69017877864811,0.018855067,7.168144E-4,9.777881
69017897719765,-0.024850102,-0.05204123,9.798026
69017917574742,-0.028110042,-0.07436105,9.766956
69017937428939,0.008736959,-0.04429723,9.771586
69017957283916,0.040136684,-0.04304562,9.8096695
69017977138765,0.021744248,-0.059614003,9.800979
69017996993614,0.0043977587,-0.045598365,9.76873
69018016848591,-0.027734894,-0.037210315,9.749461
69018036703440,0.009635499,-0.046486687,9.771219
69018056564591,-0.008824535,-0.069592394,9.785692
69018076419568,0.03603497,-0.07585912,9.776626
69018096274673,0.06340543,-0.036641363,9.719182
69018116129650,0.0034728542,-0.028652295,9.649946
69018135983513,-0.013674659,-0.058789093,9.631487
69018155838490,0.0066641225,-0.06798011,9.689124
69018175693467,0.02750917,-0.036077995,9.737311
69018195548572,0.058779072,-0.038290918,9.811314
69018215403549,0.026120814,-0.053848825,9.902162
69018235259788,-0.008813496,-0.05806981,9.951137
69018255114893,0.0021108624,-0.061179735,9.933948
69018274969998,-0.0061773434,-0.05291093,9.864448
69018294824975,0.006952342,-0.020219713,9.795464
69018314680080,0.028691772,0.008058652,9.7113905
69018334535185,-0.022261174,-0.015456793,9.64889
69018354345544,-0.0021928488,-0.043099355,9.612919
69018374199859,0.08262478,-0.03023418,9.618777
69018394054068,0.11057803,-0.042083636,9.664049
69018413908405,0.08643831,-0.05287903,9.731752
69018433767680,0.026413273,-0.043890327,9.796762
69018453621889,-0.035049997,-0.022203093,9.876247
69018473476226,-0.05032488,0.0150172645,9.882498
69018493330563,-0.052970666,-0.0011859842,9.847708
69018513184900,-0.015050939,-0.0022292195,9.790571
69018533062323,0.031423446,-0.049155857,9.793558
69018552917172,0.04506005,-0.084635615,9.772938
69018572772021,0.03833031,-0.1043434,9.717832
69018592626742,0.07033547,-0.052909806,9.645772
69018612481591,0.059823915,-0.0551193,9.586431
69018632336312,0.019897569,-0.07939769,9.680245
69018652200291,0.007939543,-0.08717278,9.744132
69018672055268,0.024686592,-0.032017935,9.862262
69018691910245,-0.03136053,-0.038701992,10.014728
69018711765094,-0.028625755,-0.14189444,10.027462
69018731629847,-0.00942841,-0.17392834,9.968706
69018751484952,0.009068899,-0.13866071,9.866291
69018771339929,0.05969593,-0.11273756,9.69522
69018791195034,0.05730409,-0.13162225,9.599006
69018811050139,0.13844177,-0.09121357,9.587865
69018830906756,0.19578609,-0.018346924,9.606119
69018850761841,0.169325,-0.04053372,9.642372
69018870616946,0.048095297,-0.11267102,9.728882
69018890472051,0.02292738,-0.12474142,9.83287
69018910327156,0.059183575,-0.06187493,9.843536
69018930182261,0.078298055,-0.074166596,9.854238
69018950040152,0.029872514,-0.12035469,9.870528
69018969895257,-0.012104897,-0.12987496,9.840233
69018989750490,0.007637665,-0.16280797,9.756958
69019009605595,0.038778145,-0.21541943,9.709516
69019029467276,0.17257215,-0.20228668,9.693058
69019049322637,0.17628036,-0.12666859,9.673056
69019069177998,0.08573199,-0.10493012,9.712357
69019089033231,0.039645635,-0.11041827,9.772826
69019108888592,0.047204982,-0.099915,9.806766
69019128742331,0.04605108,-0.095522374,9.824593
69019148597692,0.025258677,-0.14923982,9.828439
69019168452925,0.09460565,-0.15561198,9.786233
69019188308286,0.15044707,-0.1225619,9.772694
69019208163519,0.12074791,-0.1286271,9.736228
69019228018880,0.02872291,-0.1537641,9.676618
69019247879015,0.12121725,-0.14662996,9.657357
69019267734504,0.19376338,-0.12713143,9.702939
69019287589865,0.14211488,-0.13654335,9.757581
69019307445354,0.056265052,-0.15981573,9.842383
69019327294659,-0.027144901,-0.1328211,9.914636
69019347150020,-0.07561372,-0.09151718,9.971465
69019367005381,0.045608338,-0.13921034,9.865253
69019386860742,0.20570807,-0.20186304,9.787124
69019406716103,0.18134312,-0.15374954,9.721887
69019426571464,0.04420317,-0.11578409,9.659895
69019446427185,0.01656863,-0.10873279,9.628375
69019466282546,0.094930924,-0.08799193,9.618361
69019486138035,0.17141761,-0.088629775,9.653071
69019505993396,0.2012305,-0.16256307,9.713762
69019525848885,0.2089957,-0.18612388,9.795042
69019545714220,0.1904992,-0.11164914,9.883606
69019565569837,0.112764105,0.0031669005,9.899191
69019585425454,0.05007525,0.021275418,9.887775
69019605281199,0.08936008,-0.008613942,9.84974
69019625139132,0.18295556,0.015942773,9.760618
69019644995005,0.21159469,0.025879245,9.724629
69019664850878,0.22345208,0.024087394,9.717473
69019684706623,0.18325083,0.026857309,9.743147
69019704562496,0.15053356,-0.031605512,9.777315
69019724418369,0.08727652,-0.10614949,9.817009
69019744275338,0.08816991,-0.17258121,9.855959
69019764131211,0.18882968,-0.21402624,9.81831
69019783987212,0.17027156,-0.23804481,9.791172
69019803843063,0.06229991,-0.27450463,9.728814
69019823698936,0.069681294,-0.2911506,9.721168
69019843552449,0.14536585,-0.2345322,9.724984
69019863408450,0.1803425,-0.16160525,9.73502
69019883264323,0.14218241,-0.13000603,9.734416
69019903120324,0.05130292,-0.12316796,9.736824
69019922950175,0.034998704,-0.14233254,9.764301
69019942805152,0.0685484,-0.09211834,9.796894
69019962660129,0.063276045,-0.09473793,9.784007
69019982515106,0.03064271,-0.11783261,9.763773
69020002370083,-0.0032469942,-0.091947645,9.745227
69020022225060,0.04568266,-0.114886746,9.689372
69020042086143,0.12685966,-0.17110214,9.692069
69020061941120,0.13564077,-0.21308663,9.713923
69020081796097,0.10247451,-0.21558377,9.74135
69020101651202,0.008746182,-0.18992884,9.749554
69020121506179,-0.057401385,-0.20462008,9.722186
69020141367818,0.03071388,-0.26653743,9.728989
69020161223051,0.14862458,-0.26732245,9.740996
69020181078284,0.20078228,-0.21586128,9.764834
69020200933517,0.14830239,-0.16191454,9.767773
69020220788750,0.11812682,-0.105433084,9.747719
69020240643983,0.16068935,-0.08369391,9.753483
69020260499856,0.18640219,-0.025588432,9.782337
69020280355065,0.16428556,0.017768607,9.782127
69020300210298,0.23615164,-0.021842638,9.741196
69020320065531,0.22516955,-0.061159458,9.745668
69020339922148,0.20092194,-0.036978163,9.807642
69020359777509,0.2418695,0.025421027,9.801352
69020379632870,0.23257639,0.07133401,9.7704525
69020399488231,0.18864417,0.12394094,9.771056
69020419343592,0.23275499,0.20822527,9.798189
69020439202069,0.29430202,0.2688402,9.821667
69020459057558,0.25332552,0.21254352,9.807145
69020478912919,0.21086533,0.14621724,9.817522
69020498768408,0.17310739,0.098644264,9.79012
69020518623769,0.22376111,0.055178795,9.767106
69020538479258,0.2824753,-9.327849E-4,9.8078985
69020558341317,0.28535748,-0.07135191,9.797444
69020578196934,0.17701599,-0.13535213,9.742171
69020598052423,0.13723983,-0.11820317,9.714456
69020617908040,0.14835851,-0.06533347,9.707618
69020637760567,0.19609684,-0.041409533,9.728623
69020657616184,0.1666148,-0.11694999,9.7475815
69020677471673,0.1670197,-0.19516599,9.808711
69020697327290,0.13318111,-0.19157457,9.798235
69020717182779,0.109350376,-0.16358058,9.729301
69020737036012,0.1368967,-0.2074342,9.683331
69020756891479,0.23643273,-0.19547904,9.699376
69020776746968,0.24117877,-0.10754141,9.764569
69020796602457,0.06948766,0.028552279,9.782666
69020816457946,-0.04385638,0.0896482,9.750299
69020836313435,0.08828873,0.030668968,9.769203
69020856171076,0.22378245,-0.07075432,9.768214
69020876026565,0.22233225,-0.13238628,9.788454
69020895882182,0.19317527,-0.09337251,9.796904
69020915737799,0.09421017,-0.011719404,9.8176775
69020935582562,0.014016036,0.023042843,9.789119
69020955437923,0.114776365,-0.008835258,9.69474
69020975293284,0.24282485,-0.036385767,9.641281
69020995148517,0.28377825,-0.019008296,9.653486
69021015003878,0.24560425,0.039348252,9.74314
69021034859111,0.119216256,0.04896717,9.798228
69021054710646,0.112808146,0.025417257,9.844804
69021074565879,0.1698509,-0.03198327,9.90479
69021094420984,0.15462199,-0.0812986,9.958429
69021114276217,0.13940273,-0.111871734,9.947281
69021134131450,0.15177485,-0.108937934,9.850829
69021153987237,0.13805518,-0.04601861,9.75464
69021173842470,0.13993475,-0.015507334,9.6555395
69021193697703,0.19153759,0.02580818,9.582416
69021213552936,0.22955084,0.07117786,9.59236
69021233408513,0.21330436,0.094440155,9.632552
69021253263746,0.1822442,0.11865558,9.7088785
69021273118979,0.17214678,0.103906736,9.80324
69021292974084,0.11031812,0.052553672,9.864341
69021312829317,0.12831758,0.0026625881,9.877798
69021332684550,0.1612398,-0.02804844,9.875915
69021352530537,0.13344696,-0.07299109,9.888407
69021372385514,0.09726919,-0.11009973,9.833752
69021392240619,0.090431616,-0.09483104,9.772916
69021412095596,0.14381464,-0.032092948,9.7013855
69021431950701,0.22276893,0.010955647,9.700393
69021451804696,0.2158128,-0.012651617,9.6835575
69021471659673,0.14038475,-0.016363015,9.677338
69021491514650,0.12825239,0.05941126,9.773717
69021511369627,0.13726777,0.08652468,9.805908
69021531224196,0.085656695,0.034642246,9.8015175
69021551079045,0.050969843,-0.036980223,9.784423
69021570934022,0.07972812,-0.097431906,9.762245
69021590788871,0.11433948,-0.097545035,9.753896
69021610643848,0.12258349,-0.12036615,9.691517
69021630498697,0.12720686,-0.07273889,9.668818
69021650352552,0.12646955,-0.017599363,9.713101
69021670207529,0.054137286,-0.005963053,9.763471
69021690062506,0.018475464,0.009065885,9.820847
69021709917334,-8.9983986E-4,0.013950883,9.8380165
69021729772311,0.04659299,0.004188773,9.8406
69021749627704,0.07639288,0.019820863,9.820337
69021769482553,0.07194433,0.053018242,9.767786
69021789337530,0.10944292,0.04672817,9.709663
69021809192507,0.129979,0.047538865,9.708218
69021829047356,0.09691495,0.055086803,9.72288
69021848902333,0.09646635,0.05642055,9.745047
69021868751904,0.13154422,0.029650468,9.7561655
69021888606753,0.091899626,-0.0038899826,9.765404
69021908461474,0.116007596,0.004353868,9.7752285
69021928316323,0.10667608,-0.017005024,9.817212
69021948175304,0.058699135,-0.06452699,9.811338
69021968030153,0.05652105,-0.052276976,9.811074
69021987885002,0.074565694,-0.02480789,9.785203
69022007739851,0.11535749,-0.0057484168,9.724585
69022027594700,0.13363995,-0.06442381,9.697432
