UPTIMENANO,Ax,Ay,Az
2769317810610,5.573210700000001,8.272397999999999,-0.4167334
2769337668530,5.566025700000001,8.226892,-0.42391850000000003
2769357526578,5.5492606,8.241261999999999,-0.42391850000000003
2769377386630,5.5636306,8.265213000000001,-0.366438
2769397244806,5.613926,8.277188,-0.33530274
2769417102854,5.613926,8.231683,-0.36164796
2769436961030,5.601951000000001,8.2125225,-0.38320315
2769456819078,5.611530999999999,8.226892,-0.3305127
2769476682855,5.6522464999999995,8.226892,-0.30177248
2769496541031,5.654641000000001,8.200547,-0.33769777
2769516399207,5.6522464999999995,8.198153,-0.3281177
2769536257383,5.7001467,8.229287,-0.29937744
2769556115559,5.712122,8.193361999999999,-0.2921924
2769575973735,5.704937,8.162227,-0.32332766
2769595834184,5.6905665,8.198153,-0.33530274
2769615692488,5.6857767,8.222102,-0.30177248
2769635550792,5.6857767,8.193361999999999,-0.2945874
2769655409096,5.6618265999999995,8.162227,-0.3784131
2769675267400,5.6522464999999995,8.200547,-0.37122804
2769695125405,5.676196599999999,8.2197075,-0.31374758
2769714983709,5.695357,8.210127,-0.32093263
2769734842013,5.6738014,8.202942,-0.34009278
2769754700317,5.6498513,8.202942,-0.33769777
2769774558621,5.6450615,8.234077000000001,-0.34009278
2769794426036,5.621111,8.236472000000001,-0.366438
2769814284596,5.6450615,8.234077000000001,-0.34488282
2769834143028,5.669011599999999,8.210127,-0.31374758
2769854001588,5.712122,8.178992,-0.2945874
2769873860020,5.6833816,8.217313,-0.3065625
2769893719671,5.647456,8.229287,-0.32332766
2769913578231,5.654641000000001,8.174202000000001,-0.32093263
2769933436663,5.738467,8.164622,-0.33290774
2769953295223,5.721702,8.140672,-0.3281177
2769973153783,5.709727,8.167017,-0.3065625
2769993012184,5.702542,8.205338000000001,-0.3520679
2770012870616,5.6785917,8.207732,-0.29937744
2770032729176,5.688172,8.159832000000002,-0.28979737
2770052581210,5.704937,8.152647,-0.34488282
2770072439227,5.728887,8.164622,-0.34488282
2770092297660,5.7264919999999995,8.186177,-0.31374758
2770112156219,5.704937,8.195757,-0.3544629
2770132014779,5.688172,8.193361999999999,-0.37362307
2770151873212,5.6594315,8.178992,-0.36164796
2770171731771,5.6857767,8.183782,-0.4023633
2770191574939,5.6785917,8.195757,-0.40715334
2770211433116,5.6618265999999995,8.217313,-0.37362307
2770231291291,5.6833816,8.207732,-0.36883304
2770251149467,5.733676999999999,8.167017,-0.4023633
2770271007772,5.757626999999999,8.140672,-0.46702883
2770290869329,5.7001467,8.164622,-0.44547364
2770310727633,5.628296400000001,8.176597000000001,-0.36883304
2770330585938,5.606741,8.2125225,-0.42152345
2770350444241,5.635481400000001,8.236472000000001,-0.4742139
2770370291561,5.6522464999999995,8.193361999999999,-0.4382886
2770390149610,5.762417299999999,8.190968,-0.39278322
2770410007785,5.733676999999999,8.171807000000001,-0.488584
2770429865961,5.621111,8.178992,-0.50534916
2770449724010,5.628296400000001,8.222102,-0.4047583
2770469582185,5.716912000000001,8.255632,-0.30177248
2770489438860,5.709727,8.207732,-0.39757326
2770509296909,5.719307,8.147857,-0.49816409999999994
2770529154956,5.767207,8.157437,-0.45505372
2770549012876,5.762417299999999,8.181386999999999,-0.40954837
2770568870925,5.719307,8.207732,-0.44786867
2770588728344,5.654641000000001,8.202942,-0.45984375
2770608586392,5.676196599999999,8.202942,-0.3903882
2770628444441,5.7145166,8.2125225,-0.34727785
2770648302488,5.712122,8.214917,-0.44068359999999995
2770668160536,5.6618265999999995,8.202942,-0.5292993
2770688018585,5.647456,8.224497999999999,-0.44307864
2770707864953,5.7001467,8.205338000000001,-0.33530274
2770727722617,5.712122,8.169412,-0.42870852
2770747580410,5.669011599999999,8.190968,-0.5340894
2770767438073,5.637876,8.214917,-0.48139894
2770787286667,5.647456,8.2197075,-0.39517823
2770807144204,5.669011599999999,8.226892,-0.4047583
2770827001739,5.623506,8.222102,-0.47900394
2770846859147,5.611530999999999,8.224497999999999,-0.49097902
2770866716684,5.621111,8.253238,-0.41194338
2770886574705,5.6522464999999995,8.226892,-0.4143384
2770906432113,5.688172,8.198153,-0.4526587
2770926289650,5.6498513,8.193361999999999,-0.45026368
2770946147185,5.623506,8.214917,-0.3903882
2770966004721,5.637876,8.2197075,-0.33530274
2770985862258,5.6498513,8.238868,-0.36883304
2771005723017,5.6738014,8.2125225,-0.43349856
2771025580553,5.671406299999999,8.190968,-0.41912845
2771045437962,5.6666164000000006,8.217313,-0.36164796
2771065295497,5.676196599999999,8.2125225,-0.29937744
2771085153198,5.6666164000000006,8.181386999999999,-0.33290774
2771105010735,5.616321,8.167017,-0.39278322
2771124868270,5.601951000000001,8.183782,-0.4047583
2771144725806,5.635481400000001,8.210127,-0.35685793
2771164583343,5.6450615,8.236472000000001,-0.34967285
2771184440792,5.637876,8.200547,-0.37362307
2771204298200,5.6642212999999995,8.164622,-0.28500733
2771224155737,5.6833816,8.236472000000001,-0.2921924
2771244013144,5.6857767,8.205338000000001,-0.27542725
2771263870552,5.767207,8.162227,-0.22992188
2771283728089,5.745652,8.200547,-0.32093263
2771303583076,5.724097,8.128696000000001,-0.30177248
2771323440356,5.733676999999999,8.126302,-0.11496094
2771343297765,5.757626999999999,8.111932000000001,-0.16286133
2771363155172,5.762417299999999,8.135881,-0.38559815
2771383022899,5.712122,8.183782,-0.41912845
2771402880564,5.740862,8.109536,-0.22034179999999998
2771422738099,5.8127127,8.090376,-0.10777588
2771442595763,5.7719974999999994,8.047266,-0.27303225
2771462453428,5.635481400000001,7.9873905,-0.613125
2771482320398,5.8103175,8.128696000000001,-0.4167334
2771502178190,5.831873000000001,8.207732,-0.047900394000000006
2771522035983,5.7648125,8.193361999999999,-0.26584718
2771541893774,5.6929617,8.2125225,-0.34488282
2771561751694,5.5708155999999995,8.272397999999999,-0.26345217
2771581609487,5.609136,8.258028,-0.16046631
2771601476500,5.767207,8.210127,-0.12454102
2771621334548,5.8270826,8.205338000000001,-0.25387207
2771641192725,5.7648125,8.135881,-0.3520679
2771661050772,5.702542,8.183782,-0.29937744
2771680914322,5.640271,8.231683,-0.30177248
2771700772627,5.6833816,8.140672,-0.28979737
2771720630930,5.695357,8.102350999999999,-0.29698244
2771740489106,5.6570363,8.181386999999999,-0.39996827
2771760347411,5.611530999999999,8.200547,-0.46463382
2771780205586,5.671406299999999,8.152647,-0.33769777
2771800056288,5.738467,8.111932000000001,-0.2802173
2771819914337,5.6977515,8.109536,-0.44786867
2771839772512,5.6594315,8.135881,-0.488584
2771859630560,5.719307,8.174202000000001,-0.364043
2771879488609,5.740862,8.162227,-0.34009278
2771899356334,5.724097,8.157437,-0.4167334
2771919214638,5.7145166,8.169412,-0.38559815
2771939072943,5.7001467,8.2125225,-0.32332766
2771958931374,5.7145166,8.279583,-0.34488282
2771978790260,5.750442,8.250843,-0.33290774
2771998648565,5.7911572,8.174202000000001,-0.25387207
2772018506868,5.8270826,8.152647,-0.22273682
2772038365172,5.8103175,8.152647,-0.25866213
2772058223477,5.822293,8.085587,-0.27303225
2772078077124,5.877378,8.040080999999999,-0.23231691
2772097940731,5.8965383000000005,8.090376,-0.3065625
2772117799164,5.8438478,8.095166,-0.35925296
2772137657595,5.8390580000000005,8.052056,-0.3544629
2772157516155,5.738467,8.087981,-0.44786867
2772177374588,5.5780005,8.1071415,-0.5245093000000001
2772197229623,5.611530999999999,8.006551,-0.5412744
2772217088055,5.5540504,8.073611,-0.72569096
2772236946616,5.455855000000001,8.229287,-0.8478370000000001
2772256805047,5.5468655,8.296348,-0.5939649
2772276653381,5.508545,8.334667999999999,-0.35925296
2772296511686,5.43909,8.377778999999999,-0.5508545
2772316369861,5.4893849999999995,8.363408,-0.60354495
2772336228165,5.5708155999999995,8.3179035,-0.47900394
2772356086470,5.6666164000000006,8.234077000000001,-0.5987549
2772375944645,5.6738014,8.174202000000001,-0.79035646
2772395799383,5.5516553,8.250843,-0.83586186
2772415657560,5.407954,8.303533,-0.69695073
2772435515735,5.4366946,8.267608000000001,-0.5364844
2772455373783,5.561235400000001,8.167017,-0.62510014
2772475231960,5.611530999999999,8.138277,-0.7664063
2772495081949,5.601951000000001,8.195757,-0.7424561
2772514939997,5.625901,8.193361999999999,-0.6610254
2772534797918,5.6522464999999995,8.171807000000001,-0.6490503000000001
2772554655837,5.640271,8.193361999999999,-0.6610254
2772574513512,5.635481400000001,8.210127,-0.58198977
2772594371433,5.6522464999999995,8.222102,-0.5029541000000001
2772614229352,5.709727,8.222102,-0.55803955
2772634087400,5.774392,8.231683,-0.5891748
2772653945321,5.8175025,8.190968,-0.49576905
2772673803368,5.8175025,8.135881,-0.43349856
2772693659331,5.822293,8.121511,-0.45026368
2772713517124,5.815108,8.150250999999999,-0.5221143
2772733375043,5.704937,8.176597000000001,-0.5676197
2772753232963,5.628296400000001,8.214917,-0.49816409999999994
2772773090884,5.613926,8.258028,-0.4622388
2772792945060,5.621111,8.289163,-0.49816409999999994
2772812802852,5.606741,8.246053,-0.4742139
2772832660645,5.637876,8.202942,-0.41912845
2772852518436,5.6498513,8.231683,-0.50774413
2772872372650,5.613926,8.243657,-0.5939649
2772892230315,5.5803957,8.231683,-0.58677983
2772912087850,5.5780005,8.200547,-0.5388794
2772931945514,5.5420755999999995,8.222102,-0.57959473
2772951803179,5.5540504,8.236472000000001,-0.5891748
2772971660842,5.568420400000001,8.222102,-0.61073
2772991520851,5.566025700000001,8.226892,-0.66342044
2773011378516,5.5396805,8.267608000000001,-0.6658155
2773031236179,5.5468655,8.277188,-0.6586304000000001
2773051093843,5.5875807,8.279583,-0.60354495
2773070951508,5.573210700000001,8.265213000000001,-0.6442603
2773090799132,5.599556,8.250843,-0.6945557
2773110656540,5.599556,8.246053,-0.6825806
2773130514077,5.561235400000001,8.272397999999999,-0.6322852
2773150371484,5.5492606,8.270002,-0.67539555
2773170229020,5.5468655,8.236472000000001,-0.71371585
2773190086557,5.566025700000001,8.214917,-0.7065308000000001
2773209947377,5.5947657,8.202942,-0.6849755999999999
2773229805041,5.616321,8.188572,-0.6658155
2773249662578,5.6522464999999995,8.126302,-0.69695073
2773269520113,5.654641000000001,8.083191000000001,-0.8430469
2773289380886,5.6570363,8.135881,-0.93405765
2773309238423,5.599556,8.226892,-0.8310718
2773329096086,5.4869900000000005,8.291558,-0.7544312
2773348953622,5.4534597,8.356223,-0.7544312
2773368811159,5.455855000000001,8.3322735,-0.7496411000000001
2773388668089,5.508545,8.277188,-0.7592211999999999
2773408525625,5.5636306,8.265213000000001,-0.79993653
2773428383162,5.5324955000000005,8.277188,-0.7807764
2773448240697,5.484595,8.274792999999999,-0.732876
2773468098233,5.479805000000001,8.308323,-0.7424561
2773487955770,5.455855000000001,8.313113000000001,-0.7951465
2773507812817,5.4438796,8.358619000000001,-0.79754156
2773527670353,5.415139,8.334667999999999,-0.7544312
2773547527890,5.4510646,8.298743,-0.77359134
2773567385425,5.4510646,8.315508,-0.8095166
2773587246667,5.431904299999999,8.356223,-0.8214916999999999
2773607104332,5.4414845000000005,8.281978,-0.7807764
2773626961995,5.51094,8.210127,-0.7879615
2773646819659,5.513335,8.246053,-0.8286768
2773666677324,5.49178,8.305928,-0.7807764
2773686541643,5.4869900000000005,8.308323,-0.76401126
2773706399563,5.496569999999999,8.253238,-0.78556645
2773726257356,5.51094,8.241261999999999,-0.7759864000000001
2773746115147,5.503755,8.281978,-0.76880133
2773765973067,5.49178,8.286767999999999,-0.76161623
2773785830860,5.4893849999999995,8.258028,-0.7544312
2773805686877,5.4822,8.272397999999999,-0.7232959
2773825544669,5.4606447,8.334667999999999,-0.7592211999999999
2773845402462,5.4271145,8.3179035,-0.7831714
2773865260253,5.4055595,8.279583,-0.74724615
2773885125504,5.398374,8.310719,-0.76401126
2773904983425,5.384004,8.341853,-0.76161623
2773924841344,5.4103494,8.327483,-0.7089258
2773944699136,5.47741,8.301138,-0.7161109
2773964557057,5.4822,8.286767999999999,-0.69695073
2773984427916,5.4822,8.281978,-0.6777906
2774004286220,5.525310500000001,8.246053,-0.6394701999999999
2774024144397,5.5875807,8.241261999999999,-0.63707525
2774044002572,5.604346,8.258028,-0.6227050999999999
2774063856551,5.5564456,8.234077000000001,-0.60833496
2774083714728,5.582791,8.224497999999999,-0.5939649
2774103567990,5.568420400000001,8.258028,-0.613125
2774123426038,5.53489,8.262817,-0.5939649
2774143284215,5.5372853,8.253238,-0.5987549
2774163142262,5.53489,8.265213000000001,-0.62031007
2774182996689,5.520519999999999,8.289163,-0.6179150999999999
2774202854738,5.4893849999999995,8.313113000000001,-0.62989014
2774222712785,5.4750147,8.305928,-0.61552006
2774242570833,5.496569999999999,8.274792999999999,-0.57001466
2774262428882,5.5324955000000005,8.274792999999999,-0.6179150999999999
2774282286929,5.518125,8.289163,-0.62031007
2774302138417,5.494175,8.270002,-0.57959473
2774321996338,5.508545,8.243657,-0.5939649
2774341854257,5.5396805,8.274792999999999,-0.6227050999999999
2774361712177,5.515730400000001,8.289163,-0.613125
2774381570226,5.50136,8.286767999999999,-0.56522465
2774401424957,5.515730400000001,8.248447,-0.54366946
2774421282877,5.5324955000000005,8.250843,-0.61073
2774441140798,5.5372853,8.289163,-0.613125
2774460998717,5.5372853,8.286767999999999,-0.5724097
2774480859928,5.5564456,8.246053,-0.5604346
2774500717977,5.5301003,8.246053,-0.57959473
2774520576024,5.5468655,8.281978,-0.5843848
2774540433944,5.575606,8.260423,-0.57719976
2774560291993,5.566025700000001,8.255632,-0.5987549
2774580149912,5.496569999999999,8.284373,-0.62510014
2774600007606,5.4678297,8.293953,-0.62510014
2774619865655,5.43909,8.296348,-0.62989014
2774639723702,5.407954,8.313113000000001,-0.6227050999999999
2774659581750,5.4103494,8.322693,-0.57719976
2774679439799,5.4055595,8.3250885,-0.5676197
2774699291284,5.4414845000000005,8.308323,-0.58198977
2774719149076,5.47262,8.310719,-0.53169435
2774739006869,5.527705,8.3322735,-0.48379397
2774758864660,5.5540504,8.313113000000001,-0.4622388
2774778722324,5.5780005,8.281978,-0.4167334
2774798580117,5.604346,8.236472000000001,-0.4167334
2774818437908,5.6498513,8.2197075,-0.4622388
2774838295700,5.6785917,8.217313,-0.4766089
2774858153493,5.647456,8.222102,-0.44786867
2774878011284,5.597161,8.238868,-0.44786867
2774897863901,5.5588408,8.291558,-0.45505372
2774917721694,5.508545,8.313113000000001,-0.4622388
2774937579357,5.50136,8.272397999999999,-0.49337405
2774957437021,5.5229154000000005,8.248447,-0.51971924
2774977294814,5.5372853,8.265213000000001,-0.56522465
2774997158139,5.5588408,8.272397999999999,-0.5676197
2775017015931,5.5468655,8.272397999999999,-0.5125342
2775036873724,5.479805000000001,8.289163,-0.55803955
2775056731515,5.4606447,8.277188,-0.5412744
2775076582651,5.4893849999999995,8.277188,-0.4742139
2775096440316,5.527705,8.301138,-0.43349856
2775116297851,5.503755,8.3179035,-0.48379397
2775136155515,5.4869900000000005,8.293953,-0.49337405
2775156013180,5.527705,8.262817,-0.4263135
2775175870715,5.5229154000000005,8.262817,-0.4143384
2775195726026,5.5444703,8.286767999999999,-0.48379397
2775215583563,5.5564456,8.277188,-0.49576905
2775235441098,5.5708155999999995,8.246053,-0.43110353
2775255298634,5.623506,8.229287,-0.42391850000000003
2775275156171,5.6330860000000005,8.262817,-0.49816409999999994
2775295016039,5.618716200000001,8.200547,-0.49337405
2775314873575,5.676196599999999,8.207732,-0.45505372
2775334731112,5.6666164000000006,8.222102,-0.50534916
2775354588647,5.5588408,8.265213000000001,-0.5388794
2775374443970,5.513335,8.322693,-0.50534916
2775394301379,5.5420755999999995,8.289163,-0.45984375
2775414158914,5.5540504,8.272397999999999,-0.49576905
2775434016322,5.520519999999999,8.289163,-0.6179150999999999
2775453873731,5.47262,8.320298,-0.6394701999999999
2775473731266,5.4127445,8.334667999999999,-0.57001466
2775493594690,5.415139,8.329877999999999,-0.54366946
2775513452355,5.400769,8.3250885,-0.55324954
2775533309890,5.379214299999999,8.334667999999999,-0.60354495
2775553167554,5.388794,8.327483,-0.5963599
2775573025219,5.53489,8.267608000000001,-0.47181886
2775592886051,5.6738014,8.138277,-0.3903882
2775612743843,5.719307,8.097562,-0.5029541000000001
2775632601636,5.676196599999999,8.167017,-0.7065308000000001
2775652459427,5.635481400000001,8.234077000000001,-0.64186525
2775672317219,5.609136,8.289163,-0.44307864
2775692175012,5.5516553,8.298743,-0.4766089
2775712042269,5.5372853,8.313113000000001,-0.5891748
2775731900189,5.465435,8.384964,-0.45984375
2775751758238,5.4127445,8.380174,-0.46702883
2775771616157,5.47262,8.418494,-0.47900394
2775791474279,5.508545,8.399334,-0.42391850000000003
2775811332328,5.568420400000001,8.301138,-0.39757326
2775831190247,5.49178,8.236472000000001,-0.4047583
2775851048295,5.4869900000000005,8.210127,-0.3065625
2775870906216,5.4534597,8.310719,-0.3520679
2775890762008,5.4055595,8.356223,-0.44307864
2775910619928,5.384004,8.372989,-0.37362307
2775930477849,5.367239,8.392149,-0.31374758
2775950335768,5.372029,8.420889,-0.3520679
2775970193688,5.391189,8.435259,-0.45505372
2775990051609,5.398374,8.349038,-0.44307864
2776009915049,5.4414845000000005,8.270002,-0.34727785
2776029772969,5.5492606,8.272397999999999,-0.2562671
2776049631018,5.599556,8.265213000000001,-0.26105714
2776069489065,5.6618265999999995,8.231683,-0.32572266
2776089347068,5.702542,8.217313,-0.28261232
2776109205117,5.669011599999999,8.176597000000001,-0.27303225
2776129063164,5.573210700000001,8.200547,-0.20357667
2776148921212,5.568420400000001,8.246053,-0.1580713
2776168779261,5.525310500000001,8.293953,-0.27303225
2776188632505,5.4031644,8.380174,-0.31853762
2776208490425,5.3145485,8.440049,-0.15567628
2776228348346,5.3049684,8.425678999999999,-0.11496094
2776248206393,5.350474,8.344249000000001,-0.12693603
2776268064313,5.3313136,8.380174,-0.16286133
2776287922234,5.374423999999999,8.406519,-0.2706372
2776307777282,5.398374,8.411309,-0.24668702
2776327635202,5.391189,8.372989,-0.12933107
2776347493123,5.352869,8.377778999999999,-0.1341211
2776367351042,5.372029,8.387359,-0.20597169
2776387206048,5.4438796,8.396939,-0.23471193
2776407063969,5.3408937000000005,8.428074,-0.2083667
2776426921760,5.2091675,8.452024,-0.3065625
2776446779680,5.245093,8.442444,-0.17962648
2776466637601,5.4342995,8.377778999999999,-0.05748047
2776486489693,5.5875807,8.329877999999999,-0.117355965
2776506347357,5.592371,8.267608000000001,-0.26584718
2776526205150,5.484595,8.301138,-0.38320315
2776546062813,5.4271145,8.416099,-0.38320315
2776565920605,5.384004,8.430469500000001,-0.21794678
2776585778270,5.3935843,8.413704,-0.15088624
2776605635622,5.3863993,8.447234,-0.24908204
2776625493414,5.276228400000001,8.468789,-0.3281177
2776645351207,5.264253,8.475974,-0.31374758
2776665208870,5.2498830000000005,8.430469500000001,-0.2682422
2776685061761,5.254673,8.464,-0.3161426
2776704919426,5.326524,8.432864,-0.4023633
2776724777089,5.242698000000001,8.468789,-0.26584718
2776744634625,5.1804276,8.473578999999999,-0.13651612
2776764492290,5.2043777,8.471185,-0.16765137
2776784349953,5.252278,8.487949,-0.19160157
2776804203611,5.264253,8.461604,-0.15567628
2776824061148,5.237908,8.440049,-0.119750984
2776843918555,5.223538,8.473578999999999,-0.12693603
2776863776091,5.213958,8.487949,-0.07664063
2776883633628,5.225933,8.4448395,-0.031135255
2776903490401,5.2929935,8.420889,0.047900394000000006
2776923347809,5.3313136,8.442444,0.10538086
2776943205346,5.283413400000001,8.447234,0.05748047
2776963062753,5.213958,8.418494,0.12693603
2776982920508,5.2786230000000005,8.411309,0.23710695
2777002777917,5.3145485,8.442444,0.09340577
2777022635324,5.261858,8.47837,0.06466553
2777042492732,5.237908,8.440049,0.14370118
2777062350269,5.283413400000001,8.389753,0.1580713
2777082207676,5.3289184999999994,8.375383,0.08622070400000001
2777102062000,5.2666483,8.459209,-0.059875492
2777121919281,5.151687,8.555010000000001,-0.11496094
2777141776688,5.0989965999999995,8.54064,-0.081430666
2777161634096,5.0702567,8.519085,-0.06227051
2777181491377,5.039121,8.499925,-0.10777588
2777201348113,5.0582814,8.5119,-0.17004639
2777221205393,5.1085769999999995,8.555010000000001,-0.19399660000000002
2777241062674,5.118157,8.590936,-0.2083667
2777260919953,5.072651400000001,8.59333,-0.21315674
2777280778868,5.039121,8.562195,-0.20118165
2777300636149,5.0630717,8.571775,-0.19878663
2777320493556,5.012776000000001,8.605306,-0.3065625
2777340350964,4.9505057,8.662786500000001,-0.3305127
2777360208245,4.9433207999999995,8.657996,-0.28500733
2777380065652,4.9241605,8.636441,-0.30177248
2777399928802,4.9073954,8.665181,-0.34727785
2777419786211,4.87626,8.679551,-0.34488282
2777439643618,4.9289502999999995,8.617281,-0.29937744
2777459501154,5.0678616,8.564589999999999,-0.2562671
2777479358563,5.151687,8.456814999999999,-0.21555176
2777499225411,5.185217400000001,8.475974,-0.21555176
2777519083075,5.213958,8.495134,-0.19399660000000002
2777538940740,5.276228400000001,8.466394000000001,-0.100590825
2777558798275,5.2594633,8.514294999999999,-0.119750984
2777578662478,5.1085769999999995,8.576566,-0.19399660000000002
2777598520271,5.005591000000001,8.547825,-0.16046631
2777618378190,5.0439115,8.53585,-0.12693603
2777638235982,5.0989965999999995,8.555010000000001,-0.17004639
2777658093903,5.110972,8.552615,-0.22273682
2777677951694,5.1373169999999995,8.557405000000001,-0.2921924
2777697811718,5.0822315,8.6077,-0.2682422
2777717669639,5.0343313,8.586145,-0.18920656
2777737527558,4.986430599999999,8.571775,-0.1460962
2777757385478,5.010381,8.57896,-0.08861572
2777777243399,5.0582814,8.59333,-0.12693603
2777797095916,5.0582814,8.598121,-0.22752686
2777816953708,5.0582814,8.583751,-0.20118165
2777836811501,5.0822315,8.5502205,-0.11256592
2777856669420,5.0558863,8.583751,-0.1341211
2777876532149,4.9505057,8.665181,-0.18681154
2777896390198,4.90979,8.684341,-0.17004639
2777916248117,4.9552955999999995,8.669971,-0.13651612
2777936106037,4.9792457,8.619676,-0.11496094
2777955963958,5.0558863,8.53106,-0.07185059
2777975821877,5.175637200000001,8.475974,-0.019160157
2777995680431,5.1971927,8.499925,-0.019160157
2778015538352,5.122947,8.600515,-0.081430666
2778035396271,5.010381,8.6077,-0.098195806
2778055254319,4.9385304,8.555010000000001,-0.14130616
2778075112240,4.8978150000000005,8.57417,-0.10538086
2778094968482,4.90979,8.59333,-0.09101075
2778114822867,4.998406,8.562195,-0.098195806
2778134680916,5.1804276,8.459209,0.009580079
2778154538835,5.295388,8.423283999999999,0.021555176000000002
2778174396755,5.261858,8.461604,-0.100590825
2778194254676,5.094207,8.547825,-0.11496094
2778214107676,5.0415163,8.571775,0.07903565
2778233965468,5.149292,8.56938,0.21315674
2778253823389,5.221143,8.59333,0.14370118
2778273681308,5.1828227,8.581355,-0.035925295
2778293534614,5.151687,8.52148,-0.13651612
2778313392407,5.2091675,8.471185,-0.08861572
2778333250198,5.2738333,8.380174,-0.05269043
2778353107862,5.2977834,8.361013,-0.040715333
2778372965655,5.3073635,8.401729,-0.011975098
2778392818013,5.283413400000001,8.475974,0.0023950195999999997
2778412675549,5.223538,8.538245,-0.0071850587
2778432533214,5.1468973,8.564589999999999,-0.031135255
2778452390877,5.0989965999999995,8.566985,-0.043110352000000005
2778472248541,5.127737000000001,8.57417,-0.009580079
2778492106206,5.144501999999999,8.600515,-0.016765138
2778511970665,5.166057599999999,8.581355,-0.08861572
2778531828329,5.151687,8.557405000000001,-0.12693603
2778551686122,5.1540823,8.475974,-0.102985844
2778571543913,5.264253,8.375383,0.026345216
2778591396359,5.3480787,8.368198,0.11256592
2778611254024,5.324128599999999,8.437654499999999,0.06945557
2778631111687,5.237908,8.497530000000001,0.031135255
2778650969351,5.245093,8.459209,0.11256592
2778670827016,5.3480787,8.430469500000001,0.100590825
2778690679845,5.319339,8.380174,0.11496094
2778710537253,5.316943599999999,8.377778999999999,0.09340577
2778730394790,5.3313136,8.416099,0.07903565
2778750252325,5.3935843,8.437654499999999,0.1341211
2778770109861,5.3408937000000005,8.413704,0.014370117
2778789967398,5.225933,8.404124000000001,-0.06227051
2778809823810,5.125342,8.437654499999999,-0.06466553
2778829681218,5.2283278,8.475974,-0.011975098
2778849538755,5.295388,8.464,-0.050295413
2778869396162,5.269043,8.428074,-0.0071850587
2778889248535,5.384004,8.382568,0.05748047
2778909105816,5.51094,8.305928,0.045505375
2778928963095,5.566025700000001,8.293953,0.038320314
2778948820375,5.484595,8.301138,0.07185059
2778968677784,5.479805000000001,8.337064,0.06466553
2778988540134,5.527705,8.339458,0.031135255
2779008397542,5.46304,8.270002,0.18681154
2779028254951,5.503755,8.195757,0.3305127
2779048112358,5.616321,8.188572,0.32093263
2779067969766,5.743257,8.178992,0.10777588
2779087827047,5.709727,8.181386999999999,-0.14370118
2779107686532,5.5540504,8.2197075,0.21076173
2779127544068,5.575606,8.255632,0.55324954
2779147401477,5.6426663,8.310719,0.1460962
2779167259012,5.728887,8.236472000000001,0.20357667
2779187123917,5.654641000000001,8.238868,0.5292993
2779206981582,5.721702,8.090376,0.18920656
2779226839117,5.6833816,7.9921803,0.0071850587
2779246696781,5.7911572,8.064031,0.23471193
2779266554446,5.9707837,7.9826,-0.07424561
2779286412109,5.8893533,8.066426,-0.39996827
2779306266189,5.695357,8.2125225,-0.17723145
2779326123854,5.527705,8.298743,-0.045505375
2779345981389,5.518125,8.262817,-0.18920656
2779365839053,5.455855000000001,8.260423,-0.49097902
2779385696590,5.367239,8.329877999999999,-0.4622388
2779405556964,5.237908,8.370594,-0.41194338
2779425414628,5.175637200000001,8.437654499999999,-0.5963599
2779445272165,5.242698000000001,8.394544,-0.68737066
2779465129828,5.252278,8.238868,-0.74006104
2779484997366,5.245093,8.286767999999999,-0.6227050999999999
2779504855287,5.419929499999999,8.399334,-0.613125
2779524713078,5.6857767,8.452024,-0.6658155
2779544570870,5.803132499999999,8.2197075,-0.49097902
2779564428791,5.781577599999999,8.140672,-0.42152345
2779584286582,5.836663,8.171807000000001,-0.23231691
2779604151115,5.980364,7.994575500000001,-0.19639161
2779624009164,6.080955,7.7550735,-0.27303225
2779643867083,6.2773465999999996,7.6449027,-0.29937744
2779663725131,6.559958999999999,7.6688529999999995,-0.5005590999999999
2779683583180,6.7228202999999995,7.7574687,-0.51732427
2779703446794,6.4593678,7.8508744,-0.49576905
2779723304970,6.11209,7.94428,-0.16765137
2779743163147,5.961204,7.9299100000000005,-0.09580079
2779763021322,6.0306597,7.8844047,-0.32332766
2779782858428,6.095325,7.917935000000001,-0.37601808
2779802716221,6.1743608,7.810159,-0.1460962
2779822574012,6.171965599999999,7.774234,-0.16765137
2779842431676,6.0306597,7.91075,-0.14370118
2779862289469,6.0378447,8.035291,0.028740235
2779882147260,6.080955,7.941885000000001,-0.12693603
2779902004447,6.0785599999999995,7.862849000000001,-0.32093263
2779921862112,6.0282645,7.9035649999999995,-0.5029541000000001
2779941719903,5.855823,7.917935000000001,-0.47181886
2779961577567,5.894143,7.8868,-0.38799320000000004
2779981435360,6.080955,7.977810400000001,-0.7592211999999999
2780001299179,6.1791506,8.099956500000001,-0.732876
2780021157099,6.205496,8.020921000000001,-0.7424561
2780041014892,5.949229,7.9897857000000005,-0.79993653
2780060872683,5.831873000000001,7.999366,-0.7089258
2780080737186,5.865403,7.973020599999999,-1.0202783000000002
2780100595235,6.0354495,7.965835,-1.1088941
2780120445306,6.1959157,7.9897857000000005,-0.7568262
2780140303354,6.320457,7.822133999999999,-1.0106983
2780160161403,6.06419,8.01613,-1.3148658000000002
2780180019450,6.217471,7.939490299999999,-0.9244776
2780199870982,6.2533959999999995,7.8412942999999995,-1.3986914
2780219728903,6.0785599999999995,7.879614999999999,-1.6813037
2780239586822,6.0162889999999996,7.975414999999999,-1.5328126
2780259444742,5.6905665,8.159832000000002,-1.1591895
2780279302535,5.623506,8.090376,-0.97956306
2780299153389,5.7959476,7.95865,-1.22146
2780319011053,5.8342675999999996,7.882009500000001,-1.2118799999999998
2780338868846,5.7312818,7.802973700000001,-0.96040285
2780358726509,5.7264919999999995,7.704778,-0.8262818000000001
2780378582899,5.973179,7.8556643,-1.0490186000000001
2780398440692,6.1599903,7.9873905,-1.1543995
2780418298355,6.0162889999999996,7.860454600000001,-1.096919
2780438156019,5.853428,7.814949,-0.9196875
2780458013684,5.870193,7.807764,-0.9580079
2780477871475,5.992339,7.745493400000001,-1.2166698999999999
2780497730180,6.1599903,7.740703599999999,-1.2525953
2780517587845,6.219866000000001,7.819739299999999,-1.1975098
2780537445508,6.2533959999999995,7.8987746,-1.0729688
2780557303172,6.1312504,7.8532696,-1.1112891000000003
2780577160837,5.927674,7.795789,-1.1687696
2780597013026,5.973179,7.8556643,-1.2573853000000002
2780616870562,6.128855000000001,8.056846,-1.1783496
2780636728227,6.0426345,8.066426,-0.98195803
2780656585762,5.9228835,7.9897857000000005,-0.98195803
2780676443298,5.980364,7.932305,-0.9268726
2780696300835,6.0617947999999995,7.8891945,-0.92208254
2780716154871,6.0450295999999994,7.8772197,-0.9484278
2780736012279,6.0043144,7.91075,-1.0202783000000002
2780755869688,5.9875492999999995,7.8532696,-1.0370435
2780775727223,6.090535,7.767049,-1.0106983
2780795579128,6.1504107,7.829319,-1.1208692
2780815436409,6.05461,7.917935000000001,-1.099314
2780835293816,5.9061184,7.913145,-1.1400293
2780855151224,5.841453,7.94907,-1.096919
2780875008505,5.9324636,7.9921803,-1.089734
2780894866252,6.006709,8.0017605,-1.0801538
2780914723532,5.958809,7.9897857000000005,-1.0298585
2780934580813,5.977969,7.922724700000001,-0.94603276
2780954438092,6.114485299999999,7.774234,-1.0083033000000001
2780974295372,6.1743608,7.8125539999999996,-0.9867481
2780994152653,6.1599903,7.814949,-0.9412427
2781014014796,6.1073002999999995,7.795789,-0.96758795
2781033872204,6.1240654,7.7550735,-0.8765772
2781053729485,6.1384354000000005,7.7598634,-0.8646021
2781073586892,6.1312504,7.860454600000001,-0.9484278
2781093450438,6.073769599999999,7.917935000000001,-0.855022
2781113307975,5.992339,7.896380000000001,-0.85741705
2781133165510,5.9851540000000005,7.882009500000001,-0.9268726
2781153023046,6.0210795,7.932305,-0.9244776
2781172880583,5.975574,7.9921803,-0.93405765
2781192744579,5.877378,7.9873905,-0.9388476999999998
2781212602371,5.944439,7.927515,-0.9029224
2781232460036,6.05461,7.8748245,-0.9580079
2781252317827,6.1216702000000005,7.882009500000001,-1.0442286
2781272175491,6.119275,7.8915896,-1.0298585
2781292033156,6.0138940000000005,7.927515,-1.0514137
2781311880500,5.870193,7.9826,-1.0059083
2781331738164,5.755232299999999,7.9873905,-0.9436377
2781351595701,5.767207,8.023315,-0.83586186
2781371453364,5.8390580000000005,8.064031,-0.76161623
2781391303805,5.910908,7.999366,-0.78556645
2781411161086,5.9468336,7.975414999999999,-0.81909674
2781431018365,5.937253500000001,7.9826,-0.84544194
2781450875645,5.9300685,7.9706254,-0.88376224
2781470732926,5.877378,7.994575500000001,-0.92208254
2781490600786,5.8127127,8.047266,-0.88376224
2781510458194,5.7863674000000005,8.073611,-0.8286768
2781530315731,5.7719974999999994,8.099956500000001,-0.83586186
2781550173138,5.781577599999999,8.097562,-0.82388675
2781570030674,5.7719974999999994,8.090376,-0.83586186
2781589888083,5.8270826,8.068821,-0.8143066999999999
2781609755876,5.853428,8.056846,-0.79993653
2781629613540,5.918093700000001,8.044871,-0.7041358
2781649471333,5.8198977,8.013736,-0.974773
2781669328996,5.7983427,8.052056,-0.8430469
2781689190591,5.7959476,8.044871,-0.81191164
2781709048384,5.8438478,7.977810400000001,-0.80233157
2781728906303,5.846243,8.025711,-0.73527104
2781748764223,5.807923000000001,8.078402,-0.7424561
2781768622016,5.8103175,8.092772,-0.7592211999999999
2781788479935,5.8438478,8.121511,-0.7065308000000001
2781808331845,5.822293,8.032896000000001,-0.7113208000000001
2781828189638,5.8390580000000005,8.020921000000001,-0.732876
2781848047429,5.855823,8.013736,-0.7496411000000001
2781867905221,5.8725879999999995,8.011341,-0.7807764
2781887763014,5.8510327,8.037686,-0.7496411000000001
2781907621986,5.8390580000000005,8.073611,-0.77359134
2781927479778,5.8175025,8.066426,-0.79035646
2781947337571,5.831873000000001,8.035291,-0.76880133
2781967195362,5.836663,8.064031,-0.78556645
2781987059505,5.8270826,8.109536,-0.8095166
2782006917426,5.815108,8.061636,-0.7951465
2782026775345,5.807923000000001,8.076006,-0.79754156
2782046633137,5.8055277,8.071216999999999,-0.7664063
2782066491058,5.7767873,8.054451,-0.82388675
2782086348977,5.7767873,8.092772,-0.79754156
2782106206458,5.846243,8.085587,-0.74724615
2782126064379,5.9228835,8.042475999999999,-0.7232959
2782145919979,5.956413700000001,7.9873905,-0.73527104
2782165777899,5.9396486,7.92512,-0.7807764
2782185635820,5.982759,7.9083548,-0.7783814
2782205487436,6.0091043,7.937094999999999,-0.7496411000000001
2782225345356,5.958809,7.999366,-0.7065308000000001
2782245203149,5.913303400000001,8.004155,-0.73527104
2782265060940,5.951624,7.9538603000000005,-0.71371585
2782284912773,5.9228835,8.0305,-0.79754156
2782304770438,5.8677983,8.013736,-0.80712163
2782324628229,5.807923000000001,8.004155,-0.8981324
2782344485893,5.865403,8.052056,-0.8286768
2782364343686,5.8510327,8.0305,-0.81191164
2782384201349,5.736072,8.049661,-0.8095166
2782404054252,5.738467,8.1143265,-0.7783814
2782423911789,5.752837,8.150250999999999,-0.8095166
2782443769452,5.807923000000001,8.133486999999999,-0.73048097
2782463626988,5.841453,8.116721,-0.72569096
2782483484525,5.7959476,8.078402,-0.73527104
2782503338293,5.815108,8.028106,-0.7496411000000001
2782523195701,5.7983427,7.994575500000001,-0.7568262
2782543053238,5.824688,8.018526,-0.73048097
2782562910773,5.877378,8.020921000000001,-0.72569096
2782582763646,5.8965383000000005,8.008944999999999,-0.7209009
2782602621055,5.8725879999999995,8.037686,-0.7232959
2782622478462,5.8055277,8.090376,-0.77359134
2782642335870,5.702542,8.190968,-0.81191164
2782662193279,5.640271,8.236472000000001,-0.8143066999999999
2782682050686,5.6498513,8.2197075,-0.8167017
2782701911227,5.6905665,8.162227,-0.87178713
2782721768764,5.7001467,8.133486999999999,-0.7879615
2782741626171,5.716912000000001,8.090376,-0.74724615
2782761483707,5.803132499999999,8.061636,-0.7544312
2782781341116,5.855823,8.059241,-0.73048097
2782801193554,5.901328599999999,8.044871,-0.7041358
2782821050834,5.8677983,8.032896000000001,-0.7041358
2782840908243,5.855823,8.01613,-0.69216067
2782860765650,5.831873000000001,8.047266,-0.6730005
2782880623058,5.8270826,8.064031,-0.6658155
2782900480467,5.863008,8.01613,-0.69695073
2782920334741,5.898933400000001,8.006551,-0.6658155
2782940191893,5.9037232,8.008944999999999,-0.62749517
2782960049174,5.865403,8.037686,-0.68737066
2782979906325,5.7887626,8.109536,-0.7448511
2782999768847,5.7959476,8.087981,-0.69216067
2783019626000,5.8175025,8.020921000000001,-0.732876
2783039483279,5.824688,8.059241,-0.7376661
2783059340559,5.8270826,8.095166,-0.7448511
2783079197712,5.8390580000000005,8.068821,-0.73527104
2783099055352,5.822293,8.018526,-0.7568262
2783118912632,5.783972299999999,8.068821,-0.7664063
2783138769913,5.7719974999999994,8.104747,-0.76880133
2783158627192,5.7791824,8.1071415,-0.7927515
2783178484600,5.757626999999999,8.1143265,-0.7879615
2783198341881,5.716912000000001,8.126302,-0.7568262
2783218210953,5.7312818,8.126302,-0.7927515
2783238068489,5.757626999999999,8.119117,-0.732876
2783257926026,5.7935524,8.061636,-0.77359134
2783277783561,5.783972299999999,8.102350999999999,-0.7065308000000001
2783297642388,5.767207,8.109536,-0.72569096
2783317499925,5.807923000000001,8.064031,-0.7496411000000001
2783337357588,5.7983427,8.095166,-0.7232959
2783357215124,5.7935524,8.102350999999999,-0.68018556
2783377072789,5.7648125,8.068821,-0.7185059
2783396933233,5.745652,8.064031,-0.71371585
2783416790769,5.7312818,8.119117,-0.7424561
2783436648434,5.719307,8.202942,-0.7209009
2783456506097,5.716912000000001,8.157437,-0.69216067
2783476363633,5.767207,8.095166,-0.6849755999999999
2783496221298,5.7863674000000005,8.076006,-0.7113208000000001
2783516083392,5.752837,8.092772,-0.76161623
2783535941184,5.733676999999999,8.121511,-0.7041358
2783555798849,5.743257,8.111932000000001,-0.6777906
2783575656640,5.7648125,8.1071415,-0.68976563
2783595517053,5.774392,8.143066000000001,-0.6993457
2783615374974,5.704937,8.131092,-0.732876
2783635232893,5.712122,8.119117,-0.72569096
2783655090813,5.750442,8.121511,-0.68018556
2783674948606,5.7719974999999994,8.092772,-0.76880133
2783694811473,5.7696023,8.1143265,-0.76161623
2783714669521,5.7480474,8.138277,-0.73048097
2783734527570,5.716912000000001,8.140672,-0.73527104
2783754385489,5.728887,8.169412,-0.73048097
2783774243537,5.750442,8.143066000000001,-0.70174074
2783794101586,5.750442,8.080796000000001,-0.7544312
2783813955031,5.757626999999999,8.097562,-0.7089258
2783833812951,5.7480474,8.126302,-0.728086
2783853670872,5.743257,8.131092,-0.7592211999999999
2783873528791,5.762417299999999,8.097562,-0.74006104
2783893381493,5.750442,8.111932000000001,-0.7161109
2783913239286,5.728887,8.119117,-0.7209009
2783933097077,5.7767873,8.135881,-0.6730005
2783952954997,5.757626999999999,8.131092,-0.75203615
2783972812790,5.6905665,8.111932000000001,-0.81191164
2783992670581,5.6833816,8.131092,-0.7161109
2784012534419,5.762417299999999,8.116721,-0.6706055000000001
2784032392340,5.8175025,8.083191000000001,-0.6993457
2784052250387,5.774392,8.111932000000001,-0.7113208000000001
2784072108307,5.783972299999999,8.1143265,-0.69695073
2784091966228,5.740862,8.138277,-0.68737066
2784111817753,5.738467,8.128696000000001,-0.7161109
2784131675673,5.781577599999999,8.1071415,-0.7232959
2784151533466,5.752837,8.121511,-0.7065308000000001
2784171389863,5.752837,8.087981,-0.7376661
2784191238870,5.757626999999999,8.111932000000001,-0.728086
2784211096535,5.745652,8.140672,-0.7065308000000001
2784230954070,5.7312818,8.128696000000001,-0.7041358
2784250811734,5.7145166,8.102350999999999,-0.69695073
2784270669399,5.7648125,8.099956500000001,-0.6442603
2784290527062,5.7983427,8.119117,-0.71371585
2784310379295,5.755232299999999,8.128696000000001,-0.7496411000000001
2784330236832,5.7264919999999995,8.126302,-0.7065308000000001
2784350094367,5.7480474,8.097562,-0.6706055000000001
2784369951903,5.783972299999999,8.104747,-0.67539555
2784389809440,5.774392,8.109536,-0.7376661
2784409660425,5.7648125,8.1071415,-0.69695073
2784429517705,5.774392,8.102350999999999,-0.6730005
2784449374986,5.853428,8.071216999999999,-0.6825806
2784469232393,5.824688,8.087981,-0.7376661
2784489088088,5.783972299999999,8.085587,-0.7065308000000001
2784508945369,5.7791824,8.083191000000001,-0.7209009
2784528802648,5.7648125,8.090376,-0.7065308000000001
2784548659928,5.783972299999999,8.087981,-0.74006104
2784568517209,5.7863674000000005,8.083191000000001,-0.7089258
2784588374488,5.8175025,8.083191000000001,-0.6610254
2784608230177,5.824688,8.071216999999999,-0.68976563
2784628087330,5.7887626,8.104747,-0.7232959
2784647944609,5.762417299999999,8.1071415,-0.69216067
2784667801889,5.7863674000000005,8.097562,-0.6825806
2784687659170,5.803132499999999,8.1071415,-0.6945557
2784707510603,5.781577599999999,8.061636,-0.6777906
2784727367755,5.7887626,8.076006,-0.7089258
2784747224780,5.7911572,8.126302,-0.7448511
2784767081803,5.7648125,8.140672,-0.6730005
2784786936279,5.760022,8.119117,-0.6706055000000001
2784806793304,5.752837,8.111932000000001,-0.732876
2784826650327,5.752837,8.119117,-0.73527104
2784846507351,5.7696023,8.104747,-0.6993457
2784866364376,5.7935524,8.071216999999999,-0.6825806
2784886221399,5.7983427,8.078402,-0.7424561
2784906081099,5.762417299999999,8.150250999999999,-0.7113208000000001
2784925938124,5.740862,8.126302,-0.7232959
2784945795147,5.740862,8.109536,-0.6993457
2784965652171,5.762417299999999,8.111932000000001,-0.71371585
2784985509196,5.7863674000000005,8.111932000000001,-0.6730005
2785005370272,5.7696023,8.095166,-0.6849755999999999
2785025227296,5.760022,8.068821,-0.6730005
2785045084449,5.7887626,8.085587,-0.62749517
2785064941600,5.853428,8.085587,-0.6586304000000001
2785084803505,5.865403,8.049661,-0.6993457
2785104660658,5.774392,8.080796000000001,-0.68737066
2785124517937,5.7935524,8.085587,-0.68976563
2785144375089,5.8198977,8.080796000000001,-0.6825806
2785164232370,5.7791824,8.109536,-0.61552006
2785184089521,5.7935524,8.064031,-0.69695073
2785203948137,5.7983427,8.059241,-0.6849755999999999
2785223805418,5.8007374,8.099956500000001,-0.62510014
2785243662569,5.8103175,8.090376,-0.67539555
2785263519849,5.8127127,8.064031,-0.6706055000000001
2785283377002,5.8103175,8.078402,-0.6442603
2785303238310,5.8127127,8.097562,-0.64186525
2785323095718,5.7935524,8.092772,-0.6059399999999999
2785342952999,5.7911572,8.078402,-0.66342044
2785362810406,5.7959476,8.037686,-0.7089258
2785382667686,5.8390580000000005,8.059241,-0.6658155
2785402525095,5.7863674000000005,8.1071415,-0.68976563
2785422386670,5.738467,8.099956500000001,-0.6586304000000001
2785442244078,5.7312818,8.104747,-0.6466553
2785462101487,5.7863674000000005,8.104747,-0.7161109
2785481958894,5.8175025,8.090376,-0.6849755999999999
2785501821247,5.7911572,8.102350999999999,-0.68737066
2785521678784,5.7911572,8.085587,-0.6490503000000001
2785541536191,5.8175025,8.056846,-0.62031007
2785561393727,5.815108,8.047266,-0.6682104999999999
2785581251264,5.8438478,8.078402,-0.6346801999999999
2785601112339,5.855823,8.061636,-0.6586304000000001
2785620970003,5.8175025,8.032896000000001,-0.6322852
2785640827796,5.8175025,8.061636,-0.6562354
2785660685459,5.860613,8.085587,-0.6586304000000001
2785680543123,5.815108,8.076006,-0.6610254
2785700400788,5.7935524,8.061636,-0.6849755999999999
2785720262632,5.781577599999999,8.059241,-0.68976563
2785740120424,5.7983427,8.061636,-0.68737066
2785759978217,5.783972299999999,8.071216999999999,-0.7232959
2785779836008,5.7863674000000005,8.121511,-0.6706055000000001
2785799694524,5.7959476,8.138277,-0.6490503000000001
2785819552317,5.781577599999999,8.123906,-0.6610254
2785839410108,5.7719974999999994,8.078402,-0.70174074
2785859267900,5.7719974999999994,8.073611,-0.6945557
2785879125693,5.7983427,8.071216999999999,-0.6514453
2785898979565,5.841453,8.073611,-0.6825806
2785918837357,5.8198977,8.083191000000001,-0.6610254
2785938695022,5.7719974999999994,8.083191000000001,-0.7232959
2785958552813,5.7863674000000005,8.061636,-0.6682104999999999
2785978410477,5.829478,8.059241,-0.6777906
2785998268270,5.822293,8.092772,-0.7161109
2786018127298,5.7863674000000005,8.078402,-0.7113208000000001
2786037985090,5.7863674000000005,8.068821,-0.6610254
2786057842883,5.7911572,8.085587,-0.68018556
2786077700674,5.7983427,8.087981,-0.74724615
2786097558423,5.7911572,8.099956500000001,-0.7185059
2786117416216,5.7935524,8.097562,-0.6586304000000001
2786137274007,5.8342675999999996,8.032896000000001,-0.7089258
2786157128146,5.822293,8.061636,-0.69695073
2786176985939,5.7959476,8.102350999999999,-0.6993457
2786196837531,5.8055277,8.083191000000001,-0.7448511
2786216695195,5.7887626,8.076006,-0.7448511
2786236552860,5.7791824,8.087981,-0.71371585
2786256410523,5.807923000000001,8.085587,-0.7496411000000001
2786276268187,5.7983427,8.090376,-0.7376661
2786296125852,5.7648125,8.102350999999999,-0.7209009
2786315976889,5.7887626,8.087981,-0.7448511
2786335834425,5.807923000000001,8.078402,-0.7185059
2786355691962,5.8055277,8.092772,-0.7496411000000001
2786375549497,5.822293,8.066426,-0.69695073
2786395399821,5.846243,8.052056,-0.69695073
2786415257102,5.8342675999999996,8.037686,-0.728086
2786435114381,5.8198977,8.066426,-0.6825806
2786454971789,5.822293,8.071216999999999,-0.69695073
2786474829070,5.853428,8.056846,-0.69216067
2786494686349,5.8438478,8.025711,-0.7209009
2786514548194,5.8055277,8.071216999999999,-0.7711963000000001
2786534405603,5.7863674000000005,8.109536,-0.7161109
2786554263010,5.7719974999999994,8.104747,-0.77359134
2786574120418,5.7863674000000005,8.087981,-0.7544312
2786593977827,5.7696023,8.095166,-0.77359134
2786613833759,5.7983427,8.066426,-0.77359134
2786633691167,5.8103175,8.076006,-0.74724615
2786653548448,5.7911572,8.085587,-0.7376661
2786673405855,5.8007374,8.092772,-0.7424561
2786693265524,5.815108,8.087981,-0.7185059
2786713122933,5.8127127,8.059241,-0.73048097
2786732980340,5.831873000000001,8.044871,-0.7448511
2786752837748,5.824688,8.049661,-0.7448511
2786772695157,5.8007374,8.054451,-0.7544312
2786792552564,5.8103175,8.080796000000001,-0.70174074
2786812409417,5.807923000000001,8.102350999999999,-0.7568262
2786832266826,5.8390580000000005,8.066426,-0.7496411000000001
2786852124105,5.807923000000001,8.037686,-0.74006104
2786871981513,5.8270826,8.028106,-0.7592211999999999
2786891838922,5.8342675999999996,8.047266,-0.7424561
2786911691502,5.824688,8.085587,-0.7209009
2786931548782,5.8127127,8.080796000000001,-0.73048097
2786951406063,5.8198977,8.037686,-0.7807764
2786971263214,5.8270826,8.025711,-0.79035646
2786991120660,5.8270826,8.037686,-0.73527104
2787010977941,5.822293,8.056846,-0.728086
2787030835220,5.824688,8.071216999999999,-0.73527104
2787050692372,5.829478,8.052056,-0.7209009
2787070549653,5.831873000000001,8.047266,-0.71371585
2787090406932,5.855823,8.059241,-0.73048097
2787110263011,5.863008,8.037686,-0.76161623
2787130120292,5.836663,8.047266,-0.7424561
2787149977571,5.829478,8.049661,-0.7496411000000001
2787169834723,5.8270826,8.047266,-0.7448511
2787189692004,5.8390580000000005,8.054451,-0.73527104
2787209548326,5.8510327,8.025711,-0.7496411000000001
2787229405478,5.841453,8.032896000000001,-0.7783814
2787249262759,5.829478,8.042475999999999,-0.74724615
2787269119910,5.8175025,8.056846,-0.7496411000000001
2787288977324,5.829478,8.047266,-0.79035646
2787308834605,5.841453,8.035291,-0.7592211999999999
2787328691756,5.853428,8.011341,-0.7783814
2787348549036,5.877378,8.040080999999999,-0.81191164
2787368406189,5.8438478,8.037686,-0.79035646
2787388263468,5.8055277,8.071216999999999,-0.8047266
2787408127599,5.760022,8.087981,-0.79754156
2787427984880,5.7887626,8.083191000000001,-0.78556645
2787447842287,5.855823,8.056846,-0.7759864000000001
2787467699695,5.877378,8.037686,-0.7783814
2787487557104,5.824688,8.056846,-0.7807764
2787507416254,5.815108,8.0305,-0.77359134
2787527273662,5.841453,8.032896000000001,-0.728086
2787547131071,5.853428,8.040080999999999,-0.75203615
2787566988478,5.848637999999999,8.083191000000001,-0.7544312
2787586846904,5.831873000000001,8.056846,-0.7759864000000001
2787606704441,5.8390580000000005,8.028106,-0.80712163
2787626561848,5.803132499999999,8.064031,-0.7664063
2787646419256,5.8055277,8.047266,-0.7376661
2787666276793,5.8677983,8.049661,-0.79754156
2787686134200,5.913303400000001,8.023315,-0.76161623
2787705997702,5.901328599999999,7.980205499999999,-0.7664063
2787725855367,5.8510327,8.0305,-0.7879615
2787745712902,5.829478,8.071216999999999,-0.76880133
2787765570566,5.865403,8.020921000000001,-0.7759864000000001
2787785428231,5.886958,7.9897857000000005,-0.80712163
2787805285851,5.8845634,7.977810400000001,-0.7544312
2787825143515,5.8677983,8.049661,-0.79035646
2787845001052,5.848637999999999,8.097562,-0.8214916999999999
2787864858587,5.8127127,8.073611,-0.85023195
2787884716251,5.8055277,8.054451,-0.852627
2787904573788,5.8390580000000005,8.025711,-0.8214916999999999
2787924433737,5.858218,8.01613,-0.8143066999999999
2787944291401,5.870193,8.054451,-0.82388675
2787964149066,5.865403,8.020921000000001,-0.7951465
2787984006601,5.8893533,7.999366,-0.79993653
2788003868036,5.913303400000001,8.0017605,-0.76880133
2788023725701,5.870193,8.023315,-0.7831714
2788043583364,5.853428,8.032896000000001,-0.80233157
2788063441028,5.8917484,8.028106,-0.74724615
2788083298693,5.8893533,8.006551,-0.7783814
2788103161600,5.8845634,8.025711,-0.7664063
2788123019392,5.8677983,8.066426,-0.82388675
2788142877313,5.8270826,8.044871,-0.77359134
2788162735104,5.858218,8.023315,-0.7592211999999999
2788182590028,5.913303400000001,8.013736,-0.76401126
2788202447821,5.8917484,8.042475999999999,-0.7951465
2788222299005,5.860613,8.068821,-0.7927515
2788242156797,5.858218,8.020921000000001,-0.77359134
2788262014462,5.8438478,7.9873905,-0.8095166
2788281872253,5.8677983,7.9826,-0.7879615
2788301728003,5.886958,8.023315,-0.7664063
2788321585796,5.9061184,8.037686,-0.73527104
2788341443587,5.918093700000001,8.018526,-0.732876
2788361301251,5.920488400000001,7.9849954,-0.75203615
2788381159044,5.879773,7.9897857000000005,-0.7711963000000001
2788401016175,5.870193,8.008944999999999,-0.77359134
2788420873967,5.898933400000001,8.008944999999999,-0.7807764
2788440731760,5.886958,8.023315,-0.76161623
2788460589423,5.855823,8.040080999999999,-0.79035646
2788480447215,5.8725879999999995,8.042475999999999,-0.79993653
2788500305008,5.879773,8.035291,-0.79754156
2788520161275,5.848637999999999,8.047266,-0.7759864000000001
2788540018939,5.8438478,8.032896000000001,-0.7927515
2788559876732,5.865403,8.028106,-0.76401126
2788579734395,5.8725879999999995,8.0305,-0.79035646
2788599590236,5.8749833,8.025711,-0.7951465
2788619447901,5.8510327,8.01613,-0.7448511
2788639305564,5.858218,8.052056,-0.72569096
2788659163228,5.8677983,8.044871,-0.7783814
2788679020893,5.877378,8.044871,-0.7711963000000001
2788698873832,5.8677983,8.025711,-0.8047266
2788718731368,5.855823,8.020921000000001,-0.7664063
2788738588905,5.8438478,8.037686,-0.75203615
2788758446440,5.8438478,8.059241,-0.7831714
2788778303976,5.853428,8.042475999999999,-0.76401126
2788798161513,5.853428,8.037686,-0.79993653
2788818010478,5.822293,8.018526,-0.79035646
2788837867758,5.829478,8.056846,-0.728086
2788857725167,5.836663,8.076006,-0.8310718
2788877582574,5.858218,8.018526,-0.80233157
2788897433885,5.865403,8.032896000000001,-0.7807764
2788917291038,5.8390580000000005,8.044871,-0.7568262
2788937148189,5.824688,8.028106,-0.79035646
2788957005469,5.860613,8.008944999999999,-0.7927515
2788976862622,5.877378,8.020921000000001,-0.76880133
2788996719773,5.860613,8.013736,-0.7568262
2789016578686,5.870193,8.011341,-0.7711963000000001
2789036435967,5.8845634,8.01613,-0.7424561
2789056293118,5.8677983,8.0305,-0.80712163
2789076150398,5.8725879999999995,8.035291,-0.74006104
2789096007551,5.8845634,8.023315,-0.68976563
2789115863605,5.8821683,8.037686,-0.732876
2789135720757,5.858218,8.028106,-0.75203615
2789155577910,5.865403,7.9897857000000005,-0.732876
2789175435061,5.9228835,7.9706254,-0.7065308000000001
2789195298168,5.937253500000001,7.95865,-0.76880133
2789215155321,5.894143,8.0017605,-0.77359134
2789235012600,5.8821683,8.0017605,-0.7544312
2789254869880,5.9037232,7.980205499999999,-0.79993653
2789274727033,5.8725879999999995,8.040080999999999,-0.7783814
2789294584312,5.829478,8.018526,-0.83586186
2789314440024,5.858218,8.01613,-0.7759864000000001
2789334297177,5.910908,8.028106,-0.732876
2789354154456,5.9300685,8.023315,-0.7664063
2789374011608,5.920488400000001,7.9826,-0.7496411000000001
2789393868889,5.9061184,7.9538603000000005,-0.7568262
2789413732459,5.8821683,7.980205499999999,-0.732876
2789433589739,5.937253500000001,8.0017605,-0.8167017
2789453447148,5.9156985,8.025711,-0.79993653
2789473304427,5.853428,8.061636,-0.732876
2789493172429,5.865403,8.049661,-0.79035646
2789513029966,5.8821683,8.037686,-0.852627
2789532887501,5.841453,8.028106,-0.8382569
2789552745037,5.8198977,8.061636,-0.8478370000000001
2789572602574,5.8055277,8.087981,-0.87897223
2789592460109,5.803132499999999,8.076006,-0.89573735
2789612323746,5.8198977,8.087981,-0.9388476999999998
2789632181539,5.7911572,8.133486999999999,-0.98195803
2789652039202,5.781577599999999,8.128696000000001,-1.0202783000000002
2789671896994,5.767207,8.121511,-1.0490186000000001
2789691754659,5.762417299999999,8.1143265,-1.0250684
2789711620075,5.767207,8.1071415,-1.0442286
2789731477995,5.824688,8.068821,-1.0274634
2789751335916,5.860613,8.040080999999999,-1.0250684
2789771193835,5.822293,8.064031,-0.9915381
2789791046598,5.7959476,8.040080999999999,-1.0059083
2789810904519,5.7935524,7.9921803,-0.97956306
2789830762310,5.8007374,7.9634404000000005,-0.8861573
2789850620102,5.8127127,7.999366,-0.7568262
2789870478023,5.8007374,8.049661,-0.7185059
2789890335814,5.8390580000000005,7.9873905,-0.7161109
2789910190545,5.8438478,7.961045299999999,-0.6945557
2789930048338,5.858218,7.9826,-0.51732427
2789949906129,5.9468336,7.961045299999999,-0.51013917
2789969763921,5.944439,7.9849954,-0.64186525
2789989621714,5.7073317,8.104747,-0.6945557
2790009485966,5.561235400000001,8.159832000000002,-0.62749517
2790029343886,5.613926,8.095166,-0.44307864
2790049201807,5.8007374,8.061636,-0.39278322
2790069059726,6.0402393,7.9826,-0.4263135
2790088916451,6.231841,7.8844047,-0.34727785
2790108774372,6.437812999999999,7.8269243,-0.24908204
2790128632419,6.619834399999999,7.661668,-0.31135255
2790148490339,6.737190200000001,7.606582,-0.36883304
2790168348260,6.6294146,7.764653699999999,-0.33290774
2790188206179,6.2821364,7.9347,-0.26584718
2790208055018,6.0306597,8.061636,-0.2706372
2790227912811,5.925278700000001,8.123906,-0.2083667
2790247770730,5.745652,8.183782,-0.11017089999999999
2790267628650,5.669011599999999,8.255632,-0.16046631
2790287486443,5.934858999999999,8.119117,-0.4263135
2790307333433,6.303692,7.8269243,-0.8286768
2790327191097,6.310877,7.822133999999999,-0.96758795
2790347048762,5.956413700000001,8.0017605,-0.7927515
2790366906425,5.4247193,8.169412,-0.7065308000000001
2790386764089,5.130132,8.3250885,-0.6442603
2790406621754,5.166057599999999,8.349038,-0.6490503000000001
2790426477509,5.285808599999999,8.387359,-0.57719976
2790446335045,5.415139,8.377778999999999,-0.67539555
2790466192582,5.575606,8.329877999999999,-0.7089258
2790486050245,5.671406299999999,8.310719,-0.62031007
2790505903557,5.609136,8.274792999999999,-0.5724097
2790525760966,5.525310500000001,8.200547,-0.45505372
2790545618373,5.415139,8.241261999999999,-0.42391850000000003
2790565475781,5.350474,8.296348,-0.45744875
2790585333318,5.4223247,8.375383,-0.51492923
2790605181014,5.360054,8.416099,-0.5676197
2790625038294,5.312153299999999,8.413704,-0.5628295999999999
2790644895447,5.2810182999999995,8.406519,-0.5508545
2790664752726,5.2738333,8.432864,-0.48139894
2790684609878,5.276228400000001,8.401729,-0.34967285
2790704467159,5.2738333,8.387359,-0.45744875
2790724327211,5.252278,8.399334,-0.50774413
2790744184491,5.199587999999999,8.408914,-0.45744875
2790764041644,5.190007700000001,8.464,-0.364043
2790783898795,5.120552,8.514294999999999,-0.30177248
2790803748637,5.0487013,8.50711,-0.32332766
2790823605662,5.130132,8.5598,-0.30177248
2790843462685,5.120552,8.638836,-0.16525635
2790863319837,5.017566,8.610096,-0.11256592
2790883176862,4.967271,8.552615,-0.0047900393
2790903026967,4.9217653,8.452024,-0.17244141
2790922883863,4.940925599999999,8.4448395,-0.20597169
2790942740760,4.8714699999999995,8.581355,-0.102985844
2790962597527,4.8451247,8.794512,0.0
2790982454423,4.888235,8.964559,0.23471193
2791002311192,4.8020144,8.981323,0.35685793
2791022173975,4.7301636,8.983719,0.49097902
2791042030999,4.758904,8.832832000000002,0.6011499
2791061887896,5.134922,8.337064,0.41912845
2791081744791,5.623506,8.092772,0.13172609
2791101606660,5.7863674000000005,8.092772,0.28979737
2791121463685,5.688172,8.054451,0.5340894
2791141320836,5.582791,8.020921000000001,0.8310718
2791161177860,5.709727,7.927515,1.1783496
2791181034885,5.9324636,7.9706254,1.2813355
2791200893365,6.05461,7.9873905,1.1807446000000001
2791220750389,5.918093700000001,7.9921803,1.1735597
2791240607542,5.6594315,8.121511,1.1735597
2791260464565,5.637876,8.277188,1.2813355
2791280321589,5.5444703,8.234077000000001,1.2693603999999998
2791300178742,5.43909,8.104747,1.1328443000000001
2791320037313,5.415139,7.996970699999999,1.0777588
2791339894465,5.3145485,8.099956500000001,1.0370435
2791359751618,5.4055595,8.428074,1.101709
2791379608769,5.3552637,8.646021000000001,1.3124708
2791399466200,5.125342,8.485555,1.2525953
2791419323353,5.007986,8.365803999999999,1.214275
2791439180376,4.9217653,8.583751,1.5208374
2791459037528,4.840335,8.794512,1.8154249
2791478894681,5.029541,8.653205999999999,1.6334034
2791498751832,5.372029,8.485555,1.1999048
2791518614098,5.592371,8.459209,1.456172
2791538471251,5.592371,8.246053,1.7196240000000003
2791558328530,5.7935524,7.977810400000001,1.3915064
2791578185682,5.740862,7.879614999999999,1.0059083
2791598042963,5.1804276,8.054451,0.9915381
2791617907678,5.096602,8.313113000000001,1.2693603999999998
2791637765214,5.360054,8.406519,1.4944923
2791657622623,5.625901,8.372989,1.5280225
2791677480030,5.5588408,8.320298,1.4274316999999999
2791697345276,5.364844000000001,8.289163,1.3675561999999999
2791717202813,5.0510964000000005,8.384964,1.3172607
2791737060476,4.996011,8.57896,1.2813355
2791756918140,5.175637200000001,8.566985,1.2717555
2791776775805,5.350474,8.337064,1.2597803
2791796633468,5.4223247,8.174202000000001,1.2645704
2791816485616,5.4223247,8.157437,1.2837305
2791836343153,5.407954,8.2125225,1.2645704
2791856200688,5.407954,8.260423,1.1951148999999999
2791876058224,5.4247193,8.2125225,1.2166698999999999
2791895915761,5.3935843,8.171807000000001,1.3172607
2791915775405,5.3073635,8.181386999999999,1.3795313
2791935632941,5.4127445,8.344249000000001,1.4250367
2791955490478,5.4678297,8.399334,1.4202466
2791975348013,5.4462748,8.418494,1.4489869
2791995210487,5.326524,8.344249000000001,1.3986914
2792015068280,5.2594633,8.387359,1.331631
2792034925943,5.216353,8.459209,1.2717555
2792054783607,5.1468973,8.516689999999999,1.2310401000000002
2792074641272,5.122947,8.475974,1.2094848999999999
2792094498935,5.122947,8.449629,1.1783496
2792114356581,5.0774417000000005,8.413704,1.214275
2792134214374,5.101392,8.452024,1.2478052
2792154072037,5.1732426,8.452024,1.2597803
2792173929829,5.1804276,8.389753,1.2717555
2792193787494,5.1947975,8.368198,1.3124708
2792213631389,5.2355127,8.372989,1.346001
2792233488925,5.2929935,8.382568,1.3531861
2792253346462,5.2786230000000005,8.384964,1.3867163999999998
2792273203997,5.2786230000000005,8.396939,1.4202466
2792293059820,5.264253,8.291558,1.4274316999999999
2792312917485,5.254673,8.284373,1.4034815
2792332775020,5.223538,8.3322735,1.4418018
2792352632556,5.240303,8.406519,1.4609618999999998
2792372490093,5.2786230000000005,8.384964,1.4489869
2792392347756,5.237908,8.344249000000001,1.5304176
2792412189164,5.3217335,8.356223,1.5807129
2792432046317,5.4055595,8.217313,1.477727
2792451903596,5.455855000000001,8.152647,1.5423926000000001
2792471760748,5.508545,8.138277,1.590293
2792491617901,5.518125,8.171807000000001,1.585503
2792511476978,5.5061502,8.155042,1.5591576999999999
2792531334130,5.4869900000000005,8.234077000000001,1.5567628
2792551191283,5.470225,8.349038,1.5687379
2792571048434,5.362449,8.255632,1.5280225
2792590903635,5.3480787,8.234077000000001,1.5208374
2792610760788,5.367239,8.349038,1.583108
2792630617811,5.391189,8.339458,1.6214283
2792650474963,5.362449,8.176597000000001,1.5998731000000002
2792670332116,5.350474,8.157437,1.4968873
2792690189267,5.324128599999999,8.281978,1.4920973
2792710047321,5.3001785,8.361013,1.5711329
2792729904474,5.367239,8.370594,1.6238233
2792749761497,5.43909,8.428074,1.5807129
2792769618649,5.4271145,8.346642999999998,1.5495777
2792789475802,5.326524,8.162227,1.465752
2792809317640,5.1732426,8.1143265,1.4753321000000001
2792829174408,5.166057599999999,8.289163,1.6022681
2792849031177,5.269043,8.449629,1.6334034
2792868888072,5.319339,8.471185,1.6166383
2792888744840,5.345683999999999,8.284373,1.6214283
2792908601737,5.388794,8.059241,1.6022681
2792928461972,5.4055595,8.147857,1.6070582
2792948318740,5.345683999999999,8.341853,1.6022681
2792968175637,5.2786230000000005,8.394544,1.6070582
2792988032404,5.338498599999999,8.272397999999999,1.5567628
2793007894593,5.415139,8.224497999999999,1.587898
2793027751490,5.381609,8.229287,1.6214283
2793047608385,5.3935843,8.140672,1.6070582
2793067465281,5.4223247,8.071216999999999,1.5567628
2793087322050,5.4438796,8.040080999999999,1.6765138
2793107188001,5.568420400000001,8.042475999999999,1.7986598000000003
2793127045025,5.5875807,8.049661,1.8034497
2793146902050,5.5420755999999995,8.123906,1.7914747
2793166759201,5.525310500000001,8.147857,1.8369801
2793186616225,5.4893849999999995,8.104747,1.8920655
2793206473250,5.455855000000001,8.085587,1.9303858
2793226335856,5.4127445,8.121511,1.951941
2793246193008,5.43909,8.198153,1.9854711999999999
2793266050161,5.5516553,8.176597000000001,2.0022363999999997
2793285907312,5.494175,8.080796000000001,2.0118165
2793305772435,5.369634,8.020921000000001,2.088457
2793325629844,5.391189,8.047266,2.078877
2793345487123,5.4342995,8.104747,2.0429518
2793365344531,5.4055595,8.205338000000001,2.069297
2793385201812,5.360054,8.250843,2.0333717
2793405061724,5.367239,8.262817,1.9782863000000002
2793424919004,5.3408937000000005,8.164622,1.9351758999999997
2793444776413,5.381609,8.121511,1.9016455
2793464633820,5.391189,8.080796000000001,1.9040406000000003
2793484491228,5.3073635,8.109536,1.9208057
2793504348637,5.336104,8.250843,1.9040406000000003
2793524215522,5.3959794,8.298743,1.9064356
2793544073186,5.4510646,8.262817,1.9423609
2793563930851,5.4414845000000005,8.2197075,1.8968556
2793583788386,5.455855000000001,8.2125225,1.8633252
2793603646708,5.376819,8.121511,1.9184108
2793623504373,5.333709,8.087981,1.9471509999999999
2793643362164,5.372029,8.152647,1.9734962
2793663219828,5.407954,8.2125225,1.9615209999999998
2793683077621,5.374423999999999,8.258028,1.9902613
2793702940818,5.357659,8.272397999999999,2.0094216
2793722798738,5.364844000000001,8.2197075,1.9830762
2793742656531,5.345683999999999,8.238868,1.954336
2793762514450,5.326524,8.281978,1.949546
2793782372370,5.345683999999999,8.291558,1.8992506000000002
2793802230291,5.3217335,8.253238,1.8417700000000001
2793822082188,5.2882032,8.207732,1.8154249
2793841939980,5.264253,8.202942,1.8130298999999999
2793861797773,5.3001785,8.260423,1.8154249
2793881655564,5.324128599999999,8.310719,1.8010547
2793901517897,5.3097587,8.286767999999999,1.7483643
2793921375818,5.257068,8.284373,1.7220191000000002
2793941233737,5.2498830000000005,8.262817,1.7411792000000001
2793961091657,5.2594633,8.293953,1.7244141
2793980949578,5.2905984,8.339458,1.7148341
2794000807497,5.237908,8.327483,1.7028589
2794020666813,5.149292,8.255632,1.7028589
2794040524734,5.2043777,8.265213000000001,1.7531544
2794060382653,5.3097587,8.315508,1.7747096000000002
2794080240573,5.3289184999999994,8.301138,1.7603394
2794100098366,5.271438,8.2125225,1.7555493999999998
2794119957242,5.2810182999999995,8.119117,1.7938697000000001
2794139815290,5.3145485,8.095166,1.8369801
2794159673211,5.372029,8.109536,1.8513502
2794179531258,5.4271145,8.162227,1.8681153000000001
2794199381114,5.391189,8.258028,1.8992506000000002
2794219238907,5.3552637,8.310719,1.9112256999999997
2794239095113,5.2882032,8.301138,1.9208057
2794258952905,5.1828227,8.334667999999999,1.8920655
2794278810698,5.190007700000001,8.394544,1.8633252
2794298668617,5.1780324,8.380174,1.8609301999999999
2794318520661,5.163662400000001,8.286767999999999,1.8705102999999998
2794338378454,5.190007700000001,8.231683,1.8920655
2794358236117,5.2498830000000005,8.315508,1.8848804
2794378093909,5.2977834,8.430469500000001,1.8561403000000003
2794397951574,5.2738333,8.425678999999999,1.7914747
2794417792011,5.223538,8.274792999999999,1.7315991999999998
2794437649291,5.110972,8.188572,1.7579445
2794457506444,5.1684523,8.258028,1.7723145
2794477363723,5.283413400000001,8.404124000000001,1.7794994999999998
2794497216505,5.3217335,8.368198,1.7794994999999998
2794517073658,5.2594633,8.231683,1.7387843
2794536930809,5.2355127,8.176597000000001,1.7699194999999999
2794556787961,5.261858,8.205338000000001,1.7890796999999998
2794576645114,5.3432889999999995,8.183782,1.7244141
2794596502265,5.3552637,8.164622,1.6884888
2794616356357,5.336104,8.133486999999999,1.7459692999999998
2794636213510,5.350474,8.099956500000001,1.8202148999999999
2794656070533,5.398374,8.061636,1.8489552
2794675927557,5.4223247,8.104747,1.8800903999999998
2794695784582,5.4438796,8.174202000000001,1.9711011999999999
2794715646012,5.429509599999999,8.150250999999999,1.9758912
2794735503164,5.388794,8.126302,1.9974464
2794755360317,5.431904299999999,8.198153,2.1195923999999997
2794775217468,5.515730400000001,8.274792999999999,2.0669020000000002
2794795067476,5.470225,8.337064,1.9782863000000002
2794814924501,5.3097587,8.296348,1.9351758999999997
2794834781396,5.2187475999999995,8.246053,1.9327808999999998
2794854638420,5.233118,8.145462,1.9351758999999997
2794874495317,5.264253,8.073611,1.9615209999999998
2794894352340,5.295388,8.128696000000001,1.9878663
2794914211485,5.398374,8.305928,2.0381618
2794934068382,5.4223247,8.349038,1.9902613
2794953925405,5.391189,8.241261999999999,1.9184108
2794973782429,5.3408937000000005,8.145462,1.9016455
2794993639454,5.276228400000001,8.143066000000001,1.9327808999999998
2795013500663,5.245093,8.181386999999999,1.9232006999999998
2795033357687,5.2810182999999995,8.2125225,1.8800903999999998
2795053214712,5.352869,8.2125225,1.8537452
2795073071735,5.384004,8.2125225,1.8681153000000001
2795092929027,5.364844000000001,8.200547,1.8944606
2795112786052,5.362449,8.200547,1.9184108
2795132643075,5.3408937000000005,8.167017,1.9184108
2795152500227,5.324128599999999,8.138277,1.9040406000000003
2795172357252,5.336104,8.126302,1.9639161
2795192214403,5.362449,8.095166,2.0213966
2795212072804,5.4606447,8.095166,2.0381618
2795231929957,5.4989653,8.198153,2.074087
2795251786980,5.479805000000001,8.255632,2.1148024
2795271644004,5.3863993,8.183782,2.088457
2795291501029,5.3480787,8.085587,2.0285816000000003
2795311361532,5.3408937000000005,8.121511,2.0142113999999998
2795331218684,5.261858,8.171807000000001,2.0429518
2795351075837,5.3001785,8.190968,2.0453467
2795370932988,5.326524,8.164622,2.0213966
2795390790140,5.3432889999999995,8.178992,2.078877
2795410647293,5.364844000000001,8.2197075,2.0525317
2795430509026,5.333709,8.3179035,2.0213966
2795450366306,5.3289184999999994,8.281978,1.9758912
2795470223459,5.283413400000001,8.207732,1.9447558999999996
2795490080610,5.3001785,8.147857,1.9591261000000002
2795509946267,5.3480787,8.128696000000001,1.9854711999999999
2795529803548,5.3863993,8.140672,1.9471509999999999
2795549660955,5.369634,8.121511,1.9232006999999998
2795569518363,5.3432889999999995,8.131092,1.9351758999999997
2795589375772,5.271438,8.186177,1.9902613
2795609240449,5.336104,8.214917,2.0070264
2795629098113,5.362449,8.159832000000002,1.9639161
2795648955650,5.3480787,8.167017,1.9016455
2795668813313,5.333709,8.231683,1.9447558999999996
2795688670977,5.264253,8.286767999999999,1.9447558999999996
2795708528642,5.1971927,8.310719,1.9088306000000002
2795728391887,5.163662400000001,8.327483,1.8753004
2795748249679,5.125342,8.368198,1.8321900000000002
2795768107472,5.134922,8.387359,1.8321900000000002
2795787965263,5.144501999999999,8.392149,1.8537452
2795807817880,5.190007700000001,8.392149,1.8681153000000001
2795827675673,5.1708474,8.370594,1.8465601000000003
2795847533464,5.127737000000001,8.322693,1.8513502
2795867391128,5.2043777,8.277188,1.8585353
2795887248921,5.312153299999999,8.198153,1.8968556
2795907103067,5.357659,8.164622,1.9399658
2795926960731,5.338498599999999,8.167017,1.9926563999999998
2795946818396,5.360054,8.145462,2.0094216
2795966676187,5.3935843,8.133486999999999,1.9878663
2795986533851,5.379214299999999,8.159832000000002,1.9974464
2796006391516,5.362449,8.162227,2.0357666
2796026248935,5.364844000000001,8.121511,2.0405567
2796046106599,5.360054,8.1143265,2.0142113999999998
2796065964264,5.3289184999999994,8.169412,2.0573218
2796085821927,5.326524,8.190968,2.0573218
2796105679792,5.338498599999999,8.231683,2.0357666
2796125537457,5.3001785,8.253238,1.9950514
2796145395120,5.2594633,8.231683,1.9615209999999998
2796165252784,5.2882032,8.202942,1.9711011999999999
2796185110449,5.2905984,8.224497999999999,1.9878663
2796204957939,5.2786230000000005,8.2197075,1.9806811999999998
2796224815475,5.2786230000000005,8.2125225,2.0094216
2796244672884,5.3145485,8.229287,2.0573218
2796264526363,5.345683999999999,8.188572,2.0357666
2796284383771,5.338498599999999,8.157437,2.0261867
2796304241308,5.345683999999999,8.159832000000002,2.0309765
2796324095088,5.357659,8.169412,2.0549269
2796343952496,5.364844000000001,8.140672,2.0573218
2796363809905,5.364844000000001,8.104747,2.0333717
2796383667312,5.364844000000001,8.128696000000001,2.0573218
2796403522207,5.391189,8.116721,2.078877
2796423379488,5.400769,8.116721,2.047742
2796443236767,5.372029,8.138277,2.0525317
2796463094047,5.360054,8.159832000000002,2.0261867
2796482951328,5.372029,8.157437,2.0381618
2796502808607,5.388794,8.143066000000001,2.0453467
2796522670635,5.4271145,8.123906,2.0237916
2796542528044,5.419929499999999,8.176597000000001,2.0285816000000003
2796562385323,5.3935843,8.202942,2.0381618
2796582242731,5.398374,8.152647,2.0070264
2796602100012,5.400769,8.097562,1.9615209999999998
2796621950251,5.3552637,8.116721,1.9830762
2796641807531,5.3863993,8.150250999999999,2.0142113999999998
2796661664684,5.455855000000001,8.140672,1.9782863000000002
2796681521963,5.4534597,8.109536,1.951941
2796701376329,5.4223247,8.131092,1.9878663
2796721233482,5.4175344,8.131092,2.0190015
2796741090633,5.4223247,8.128696000000001,1.9782863000000002
2796760947657,5.4103494,8.140672,1.9567311
2796780804810,5.4271145,8.164622,1.9639161
2796800661961,5.4342995,8.169412,1.9734962
2796820517071,5.4342995,8.135881,1.9447558999999996
2796840374224,5.4247193,8.135881,1.9184108
2796860231247,5.4247193,8.131092,1.9279908
2796880088271,5.429509599999999,8.128696000000001,1.9136206999999998
2796899945296,5.419929499999999,8.131092,1.9471509999999999
2796919801960,5.4510646,8.178992,1.954336
2796939658856,5.4486694,8.190968,1.9375708999999999
2796959515881,5.407954,8.162227,1.9208057
2796979372904,5.381609,8.159832000000002,1.9303858
2796999233525,5.4175344,8.140672,1.9303858
2797019090550,5.4438796,8.131092,1.9447558999999996
2797038947701,5.4438796,8.143066000000001,1.9375708999999999
2797058804725,5.470225,8.164622,1.9567311
2797078661878,5.4247193,8.167017,1.9327808999999998
2797098518901,5.391189,8.152647,1.9351758999999997
2797118378747,5.369634,8.159832000000002,1.9351758999999997
2797138235900,5.372029,8.171807000000001,1.9160157
2797158093051,5.384004,8.162227,1.9423609
2797177950203,5.407954,8.162227,1.9734962
2797197807356,5.4534597,8.133486999999999,1.9854711999999999
2797217669895,5.4462748,8.140672,1.954336
2797237527175,5.4247193,8.147857,1.951941
2797257384456,5.4175344,8.123906,1.9854711999999999
2797277241735,5.4414845000000005,8.099956500000001,2.0022363999999997
2797297100868,5.429509599999999,8.123906,1.9878663
2797316958149,5.4271145,8.229287,2.0309765
2797336815556,5.4822,8.267608000000001,2.0501368
2797356672964,5.494175,8.167017,2.0309765
2797376530245,5.376819,8.066426,1.9806811999999998
2797396387652,5.3001785,8.159832000000002,1.9950514
2797416242433,5.2905984,8.178992,2.0046315
2797436099714,5.223538,8.167017,1.9782863000000002
2797455957121,5.319339,8.198153,2.0309765
2797475814401,5.398374,8.164622,2.0405567
2797495671682,5.400769,8.150250999999999,2.0549269
2797515537950,5.376819,8.147857,2.0525317
2797535395358,5.360054,8.145462,2.0381618
2797555252767,5.3480787,8.126302,2.076482
2797575110302,5.326524,8.135881,2.1052222
2797594967655,5.3863993,8.135881,2.1124072
2797614825192,5.4175344,8.1071415,2.0621118999999997
2797634682727,5.400769,8.109536,2.0573218
2797654540263,5.336104,8.143066000000001,2.0716919999999996
2797674397672,5.312153299999999,8.190968,2.088457
2797694255207,5.3049684,8.152647,2.1124072
2797714117692,5.369634,8.109536,2.1004322
2797733975357,5.407954,8.150250999999999,2.1195923999999997
2797753833020,5.369634,8.174202000000001,2.095642
2797773690684,5.3145485,8.157437,2.0980372000000003
2797793548349,5.324128599999999,8.164622,2.1267774
2797813397704,5.3217335,8.164622,2.1363575
2797833255112,5.276228400000001,8.202942,2.1219873
2797853112521,5.269043,8.226892,2.1124072
2797872970056,5.3073635,8.190968,2.1315675
2797892827464,5.326524,8.150250999999999,2.1124072
2797912685001,5.3552637,8.131092,2.1243825000000003
2797932542426,5.357659,8.1071415,2.1124072
2797952399834,5.333709,8.133486999999999,2.0836669999999997
2797972257243,5.324128599999999,8.162227,2.1028273
2797992114650,5.333709,8.164622,2.1243825000000003
2798011980080,5.367239,8.159832000000002,2.1698877999999997
2798031837745,5.398374,8.198153,2.1746778
2798051695280,5.350474,8.222102,2.1627028
2798071552944,5.285808599999999,8.143066000000001,2.0836669999999997
2798091410481,5.271438,8.121511,2.0501368
2798111271294,5.283413400000001,8.162227,2.1052222
2798131129086,5.2977834,8.202942,2.1411476
2798150986879,5.3001785,8.205338000000001,2.1148024
2798170844542,5.3313136,8.205338000000001,2.0860621999999998
2798190702334,5.3001785,8.188572,2.0429518
2798210560127,5.252278,8.174202000000001,2.0429518
2798230368400,5.269043,8.152647,2.0621118999999997
2798250225539,5.3145485,8.167017,2.0932472
2798270082308,5.326524,8.217313,2.1052222
2798289939203,5.324128599999999,8.195757,2.059717
2798309792306,5.3073635,8.157437,2.064507
2798329648947,5.326524,8.171807000000001,2.074087
2798349505586,5.3001785,8.183782,2.064507
2798369362354,5.271438,8.178992,2.0501368
2798389218995,5.319339,8.195757,2.0381618
2798409075183,5.324128599999999,8.202942,2.069297
2798428931695,5.2882032,8.181386999999999,2.069297
2798448788336,5.312153299999999,8.169412,2.074087
2798468644975,5.333709,8.164622,2.059717
2798488501487,5.3073635,8.181386999999999,2.0357666
2798508358128,5.283413400000001,8.190968,2.0716919999999996
2798528225543,5.3313136,8.200547,2.1124072
2798548082183,5.336104,8.214917,2.0549269
2798567938952,5.240303,8.217313,1.9974464
2798587795719,5.216353,8.236472000000001,2.0429518
2798607635115,5.257068,8.250843,2.0453467
2798627491500,5.2666483,8.241261999999999,2.0190015
2798647347883,5.269043,8.222102,2.0070264
2798667204267,5.2810182999999995,8.238868,2.0118165
2798687060524,5.2905984,8.246053,2.0190015
2798706923307,5.2905984,8.205338000000001,2.0094216
2798726779691,5.316943599999999,8.167017,2.0381618
2798746636204,5.3049684,8.190968,1.9878663
2798766492587,5.2786230000000005,8.214917,1.9782863000000002
2798786348971,5.276228400000001,8.229287,1.9950514
2798806205484,5.285808599999999,8.224497999999999,1.9830762
2798826075080,5.3025737,8.241261999999999,2.0094216
2798845931720,5.2738333,8.214917,1.9711011999999999
2798865788361,5.252278,8.2197075,1.9471509999999999
2798885645000,5.2498830000000005,8.265213000000001,1.9447558999999996
2798905511916,5.271438,8.243657,1.9758912
2798925368685,5.2977834,8.2125225,1.9854711999999999
2798945225580,5.3097587,8.229287,1.9711011999999999
2798965082348,5.283413400000001,8.234077000000001,1.951941
2798984939245,5.2355127,8.207732,1.9639161
2799004796012,5.261858,8.217313,1.9734962
2799024666665,5.3217335,8.234077000000001,1.9902613
2799044523818,5.3289184999999994,8.231683,1.9830762
2799064380841,5.3073635,8.229287,1.9734962
2799084237865,5.2882032,8.202942,1.9734962
2799104094890,5.2929935,8.198153,1.954336
2799123963134,5.364844000000001,8.210127,1.9711011999999999
2799143820542,5.3217335,8.150250999999999,1.9615209999999998
2799163677823,5.376819,8.123906,1.9782863000000002
2799183535230,5.379214299999999,8.140672,2.0022363999999997
2799203398044,5.391189,8.135881,1.9974464
2799223255581,5.3935843,8.119117,2.0237916
2799243113116,5.3863993,8.138277,2.0213966
2799262970652,5.364844000000001,8.178992,2.0094216
2799282828189,5.3959794,8.150250999999999,2.0046315
2799302685724,5.429509599999999,8.140672,2.0142113999999998
2799322548185,5.3959794,8.143066000000001,2.0237916
2799342405850,5.352869,8.202942,2.0094216
2799362263641,5.357659,8.238868,2.0429518
2799382121305,5.364844000000001,8.155042,2.0261867
2799401978970,5.357659,8.183782,2.0525317
2799421838822,5.3935843,8.236472000000001,2.0213966
2799441696614,5.357659,8.200547,2.0046315
2799461554407,5.3552637,8.147857,1.9926563999999998
2799481412198,5.4247193,8.147857,2.0333717
2799501281212,5.4678297,8.157437,2.0213966
2799521139389,5.4750147,8.145462,1.9734962
2799540997436,5.470225,8.128696000000001,2.0046315
2799560855612,5.50136,8.071216999999999,2.0333717
2799580713661,5.4271145,8.061636,1.9782863000000002
2799600571836,5.391189,8.123906,1.9974464
2799620433724,5.407954,8.140672,2.0309765
2799640292157,5.5061502,8.087981,2.0261867
2799660150460,5.5588408,8.076006,2.0190015
2799680008892,5.5301003,8.066426,2.0022363999999997
2799699867325,5.4869900000000005,8.080796000000001,1.9591261000000002
2799719731766,5.43909,8.152647,1.9375708999999999
2799739590454,5.362449,8.186177,1.9112256999999997
2799759449143,5.3073635,8.193361999999999,1.9399658
2799779307830,5.350474,8.181386999999999,1.9758912
2799799146861,5.350474,8.217313,1.9423609
2799819004910,5.295388,8.272397999999999,1.8944606
2799838862957,5.2498830000000005,8.270002,1.8824854
2799858720877,5.316943599999999,8.224497999999999,1.9687061000000001
2799878578926,5.4103494,8.157437,1.9950514
2799898436845,5.4103494,8.126302,1.9902613
2799918287774,5.4055595,8.155042,1.9687061000000001
2799938145567,5.391189,8.143066000000001,1.9639161
2799958003358,5.415139,8.147857,1.9950514
2799977861278,5.4031644,8.150250999999999,2.0381618
2799997719071,5.3313136,8.157437,2.0237916
2800017579190,5.3432889999999995,8.126302,1.9974464
2800037437110,5.376819,8.1071415,2.0285816000000003
2800057294903,5.4055595,8.140672,2.0573218
2800077152822,5.4534597,8.128696000000001,2.1195923999999997
2800097010058,5.4582496,8.1143265,2.1171973
2800116867979,5.391189,8.109536,2.0429518
2800136726026,5.3959794,8.032896000000001,2.0621118999999997
2800156583946,5.49178,8.040080999999999,2.1627028
2800176441867,5.513335,8.068821,2.1818627999999998
2800196299786,5.4678297,8.102350999999999,2.1483326000000003
2800216142317,5.4055595,8.092772,2.069297
2800235999726,5.374423999999999,8.035291,2.095642
2800255857261,5.419929499999999,8.028106,2.191443
2800275718035,5.4271145,8.042475999999999,2.215393
2800295575444,5.3959794,8.111932000000001,2.1459377
2800315421232,5.400769,8.102350999999999,2.1291726000000004
2800335278384,5.4534597,8.0305,2.179468
2800355135537,5.527705,8.025711,2.198628
2800374992688,5.5540504,8.064031,2.2321582
2800394840264,5.5444703,8.087981,2.1842580000000003
2800414697289,5.4869900000000005,8.085587,2.1435425
2800434554184,5.4103494,8.083191000000001,2.1627028
2800454411208,5.369634,8.123906,2.1004322
2800474268105,5.3935843,8.181386999999999,2.059717
2800494125128,5.4031644,8.186177,2.0357666
2800513982396,5.398374,8.145462,2.0453467
2800533839421,5.4438796,8.083191000000001,2.0525317
2800553696316,5.4750147,8.073611,2.0405567
2800573553340,5.4822,8.109536,2.0405567
2800593410237,5.4869900000000005,8.104747,2.0429518
2800613269715,5.5324955000000005,8.066426,2.0142113999999998
2800633126739,5.508545,8.064031,1.9854711999999999
2800652983764,5.479805000000001,7.999366,1.9471509999999999
2800672840787,5.4271145,7.9706254,1.9471509999999999
2800692697811,5.362449,8.037686,1.9471509999999999
2800712554836,5.384004,8.178992,1.9112256999999997
2800732410347,5.429509599999999,8.267608000000001,1.9375708999999999
2800752267243,5.336104,8.308323,1.9711011999999999
2800772124268,5.2498830000000005,8.368198,1.9615209999999998
2800791981291,5.233118,8.313113000000001,2.0118165
2800811834443,5.216353,8.171807000000001,2.074087
2800831691340,5.3049684,8.116721,2.1435425
2800851548235,5.513335,8.135881,2.1866529999999997
2800871405003,5.621111,8.133486999999999,2.1243825000000003
2800891261900,5.621111,8.049661,2.064507
2800911122312,5.669011599999999,7.9538603000000005,2.0812721
2800930979208,5.6809864,7.905959599999999,2.0716919999999996
2800950836105,5.599556,7.9921803,1.9758912
2800970693000,5.47741,8.128696000000001,1.951941
2800990549896,5.4462748,8.135881,2.0142113999999998
2801010406793,5.50136,8.052056,2.0501368
2801030275305,5.4606447,8.097562,2.0261867
2801050132457,5.374423999999999,8.176597000000001,1.9711011999999999
2801069989482,5.3552637,8.116721,1.9567311
2801089846633,5.376819,8.083191000000001,2.0166066000000002
2801109710130,5.4822,8.186177,2.1363575
2801129567283,5.5061502,8.270002,2.1459377
2801149424562,5.431904299999999,8.210127,2.0621118999999997
2801169281842,5.369634,8.152647,2.0932472
2801189139123,5.431904299999999,8.099956500000001,2.1291726000000004
2801208995140,5.5780005,8.049661,2.0669020000000002
2801228852420,5.6738014,7.9826,2.0429518
2801248709573,5.728887,7.973020599999999,2.047742
2801268566852,5.7073317,7.932305,2.0285816000000003
2801288424004,5.7312818,7.8269243,2.0285816000000003
2801308281285,5.6857767,7.810159,1.9399658
2801328135527,5.6426663,7.9083548,1.9040406000000003
2801347992679,5.5875807,7.956255400000001,1.8609301999999999
2801367849960,5.5516553,7.994575500000001,1.8130298999999999
2801387707111,5.5420755999999995,8.020921000000001,1.8034497
2801407569285,5.513335,8.128696000000001,1.7890796999999998
2801427426566,5.47262,8.183782,1.7747096000000002
2801447283845,5.484595,8.190968,1.7938697000000001
2801467141125,5.47741,8.157437,1.7962648
2801486998534,5.360054,8.195757,1.705254
2801506865370,5.2738333,8.265213000000001,1.6525636000000001
2801526722906,5.3552637,8.270002,1.7268091
2801546580443,5.455855000000001,8.2197075,1.8154249
2801566437850,5.4271145,8.188572,1.7603394
2801586295386,5.381609,8.193361999999999,1.7172291000000002
2801606152923,5.4103494,8.210127,1.7220191000000002
2801626016358,5.4510646,8.281978,1.6956740000000001
2801645874022,5.400769,8.305928,1.6932789000000001
2801665731815,5.345683999999999,8.3179035,1.710044
2801685589478,5.264253,8.346642999999998,1.6501685000000001
2801705454639,5.120552,8.408914,1.4609618999999998
2801725312560,5.0774417000000005,8.447234,1.3603711
2801745170479,5.1157618,8.49274,1.3244458000000001
2801765028399,5.0654664,8.47837,1.3579761000000001
2801784886320,4.9552955999999995,8.315508,1.4489869
2801804744239,5.039121,8.274792999999999,1.585503
2801824605333,5.369634,8.281978,1.8824854
2801844463382,5.709727,8.248447,2.090852
2801864321429,5.910908,8.131092,2.1052222
2801884179477,5.9707837,8.066426,1.9902613
2801904037526,5.721702,8.0017605,1.7483643
2801923892214,5.513335,8.1143265,1.5088624
2801943750134,5.4223247,8.171807000000001,1.4465919
2801963608183,5.415139,8.167017,1.3986914
2801983466102,5.357659,8.267608000000001,1.4082716
2802003324619,5.2498830000000005,8.408914,1.5088624
2802023182540,5.142107,8.466394000000001,1.5136524
2802043040459,5.110972,8.449629,1.4274316999999999
2802062898507,5.094207,8.480764,1.3268408999999999
2802082756428,5.118157,8.50711,1.2549903
2802102614347,5.072651400000001,8.47837,1.3100758
2802122469024,5.017566,8.50711,1.3603711
2802142326945,5.0918117,8.497530000000001,1.3196558
2802162184864,5.1947975,8.49274,1.22146
2802182042784,5.242698000000001,8.49274,1.1496094
2802201900577,5.1468973,8.440049,0.9484278
2802221747798,4.9241605,8.361013,0.8669971
2802241605462,4.90979,8.4448395,0.8981324
2802261463127,5.0678616,8.459209,0.9915381
2802281320790,4.988826,8.5119,0.90052736
2802301164819,4.993616,8.57896,0.7592211999999999
2802321022356,4.9433207999999995,8.595725,0.7185059
2802340879763,4.86189,8.600515,0.77359134
2802360737171,4.847519999999999,8.614885000000001,0.74006104
2802380594708,4.89542,8.605306,0.7232959
2802400452115,4.87626,8.57896,0.76401126
2802420302361,4.8666797,8.710687,0.7065308000000001
2802440159642,4.974456,8.737032000000001,0.69216067
2802460016921,5.1157618,8.452024,0.6849755999999999
2802479874073,5.175637200000001,8.368198,0.5412744
2802499731354,5.0846267,8.430469500000001,0.6610254
2802519588462,5.031936,8.602911,0.7783814
2802539445742,5.010381,8.638836,0.6562354
2802559302895,4.9529004,8.586145,0.50774413
2802579160046,4.9145803,8.523875,0.59156984
2802599018027,4.905,8.624466,0.6945557
2802618875308,4.9073954,8.681946,0.64186525
2802638732587,4.849914599999999,8.602911,0.5963599
2802658589867,4.842729599999999,8.619676,0.60833496
2802678447148,4.8451247,8.684341,0.62031007
2802698304427,4.90979,8.679551,0.7209009
2802718159714,4.905,8.646021000000001,0.62989014
2802738016867,4.996011,8.660391,0.55803955
2802757874146,4.9289502999999995,8.583751,0.60354495
2802777731298,4.912185,8.684341,0.6777906
2802797588579,4.8978150000000005,8.665181,0.69695073
2802817436770,4.902605,8.681946,0.51971924
2802837293666,4.9313455,8.555010000000001,0.51971924
2802857150691,5.012776000000001,8.5119,0.59156984
2802877007714,5.027146299999999,8.547825,0.48618898
2802896864738,5.0367265,8.634046000000001,0.5508545
2802916721763,5.010381,8.56938,0.5628295999999999
2802936573928,4.91937,8.605306,0.42391850000000003
2802956430824,4.912185,8.602911,0.4167334
2802976287593,4.9073954,8.679551,0.40954837
2802996144360,4.9385304,8.669971,0.51013917
2803016006638,4.993616,8.562195,0.48139894
2803035863535,4.9696655,8.626861,0.2945874
2803055720302,4.86189,8.655600999999999,0.3065625
2803075577198,4.854705,8.653205999999999,0.39996827
2803095434095,4.8594947,8.677156,0.35685793
2803115293768,4.8978150000000005,8.689131,0.40715334
2803135150792,4.9289502999999995,8.636441,0.35685793
2803155007689,4.9313455,8.619676,0.29698244
2803174864584,4.8834453,8.681946,0.28740236
2803194721608,4.8571,8.653205999999999,0.3161426
2803214578505,4.912185,8.617281,0.35685793
2803234429274,4.893025,8.691526,0.34009278
2803254286170,4.847519999999999,8.722662,0.30416748
2803274142939,4.82357,8.696317,0.26105714
2803293999706,4.8044095,8.626861,0.23710695
2803313862380,4.8714699999999995,8.643626,0.3305127
2803333719277,4.8906302,8.708291000000001,0.366438
2803353576172,4.847519999999999,8.737032000000001,0.32093263
2803373433196,4.849914599999999,8.732242,0.2682422
2803393290093,4.8666797,8.701106,0.39278322
2803413149779,4.940925599999999,8.641231,0.39517823
2803433006803,4.976851,8.58854,0.30177248
2803452863700,4.996011,8.583751,0.26584718
2803472720723,4.9576907,8.703502,0.2706372
2803492577747,4.87626,8.681946,0.33290774
2803512434772,4.9169754999999995,8.576566,0.36164796
2803532302140,5.000801,8.555010000000001,0.28261232
2803552159292,5.0031962,8.614885000000001,0.22752686
2803572016573,4.988826,8.657996,0.28261232
2803591873724,5.027146299999999,8.57896,0.3065625
2803611740231,5.024751,8.514294999999999,0.21076173
2803631597640,5.000801,8.590936,0.27303225
2803651455175,4.91937,8.653205999999999,0.22752686
2803671312583,4.86189,8.672366,0.22034179999999998
2803691170120,4.8666797,8.653205999999999,0.2083667
2803711034707,4.960086,8.638836,0.2778223
2803730892371,4.988826,8.650811000000001,0.28261232
2803750750036,5.005591000000001,8.617281,0.26345217
2803770607699,5.010381,8.557405000000001,0.25387207
2803790465363,4.9624805,8.538245,0.2682422
2803810323156,4.9624805,8.624466,0.30416748
2803830171865,4.984036,8.689131,0.2706372
2803850029401,4.9576907,8.684341,0.25866213
2803869886938,4.967271,8.622069999999999,0.26105714
2803889744345,4.9552955999999995,8.646021000000001,0.21555176
2803909603014,4.9289502999999995,8.657996,0.21315674
2803929460423,4.9505057,8.610096,0.21555176
2803949317958,4.986430599999999,8.562195,0.22273682
2803969175494,4.967271,8.600515,0.22992188
2803989032903,4.9576907,8.674761,0.2706372
2804008890438,4.9457154,8.657996,0.25866213
2804028758738,4.960086,8.638836,0.20357667
2804048616531,4.9217653,8.641231,0.22992188
2804068474194,4.888235,8.619676,0.26105714
2804088331986,4.9792457,8.58854,0.26345217
2804108189651,5.0439115,8.571775,0.23710695
2804128042852,5.019961400000001,8.564589999999999,0.244292
2804147900516,4.988826,8.648416000000001,0.25387207
2804167758181,4.9433207999999995,8.677156,0.27542725
2804187615844,4.88584,8.629255,0.25147706
2804207466028,4.90979,8.665181,0.24908204
2804227323565,4.9505057,8.660391,0.28979737
2804247181100,4.967271,8.598121,0.28261232
2804267038636,4.996011,8.605306,0.28261232
2804286896173,5.024751,8.581355,0.29698244
2804306752067,5.0439115,8.547825,0.2921924
2804326608542,5.0439115,8.54543,0.37601808
2804346466079,5.0463059999999995,8.555010000000001,0.32093263
2804366323614,5.0774417000000005,8.538245,0.28261232
2804386181150,5.113367,8.533455,0.40715334
2804406038687,5.1061816,8.557405000000001,0.43349856
2804425890830,5.0918117,8.54064,0.3544629
2804445748238,5.0702567,8.54543,0.32572266
2804465605647,5.0510964000000005,8.57417,0.31374758
2804485463054,5.019961400000001,8.595725,0.3784131
2804505315209,5.0487013,8.581355,0.39757326
2804525172490,5.0463059999999995,8.571775,0.2921924
2804545029769,5.0630717,8.56938,0.32093263
2804564887049,5.0367265,8.5598,0.3305127
2804584744330,5.039121,8.533455,0.34009278
2804604601609,5.079837,8.54543,0.3161426
2804624459235,5.0678616,8.600515,0.3305127
2804644316644,5.1061816,8.571775,0.366438
2804664173923,5.134922,8.514294999999999,0.32572266
2804684031203,5.087022,8.538245,0.3520679
2804703888612,5.0367265,8.586145,0.3281177
2804723747390,5.0918117,8.595725,0.3544629
2804743604670,5.120552,8.54064,0.28500733
2804763461951,5.1061816,8.49274,0.29937744
2804783319358,5.125342,8.528665,0.33290774
2804803154244,5.130132,8.602911,0.31853762
2804823011013,5.1157618,8.5598,0.25147706
2804842867908,5.110972,8.53106,0.21794678
2804862724676,5.0894165000000005,8.499925,0.2778223
2804882581445,5.110972,8.499925,0.28261232
2804902438212,5.130132,8.516689999999999,0.28979737
2804922296650,5.1540823,8.53106,0.34009278
2804942153419,5.130132,8.5119,0.3161426
2804962010186,5.185217400000001,8.52627,0.26105714
2804981866954,5.144501999999999,8.54543,0.30895755
2805001723723,5.125342,8.538245,0.28740236
2805021579807,5.144501999999999,8.519085,0.25387207
2805041436575,5.1468973,8.50711,0.21076173
2805061293216,5.125342,8.47837,0.28500733
2805081149983,5.142107,8.52627,0.30177248
2805101009585,5.118157,8.54543,0.31135255
2805120866354,5.101392,8.519085,0.1820215
2805140723121,5.1468973,8.487949,0.24668702
2805160579889,5.1732426,8.49274,0.37122804
2805180436658,5.230723,8.499925,0.31374758
2805200293425,5.206773,8.495134,0.27303225
2805220160188,5.185217400000001,8.495134,0.2562671
2805240017085,5.190007700000001,8.5119,0.22273682
2805259874108,5.1061816,8.54064,0.20118165
2805279731004,5.079837,8.5430355,0.23950197
2805299587901,5.125342,8.5119,0.22034179999999998
2805319450868,5.118157,8.547825,0.17962648
2805339307892,5.087022,8.5598,0.21794678
2805359165045,5.113367,8.519085,0.23950197
2805379022196,5.1708474,8.547825,0.26345217
2805398879220,5.158872,8.552615,0.23231691
2805418736373,5.110972,8.516689999999999,0.24189699
2805438581643,5.151687,8.475974,0.2921924
2805458438539,5.233118,8.430469500000001,0.3161426
2805478295308,5.254673,8.47837,0.3065625
2805498152203,5.1971927,8.53106,0.2921924
2805518016062,5.149292,8.53585,0.29698244
2805537872959,5.163662400000001,8.495134,0.34967285
2805557729982,5.1947975,8.468789,0.3305127
2805577587006,5.1876125,8.449629,0.3305127
2805597443903,5.206773,8.47837,0.32332766
2805617307679,5.216353,8.495134,0.30177248
2805637164959,5.1804276,8.514294999999999,0.31135255
2805657022112,5.1540823,8.533455,0.27542725
2805676879391,5.1708474,8.52148,0.35685793
2805696736671,5.1971927,8.466394000000001,0.32572266
2805716593824,5.242698000000001,8.430469500000001,0.2802173
2805736452608,5.221143,8.487949,0.32093263
2805756309888,5.166057599999999,8.509504,0.34967285
2805776167169,5.1540823,8.497530000000001,0.35685793
2805796024448,5.1732426,8.456814999999999,0.41194338
2805815878979,5.1971927,8.480764,0.40715334
2805835736132,5.1971927,8.495134,0.35685793
2805855593283,5.2043777,8.456814999999999,0.3161426
2805875450563,5.199587999999999,8.475974,0.32093263
2805895307716,5.190007700000001,8.5119,0.3305127
2805915175448,5.151687,8.53585,0.37362307
2805935032856,5.175637200000001,8.52627,0.34727785
2805954890265,5.1828227,8.502319,0.2945874
2805974747672,5.1780324,8.52148,0.32572266
2805994605080,5.158872,8.57417,0.3281177
2806014462489,5.0702567,8.58854,0.27542725
2806034325930,5.0367265,8.5598,0.33769777
2806054183594,5.1397123,8.464,0.37122804
2806074041131,5.237908,8.452024,0.37601808
2806093898666,5.254673,8.47837,0.34009278
2806113756903,5.1804276,8.52148,0.33769777
2806133614440,5.134922,8.547825,0.26584718
2806153472103,5.0989965999999995,8.514294999999999,0.29937744
2806173329639,5.0774417000000005,8.50711,0.42870852
2806193187176,5.149292,8.468789,0.4023633
2806213044278,5.213958,8.528665,0.31135255
2806232901814,5.221143,8.617281,0.17483643
2806252759479,5.0989965999999995,8.622069999999999,0.023950197000000003
2806272617142,4.90979,8.57896,0.09580079
2806292474678,4.9217653,8.516689999999999,0.23710695
2806312332343,5.158872,8.459209,0.24189699
2806332184392,5.345683999999999,8.528665,0.23471193
2806352042056,5.2738333,8.552615,0.1580713
2806371899593,5.0750465,8.57417,0.23950197
2806391757256,5.0487013,8.59333,0.4766089
2806411603101,5.0678616,8.595725,0.6346801999999999
2806431460382,5.134922,8.509504,0.6706055000000001
2806451317661,5.254673,8.382568,0.6442603
2806471174813,5.324128599999999,8.384964,0.6777906
2806491032094,5.362449,8.454419,0.76880133
2806510889373,5.333709,8.447234,0.80712163
2806530750115,5.245093,8.356223,0.87418216
2806550607396,5.158872,8.281978,0.977168
2806570464803,5.0846267,8.305928,0.9268726
2806590322083,5.101392,8.54064,0.9316626
2806610179364,5.127737000000001,8.760982,0.9388476999999998
2806630029688,5.0822315,8.660391,0.97956306
2806649886840,5.122947,8.47837,1.0226734
2806669744121,5.110972,8.47837,0.9987232
2806689601272,5.0534916,8.499925,0.7759864000000001
2806709456333,5.0750465,8.341853,0.69216067
2806729313358,5.230723,8.375383,0.6993457
2806749170509,5.3289184999999994,8.564589999999999,0.7041358
2806769027661,5.2882032,8.571775,0.7879615
2806788884686,5.206773,8.47837,0.7759864000000001
2806808741837,5.2043777,8.423283999999999,0.7232959
2806828596289,5.1732426,8.425678999999999,0.68018556
2806848453314,5.0678616,8.552615,0.7664063
2806868310465,4.986430599999999,8.586145,0.9436377
2806888167489,5.027146299999999,8.516689999999999,0.9915381
2806908024642,5.2187475999999995,8.466394000000001,1.0514137
2806927882250,5.367239,8.411309,1.1304493
2806947739402,5.4271145,8.339458,1.1112891000000003
2806967596555,5.362449,8.344249000000001,1.1927198
2806987453578,5.338498599999999,8.3322735,1.2957056999999998
2807007310829,5.3408937000000005,8.341853,1.1855347
2807027167854,5.276228400000001,8.344249000000001,1.1400293
2807047024877,5.213958,8.442444,1.2286451
2807066881773,5.271438,8.432864,1.2573853000000002
2807086738798,5.326524,8.339458,1.214275
2807106595821,5.326524,8.255632,1.2430152
2807126458209,5.3313136,8.260423,1.3028906999999998
2807146315362,5.338498599999999,8.327483,1.2573853000000002
2807166172385,5.3552637,8.394544,1.2166698999999999
2807186029537,5.2977834,8.353828,1.22146
2807205886690,5.2187475999999995,8.384964,1.1855347
2807225743085,5.175637200000001,8.423283999999999,1.2382251
2807245600109,5.2187475999999995,8.368198,1.3004956
2807265457134,5.3480787,8.224497999999999,1.3100758
2807285314285,5.4414845000000005,8.193361999999999,1.3843212999999999
2807305169790,5.4486694,8.305928,1.4992822000000001
2807325026815,5.3552637,8.447234,1.4681469999999999
2807344883838,5.225933,8.502319,1.4106666
2807364740862,5.2043777,8.372989,1.3483961000000002
2807384597887,5.1828227,8.313113000000001,1.214275
2807404454910,5.118157,8.377778999999999,1.1831397
2807424309997,5.1085769999999995,8.490345,1.2310401000000002
2807444167022,5.110972,8.54064,1.1975098
2807464023917,5.0750465,8.459209,1.1064991000000002
2807483880941,5.039121,8.473578999999999,1.0681788
2807503737838,5.0031962,8.533455,1.0274634
2807523610701,4.9648757,8.586145,1.0418334999999999
2807543467981,4.9481106,8.58854,1.1208692
2807563325262,4.9265550000000005,8.566985,1.1711646
2807583182669,4.9385304,8.504715,1.1448194
2807603039949,4.940925599999999,8.475974,1.0298585
2807622897230,4.933740599999999,8.533455,0.96040285
2807642765663,4.960086,8.57417,0.9867481
2807662623199,4.9313455,8.583751,1.0274634
2807682480864,4.88584,8.619676,1.0083033000000001
2807702338399,4.8283596,8.617281,0.977168
2807722199525,4.761299,8.583751,0.9412427
2807742057318,4.744534,8.583751,0.91250247
2807761914981,4.7876444000000005,8.624466,0.9532178
2807781772645,4.8091992999999995,8.657996,1.0226734
2807801630438,4.840335,8.679551,1.0083033000000001
2807821490496,4.8355445999999995,8.691526,1.0106983
2807841348288,4.782854,8.715475999999999,1.0106983
2807861206081,4.766089,8.646021000000001,0.97956306
2807881063872,4.746928700000001,8.614885000000001,0.974773
2807900921664,4.711004,8.770562,0.99393314
2807920779457,4.5888577,8.794512,0.9915381
2807940633242,4.509822,8.787327000000001,0.9053174
2807960490906,4.512217,8.959767999999999,0.8909473
2807980348699,4.4834765999999995,9.062755000000001,0.85023195
2808000206362,4.385281,8.911868,0.8047266
2808020068671,4.4451566,8.715475999999999,0.8286768
2808039926464,4.6583133000000005,8.636441,0.87178713
2808059784255,4.773274,8.727451,0.855022
2808079642175,4.7636943,8.804092,0.79754156
2808099499968,4.7133985,8.698711,0.7879615
2808119359119,4.722978599999999,8.631651,0.84544194
2808139217039,4.775669000000001,8.56938,0.92208254
2808159074960,4.7708793,8.600515,0.9508228000000001
2808178932879,4.7517190000000005,8.708291000000001,0.96040285
2808198790799,4.7708793,8.696317,1.0130934
2808218648720,4.833149400000001,8.52627,1.0801538
2808238495326,4.905,8.50711,1.094524
2808258353118,4.9265550000000005,8.672366,1.096919
2808278210783,4.854705,8.782537,1.0130934
2808298068446,4.722978599999999,8.744216999999999,0.97237796
2808317914974,4.6271777,8.669971,1.0298585
2808337772511,4.687053,8.622069999999999,1.1160791
2808357633468,4.833149400000001,8.57896,1.1496094
2808377490876,4.88105,8.619676,1.1496094
2808397348413,4.9241605,8.59333,1.2094848999999999
2808417198731,4.960086,8.509504,1.3268408999999999
2808437056011,5.000801,8.562195,1.4010864
2808456913292,4.974456,8.629255,1.3699511999999998
2808476770571,4.8523097,8.662786500000001,1.3651612
2808496627851,4.837939700000001,8.631651,1.3148658000000002
2808516485132,4.90979,8.475974,1.2094848999999999
2808536335438,4.8571,8.442444,1.3124708
2808556192462,4.8211746,8.437654499999999,1.3962965
2808576049615,4.9265550000000005,8.502319,1.4226416000000002
2808595906638,5.118157,8.57896,1.4106666
2808615759176,5.206773,8.53585,1.4298267
2808635616201,5.1468973,8.382568,1.4130616000000003
2808655473224,5.007986,8.322693,1.2957056999999998
2808675330120,4.9552955999999995,8.425678999999999,1.2525953
2808695187145,4.960086,8.576566,1.2070899
2808715047179,4.993616,8.595725,1.1472143999999997
2808734904203,4.9720607,8.473578999999999,1.1520045
2808754761356,4.9529004,8.389753,1.214275
2808774618379,4.933740599999999,8.387359,1.2957056999999998
2808794475403,4.933740599999999,8.4448395,1.3148658000000002
2808814332428,4.88105,8.555010000000001,1.2573853000000002
2808834181996,4.864285,8.681946,1.1831397
2808854038764,4.842729599999999,8.705896000000001,1.1879296999999998
2808873895661,4.7708793,8.686736,1.1711646
2808893752556,4.646338,8.653205999999999,1.22625
2808913606915,4.617598,8.686736,1.2861254999999998
2808933463684,4.6583133000000005,8.780142,1.2430152
2808953320323,4.624783,8.868757,1.1615845
2808973177091,4.552932299999999,8.940608000000001,1.1687696
2808993033860,4.4667115,8.950189,1.1591895
2809012890499,4.397256,8.911868,1.1328443000000001
2809032750046,4.366121,8.8879175,1.094524
2809052606687,4.380491,8.842413,1.0562036
2809072463454,4.4475513,8.885523,0.9915381
2809092320094,4.471502,8.897497999999999,1.0035132
2809112176735,4.521797,8.811277,1.0849438999999999
2809132035898,4.6607084,8.763377,1.1041040000000002
2809151892538,4.792434,8.732242,1.099314
2809171749307,4.8044095,8.610096,1.0585986
2809191606074,4.782854,8.490345,1.0729688
2809211470273,4.8115945,8.5119,1.1208692
2809231327170,4.813989599999999,8.636441,1.0825489
2809251184065,4.687053,8.760982,0.9915381
2809271041089,4.4858720000000005,8.844808,0.96040285
2809290897986,4.449946400000001,8.899892999999999,0.977168
2809310754881,4.505032,8.8879175,0.98195803
2809330621194,4.567302,8.794512,0.9699829
2809350478219,4.524192,8.828042,0.93405765
2809370335370,4.406836,8.964559,0.86939216
2809390192522,4.3445654000000005,8.986114,0.8286768
2809410049675,4.337380400000001,8.904683,0.8214916999999999
2809429911915,4.392466000000001,8.909473,0.7831714
2809449769195,4.4643164,8.923843,0.79993653
2809469626348,4.5816726999999995,8.772957,0.9412427
2809489483627,4.7062135000000005,8.581355,1.0418334999999999
2809509345136,4.82357,8.533455,1.101709
2809529202417,4.888235,8.58854,1.1448194
2809549059824,4.88584,8.619676,1.1520045
2809568917104,4.8187795,8.648416000000001,1.1975098
2809588774513,4.8068040000000005,8.590936,1.2717555
2809608631792,4.739743700000001,8.59333,1.2502003000000002
2809628497215,4.655918,8.686736,1.1807446000000001
2809648354880,4.7157936,8.722662,1.1687696
2809668212415,4.773274,8.650811000000001,1.1424243
2809688070079,4.768484,8.59333,1.1112891000000003
2809707927616,4.749324,8.660391,1.1448194
2809727790581,4.7325587,8.720266,1.1639795
2809747648373,4.7253737000000005,8.717872,1.1951148999999999
2809767506038,4.7086086,8.737032000000001,1.2334352
2809787363829,4.655918,8.758587,1.2909156000000002
2809807217976,4.5696974,8.804092,1.3268408999999999
2809827075641,4.5720925,8.816068,1.2741505
2809846933432,4.639153,8.820857,1.1903248
2809866791224,4.6918435,8.818462,1.1663746000000002
2809886648889,4.6918435,8.739427000000001,1.1999048
2809906506680,4.682263400000001,8.708291000000001,1.2573853000000002
2809926363515,4.711004,8.686736,1.2981006000000002
2809946221308,4.775669000000001,8.677156,1.2502003000000002
2809966078971,4.766089,8.717872,1.2118799999999998
2809985936635,4.746928700000001,8.744216999999999,1.2022998
2810005794428,4.6583133000000005,8.782537,1.1496094
2810025651931,4.591253,8.835227,1.0657837
2810045509595,4.502637,8.880733,0.9699829
2810065367388,4.4116263,8.914263,0.92926764
2810085225051,4.366121,8.892708,0.91250247
2810105082843,4.3541455000000004,8.8879175,0.8933423
2810124940508,4.339775599999999,8.880733,0.85023195
2810144794209,4.378096,8.777747,0.8095166
2810164651873,4.385281,8.691526,0.7592211999999999
2810184509410,4.449946400000001,8.665181,0.76880133
2810204367073,4.552932299999999,8.662786500000001,0.8933423
2810224221122,4.749324,8.650811000000001,1.0083033000000001
2810244078659,4.9529004,8.650811000000001,1.0178833
2810263936194,5.1037870000000005,8.53585,1.0633887
2810283793730,5.1947975,8.416099,1.0825489
2810303651267,5.283413400000001,8.466394000000001,1.1663746000000002
2810323499019,5.223538,8.475974,1.331631
2810343356427,5.0606766,8.437654499999999,1.3986914
2810363213708,4.996011,8.372989,1.3723463
2810383072521,5.0343313,8.430469500000001,1.3579761000000001
2810402929929,4.9505057,8.576566,1.2502003000000002
2810422787338,4.9145803,8.571775,1.1256591999999999
2810442635005,4.9481106,8.473578999999999,1.1041040000000002
2810462492157,4.9433207999999995,8.464,1.1639795
2810482349310,4.87626,8.555010000000001,1.219065
2810502206461,4.8187795,8.598121,1.2406201000000001
2810522066391,4.8115945,8.58854,1.0777588
2810541923544,4.6846585,8.708291000000001,0.9436377
2810561780695,4.646338,8.914263,1.1136841999999998
2810581637847,4.8068040000000005,8.919053,1.1328443000000001
2810601495000,4.9481106,8.705896000000001,0.9963281999999999
2810621348665,4.9313455,8.5502205,1.0130934
2810641205817,4.8283596,8.5598,1.0298585
2810661062842,4.749324,8.581355,1.0274634
2810680919865,4.792434,8.533455,0.9915381
2810700777017,4.960086,8.53585,0.9867481
2810720634042,5.120552,8.629255,1.0083033000000001
2810740490157,5.0439115,8.669971,1.0226734
2810760347181,4.9624805,8.617281,0.9580079
2810780204206,4.9552955999999995,8.52148,0.9268726
2810800061101,4.9433207999999995,8.487949,0.9029224
2810819910859,4.9145803,8.523875,0.8646021
2810839767628,4.9145803,8.53106,0.87897223
2810859624395,4.9648757,8.5430355,0.91729254
2810879481291,5.0558863,8.418494,0.98914313
2810899338060,5.264253,8.3250885,1.0130934
2810919197582,5.338498599999999,8.423283999999999,0.97237796
2810939054478,5.245093,8.6077,0.84065187
2810958911247,5.110972,8.662786500000001,0.8885523000000001
2810978768142,5.0439115,8.523875,0.9196875
2810998625038,5.0582814,8.449629,0.90052736
2811018481935,5.1828227,8.413704,0.9508228000000001
2811038345468,5.149292,8.471185,0.92208254
2811058202492,5.1157618,8.617281,0.7424561
2811078059517,5.0989965999999995,8.734636,0.73527104
2811097916540,5.120552,8.636441,0.79993653
2811117777221,5.1085769999999995,8.452024,0.8262818000000001
2811137634246,5.0558863,8.404124000000001,0.69695073
2811157491397,5.0487013,8.533455,0.63707525
2811177348421,5.010381,8.6077,0.7161109
2811197205446,4.9792457,8.571775,0.76161623
2811217070734,4.986430599999999,8.54064,0.8478370000000001
2811236927886,5.024751,8.468789,0.8262818000000001
2811256785167,5.0415163,8.557405000000001,0.90771246
2811276642318,5.319339,8.471185,0.9436377
2811296499598,5.5516553,8.210127,0.77359134
2811316356879,5.360054,8.243657,0.9364527
2811336212482,5.142107,8.358619000000001,1.0657837
2811356069762,5.1947975,8.48316,1.0394385
2811375926915,5.271438,8.605306,1.1088941
2811395784194,5.1780324,8.619676,1.0011181999999998
2811415638560,4.9648757,8.57417,0.8382569
2811435495713,4.766089,8.57417,0.7831714
2811455352864,4.682263400000001,8.684341,0.7448511
2811475210016,4.682263400000001,8.787327000000001,0.7951465
2811495067169,4.699028500000001,8.8879175,0.7927515
2811514924448,4.687053,8.863968,0.6227050999999999
2811534794918,4.6774735,8.739427000000001,0.57001466
2811554652327,4.6942387000000005,8.780142,0.51971924
2811574509862,4.687053,8.868757,0.5364844
2811594367270,4.643943,8.919053,0.63707525
2811614224679,4.639153,8.835227,0.59156984
2811634085427,4.792434,8.626861,0.5628295999999999
2811653943091,4.991221,8.48316,0.62989014
2811673800628,5.0487013,8.437654499999999,0.67539555
2811693658163,5.039121,8.423283999999999,0.6849755999999999
2811713515692,5.0702567,8.487949,0.6777906
2811733373357,5.087022,8.555010000000001,0.6849755999999999
2811753230892,5.0487013,8.58854,0.7065308000000001
2811773088556,4.89542,8.648416000000001,0.68737066
2811792946221,4.758904,8.710687,0.6945557
2811812803756,4.7325587,8.746611999999999,0.6993457
2811832666625,4.756508999999999,8.758587,0.6442603
2811852524290,4.8283596,8.832832000000002,0.6945557
2811872382081,4.7541139999999995,8.823253,0.7185059
2811892239873,4.7133985,8.689131,0.7161109
2811912097666,4.849914599999999,8.564589999999999,0.71371585
2811931953153,5.029541,8.54064,0.7568262
2811951810817,5.151687,8.50711,0.8047266
2811971668482,5.149292,8.552615,0.79993653
2811991526145,5.005591000000001,8.59333,0.7161109
2812011386917,4.87626,8.660391,0.6610254
2812031244710,4.7876444000000005,8.794512,0.56522465
2812051102373,4.6056230000000005,8.914263,0.46463382
2812070960165,4.4355764,8.873548,0.38559815
2812090817830,4.4595265,8.777747,0.39278322
2812110675621,4.533772,8.873548,0.38080812
2812130530748,4.509822,8.981323,0.4143384
2812150388541,4.593647499999999,8.854387,0.5748047
2812170246204,4.8259644999999995,8.598121,0.69695073
2812190103996,5.019961400000001,8.533455,0.78556645
2812209961661,5.0415163,8.54064,0.8095166
2812229808895,4.9433207999999995,8.547825,0.8143066999999999
2812249666431,4.87626,8.631651,0.8334668
2812269523968,4.878655,8.629255,0.8430469
2812289381503,4.88584,8.600515,0.86939216
2812309229859,4.8714699999999995,8.650811000000001,0.8047266
2812329087140,4.768484,8.717872,0.73527104
2812348944547,4.6942387000000005,8.732242,0.7783814
2812368801955,4.5960426,8.641231,0.8430469
2812388659236,4.631968,8.653205999999999,0.8885523000000001
2812408515149,4.7086086,8.792117,0.8861573
2812428367583,4.8044095,8.799302,0.96758795
2812448224736,4.8666797,8.710687,1.0657837
2812468082015,4.9648757,8.641231,1.0873389
2812487939167,4.905,8.581355,1.0346485
2812507796320,4.873865,8.552615,1.0130934
2812527650210,4.8834453,8.655600999999999,0.9915381
2812547507362,4.8523097,8.703502,0.9316626
2812567364387,4.847519999999999,8.708291000000001,0.8646021
2812587221538,4.737349,8.847202000000001,0.8095166
2812607074996,4.6271777,8.866363,0.7232959
2812626932021,4.495451999999999,8.708291000000001,0.6682104999999999
2812646788916,4.4691067,8.684341,0.7185059
2812666645940,4.536167,8.789722,0.7879615
2812686502965,4.5601172,8.940608000000001,0.7783814
2812706359988,4.557722599999999,9.110655,0.7089258
2812726219601,4.5074267,9.189691,0.6586304000000001
2812746076626,4.528982,9.182506,0.7376661
2812765933649,4.636758,9.101074,0.87418216
2812785790673,4.679868,9.022039,0.8382569
2812805647698,4.699028500000001,8.914263,0.8669971
2812825501259,4.6056230000000005,8.772957,0.79993653
2812845358283,4.490661599999999,8.643626,0.6658155
2812865215180,4.29427,8.605306,0.44068359999999995
2812885072203,4.5553274,8.59333,0.64186525
2812904929227,4.557722599999999,8.586145,0.4766089
2812924786252,4.679868,8.430469500000001,0.36883304
2812944645140,4.6056230000000005,8.279583,0.33290774
2812964502036,4.643943,8.377778999999999,0.55324954
2812984359061,4.6726832,8.576566,0.60354495
2813004215956,4.5696974,8.696317,0.54366946
2813024072129,4.5002417999999995,8.799302,0.5484595
2813043929026,4.5625124,8.768167,0.46942386
2813063785921,4.639153,8.732242,0.37601808
2813083642689,4.636758,8.756192,0.25866213
2813103499586,4.548142400000001,8.801697,0.2945874
2813123363797,4.543352,8.636441,0.34009278
2813143220821,4.617598,8.485555,0.23471193
2813163077846,4.670287999999999,8.52627,0.12693603
2813182934997,4.655918,8.667575999999999,0.100590825
2813202792021,4.682263400000001,8.780142,0.27542725
2813222649046,4.7157936,8.837622999999999,0.31135255
2813242509018,4.6607084,8.844808,0.19639161
2813262366170,4.670287999999999,8.842413,0.16765137
2813282223195,4.679868,8.840017,0.16525635
2813302080346,4.612807800000001,8.804092,0.119750984
2813321936376,4.617598,8.830438000000001,0.06945557
2813341793529,4.600833000000001,8.772957,0.033530276
2813361650552,4.591253,8.770562,-0.0071850587
2813381507576,4.6750784,8.818462,-0.05508545
2813401364729,4.768484,8.804092,-0.06227051
2813421228707,4.7876444000000005,8.768167,-0.07664063
2813441085859,4.799619,8.715475999999999,-0.031135255
2813460943140,4.813989599999999,8.677156,-0.06466553
2813480800419,4.8187795,8.672366,-0.11017089999999999
2813500657571,4.840335,8.734636,-0.19878663
2813520514852,4.833149400000001,8.689131,-0.22034179999999998
2813540376306,4.873865,8.624466,-0.19878663
2813560233586,4.9624805,8.624466,-0.21555176
2813580090995,5.007986,8.57896,-0.21555176
2813599948274,5.029541,8.52627,-0.25147706
2813619811173,5.0774417000000005,8.509504,-0.2706372
2813639668838,5.1037870000000005,8.557405000000001,-0.26105714
2813659526373,5.1037870000000005,8.538245,-0.23231691
2813679383909,5.0510964000000005,8.562195,-0.2706372
2813699241574,5.024751,8.614885000000001,-0.30895755
2813719097433,5.0750465,8.646021000000001,-0.33530274
2813738955097,5.0439115,8.648416000000001,-0.38320315
2813758812634,5.0367265,8.696317,-0.46702883
2813778670169,5.005591000000001,8.696317,-0.43110353
2813798527833,4.960086,8.691526,-0.45984375
2813818385370,5.012776000000001,8.657996,-0.47181886
2813838240491,5.0654664,8.598121,-0.49576905
2813858098027,5.079837,8.602911,-0.57959473
2813877955564,5.0846267,8.58854,-0.6658155
2813897813099,5.0415163,8.547825,-0.6490503000000001
2813917668159,5.0487013,8.509504,-0.6825806
2813937525568,5.0415163,8.53106,-0.7065308000000001
2813957382975,5.017566,8.54543,-0.7113208000000001
2813977240383,5.0343313,8.514294999999999,-0.7448511
2813997097792,4.996011,8.523875,-0.79035646
2814016955199,4.974456,8.552615,-0.8095166
2814036824133,4.984036,8.58854,-0.76401126
2814056681798,5.0031962,8.602911,-0.7759864000000001
2814076539461,5.000801,8.576566,-0.74724615
2814096397125,5.012776000000001,8.566985,-0.76880133
2814116254790,5.031936,8.5430355,-0.7879615
2814136111971,5.0606766,8.52627,-0.7951465
2814155969635,5.087022,8.497530000000001,-0.80712163
2814175827300,5.0894165000000005,8.538245,-0.7831714
2814195684963,5.0463059999999995,8.52148,-0.7807764
2814215533203,5.015171,8.516689999999999,-0.8598120000000001
2814235390612,5.0343313,8.5430355,-0.8765772
2814255248019,5.0606766,8.53106,-0.86220706
2814275105555,5.0534916,8.53106,-0.84544194
2814294962964,5.0510964000000005,8.57896,-0.8813671999999999
2814314820499,5.024751,8.555010000000001,-0.8382569
2814334668635,5.0654664,8.502319,-0.8167017
2814354525916,5.120552,8.514294999999999,-0.82388675
2814374383323,5.144501999999999,8.53106,-0.82388675
2814394240603,5.151687,8.499925,-0.8310718
2814414097884,5.1564775,8.459209,-0.8167017
2814433945215,5.1540823,8.437654499999999,-0.83586186
2814453802239,5.185217400000001,8.418494,-0.8382569
2814473659264,5.199587999999999,8.428074,-0.8262818000000001
2814493516287,5.1732426,8.468789,-0.8167017
2814513374450,5.175637200000001,8.480764,-0.8214916999999999
2814533231475,5.190007700000001,8.459209,-0.8262818000000001
2814553088498,5.1971927,8.475974,-0.79035646
2814572945522,5.2019825,8.468789,-0.81191164
2814592802547,5.190007700000001,8.466394000000001,-0.79035646
2814612659698,5.1876125,8.502319,-0.77359134
2814632512225,5.190007700000001,8.49274,-0.7496411000000001
2814652369250,5.216353,8.442444,-0.7544312
2814672226145,5.261858,8.401729,-0.75203615
2814692083169,5.245093,8.394544,-0.7711963000000001
2814711940066,5.240303,8.432864,-0.7759864000000001
2814731805019,5.242698000000001,8.464,-0.77359134
2814751662171,5.2355127,8.459209,-0.7568262
2814771519196,5.2091675,8.413704,-0.76401126
2814791376219,5.225933,8.437654499999999,-0.7831714
2814811229293,5.216353,8.418494,-0.8047266
2814831086318,5.2498830000000005,8.387359,-0.79993653
2814850943213,5.2666483,8.394544,-0.76161623
2814870800237,5.252278,8.452024,-0.7592211999999999
2814890657262,5.190007700000001,8.464,-0.7807764
2814910514285,5.1780324,8.423283999999999,-0.7879615
2814930374113,5.185217400000001,8.440049,-0.79754156
2814950231138,5.122947,8.497530000000001,-0.8286768
2814970088033,5.0654664,8.495134,-0.8669971
2814989945057,5.027146299999999,8.533455,-0.89573735
2815009802082,5.0463059999999995,8.629255,-0.90052736
2815029659280,5.0510964000000005,8.667575999999999,-0.9484278
2815049516176,5.015171,8.581355,-0.96758795
2815069373201,5.022355999999999,8.5119,-0.91250247
2815089230224,5.087022,8.435259,-0.8669971
2815109083060,5.1612673,8.394544,-0.85741705
2815128939957,5.221143,8.423283999999999,-0.80233157
2815148796980,5.206773,8.432864,-0.7711963000000001
2815168653876,5.185217400000001,8.461604,-0.7664063
2815188510773,5.192402400000001,8.49274,-0.76161623
2815208367668,5.185217400000001,8.487949,-0.76401126
2815228228203,5.166057599999999,8.461604,-0.74724615
2815248085100,5.166057599999999,8.447234,-0.76880133
2815267942123,5.1804276,8.471185,-0.7807764
2815287799147,5.213958,8.48316,-0.7568262
2815307656044,5.2091675,8.468789,-0.75203615
2815327508306,5.216353,8.416099,-0.75203615
2815347365202,5.230723,8.394544,-0.75203615
2815367222099,5.221143,8.440049,-0.76880133
2815387078994,5.1804276,8.449629,-0.76401126
2815406935890,5.1732426,8.432864,-0.7544312
2815426792659,5.190007700000001,8.456814999999999,-0.7592211999999999
2815446658575,5.192402400000001,8.459209,-0.74724615
2815466515599,5.2019825,8.454419,-0.74006104
2815486372496,5.190007700000001,8.452024,-0.75203615
2815506229519,5.166057599999999,8.435259,-0.7424561
2815526090500,5.1780324,8.459209,-0.73048097
2815545947525,5.1828227,8.459209,-0.732876
2815565804676,5.185217400000001,8.437654499999999,-0.7232959
2815585661700,5.1828227,8.440049,-0.73048097
2815605518853,5.1828227,8.430469500000001,-0.73048097
2815625387736,5.175637200000001,8.435259,-0.7544312
2815645245272,5.134922,8.442444,-0.75203615
2815665102681,5.158872,8.519085,-0.7424561
2815684960088,5.1684523,8.50711,-0.7424561
2815704817624,5.185217400000001,8.449629,-0.7496411000000001
2815724675033,5.1876125,8.452024,-0.7711963000000001
2815744541668,5.2043777,8.420889,-0.7783814
2815764399460,5.223538,8.423283999999999,-0.7759864000000001
2815784257125,5.257068,8.416099,-0.7448511
2815804114788,5.257068,8.411309,-0.7065308000000001
2815823971842,5.283413400000001,8.406519,-0.7448511
2815843829507,5.326524,8.401729,-0.72569096
2815863687298,5.3073635,8.370594,-0.7065308000000001
2815883544962,5.3097587,8.370594,-0.7041358
2815903402627,5.324128599999999,8.341853,-0.73527104
2815923255449,5.3001785,8.349038,-0.76161623
2815943112985,5.285808599999999,8.384964,-0.7448511
2815962970650,5.237908,8.418494,-0.7807764
2815982828185,5.213958,8.449629,-0.7544312
2816002685721,5.223538,8.428074,-0.728086
2816022543386,5.242698000000001,8.440049,-0.76880133
2816042406699,5.199587999999999,8.459209,-0.7568262
2816062264363,5.1947975,8.473578999999999,-0.75203615
2816082122028,5.2091675,8.473578999999999,-0.6945557
2816101979691,5.1804276,8.475974,-0.732876
2816121832698,5.1708474,8.471185,-0.75203615
2816141690363,5.216353,8.48316,-0.7209009
2816161547898,5.1971927,8.47837,-0.6945557
2816181405562,5.1947975,8.471185,-0.7161109
2816201263099,5.1732426,8.48316,-0.7232959
2816221113734,5.1708474,8.4448395,-0.74724615
2816240971270,5.175637200000001,8.452024,-0.7592211999999999
2816260828679,5.185217400000001,8.468789,-0.7759864000000001
2816280686086,5.1971927,8.464,-0.79035646
2816300543494,5.1947975,8.454419,-0.76880133
2816320401031,5.175637200000001,8.466394000000001,-0.7879615
2816340255847,5.1684523,8.471185,-0.7927515
2816360113255,5.1971927,8.456814999999999,-0.7831714
2816379970792,5.2019825,8.432864,-0.80712163
2816399828199,5.1947975,8.418494,-0.81909674
2816419677421,5.230723,8.404124000000001,-0.79035646
2816439534702,5.240303,8.382568,-0.78556645
2816459386975,5.213958,8.406519,-0.79993653
2816479244255,5.225933,8.411309,-0.81909674
2816499101536,5.2187475999999995,8.440049,-0.7951465
2816518960813,5.206773,8.437654499999999,-0.7927515
2816538818093,5.2355127,8.404124000000001,-0.78556645
2816558675502,5.233118,8.404124000000001,-0.7927515
2816578532781,5.254673,8.449629,-0.77359134
2816598390189,5.283413400000001,8.466394000000001,-0.73527104
2816618247470,5.2905984,8.442444,-0.7089258
2816638100130,5.2738333,8.413704,-0.71371585
2816657957282,5.3049684,8.401729,-0.70174074
2816677814563,5.326524,8.413704,-0.7041358
2816697671714,5.295388,8.392149,-0.7496411000000001
2816717522562,5.3217335,8.377778999999999,-0.7209009
2816737379587,5.3049684,8.353828,-0.7161109
2816757236610,5.261858,8.356223,-0.74724615
2816777093634,5.2498830000000005,8.392149,-0.7879615
2816796950659,5.276228400000001,8.399334,-0.77359134
2816816807682,5.269043,8.394544,-0.7711963000000001
2816836660878,5.2738333,8.401729,-0.7424561
2816856517775,5.2810182999999995,8.382568,-0.7568262
2816876374798,5.3001785,8.389753,-0.76880133
2816896231694,5.316943599999999,8.396939,-0.76401126
2816916088591,5.3025737,8.351434,-0.7783814
2816935945840,5.333709,8.365803999999999,-0.7568262
2816955802608,5.3145485,8.380174,-0.76161623
2816975659505,5.2929935,8.420889,-0.7711963000000001
2816995516272,5.269043,8.389753,-0.76880133
2817015380896,5.3049684,8.365803999999999,-0.76161623
2817035237793,5.324128599999999,8.387359,-0.77359134
2817055094816,5.3408937000000005,8.392149,-0.79993653
2817074951840,5.336104,8.349038,-0.7783814
2817094808865,5.2882032,8.365803999999999,-0.7759864000000001
2817114665760,5.336104,8.329877999999999,-0.78556645
2817134511867,5.350474,8.320298,-0.8262818000000001
2817154368636,5.3289184999999994,8.370594,-0.83586186
2817174225403,5.2977834,8.392149,-0.8262818000000001
2817194082171,5.285808599999999,8.341853,-0.8262818000000001
2817213938940,5.3313136,8.370594,-0.84544194
2817233798486,5.319339,8.363408,-0.90771246
2817253655382,5.312153299999999,8.356223,-0.91729254
2817273512151,5.3049684,8.329877999999999,-0.8933423
2817293368918,5.312153299999999,8.341853,-0.90771246
2817313225509,5.3049684,8.320298,-0.96040285
2817333082406,5.295388,8.320298,-0.97237796
2817352939173,5.3217335,8.3322735,-0.9699829
2817372796069,5.3432889999999995,8.341853,-0.99393314
2817392652838,5.3408937000000005,8.337064,-0.9651929
2817412509733,5.336104,8.322693,-0.98435307
2817432370731,5.372029,8.298743,-1.0370435
2817452227628,5.350474,8.270002,-1.0849438999999999
2817472084523,5.3408937000000005,8.224497999999999,-1.1064991000000002
2817491941419,5.391189,8.188572,-1.1520045
2817511798316,5.4582496,8.205338000000001,-1.1543995
2817531664017,5.53489,8.178992,-1.1472143999999997
2817551521041,5.654641000000001,8.073611,-1.2022998
