UPTIMENANO,Ax,Ay,Az
2761215682856,-0.31308624,0.36066216,8.5460205
2761235540008,-0.5191448,0.0022430262,9.420117
2761255397289,-0.05785379,-0.20972715,10.12736
2761275268112,0.12131338,-0.19049802,10.276247
2761295125648,0.10173555,-0.094247095,9.895996
2761314983185,0.02015529,-0.059187192,9.511862
2761334840720,-0.05849788,-0.095838234,9.570222
2761354701329,-0.30506846,-0.09416391,9.855184
2761374558994,-0.13853465,-0.11077726,9.69234
2761394416529,-0.007473342,-0.0634053,9.61275
2761414274193,0.042698056,-0.08508313,9.9059925
2761434131730,0.033497952,-0.1363343,10.064233
2761453989393,-0.013041219,-0.1723353,10.271419
2761473852439,-0.07336005,-0.08216774,10.078741
2761493710104,-0.10263143,0.12091061,9.468768
2761513567895,-0.046550944,0.19587822,9.192993
2761533425559,-0.017343663,-0.41247973,9.790561
2761553283224,0.73467994,-0.37307268,10.325293
2761573134645,0.0066225473,0.733821,9.7061615
2761592992309,-0.38287142,-0.3208021,9.545891
2761612849974,0.5585705,-0.20859554,10.268043
2761632707637,0.7742708,0.25480756,10.746513
2761652565301,0.69229674,-0.77836716,10.652726
2761672423094,3.3075416,0.4631134,10.042156
2761692284408,5.510742,0.39396203,9.416444
2761712142072,3.201607,-0.40004134,10.329109
2761731999865,1.9227345,-0.30838326,10.623246
2761751857528,1.2519513,-0.23820816,10.232904
2761771724469,-0.710637,-0.1382816,9.477472
2761791582390,-3.967323,-0.046830304,9.650854
2761811440181,-3.3466525,0.6278307,8.866215
2761831298101,-0.6793177,0.69549304,8.07067
2761851156022,1.1137193,0.27565828,8.943098
2761871025290,1.3113217,-0.62944293,10.628542
2761890883466,1.2775615,-0.5918051,9.957725
2761910741643,0.5050775,-0.79622114,10.931325
2761930599818,-0.8146513,-1.3770813,12.904553
2761950457866,0.15041897,-0.43608588,10.028427
2761970316043,1.088006,-0.16851452,9.975191
2761990180368,1.0325869,-0.14662357,9.818056
2762010045905,0.2840502,-0.33270967,9.932295
2762029904210,-0.7744675,-1.0131112,10.787959
2762049762513,0.42329326,-0.84993184,11.512858
2762069620099,0.65857506,-0.44837144,9.28356
2762089478404,0.72310823,0.86399883,8.053998
2762109336707,0.45188397,0.99241745,8.01461
2762129195011,0.2267628,0.5607008,8.589247
2762149053316,-0.53375894,-1.2684736,11.958159
2762168904128,0.15958998,-1.2201738,11.04838
2762188762304,0.8940079,-0.32683644,9.678148
2762208620481,0.43325493,0.35616094,9.44859
2762228478528,0.4746905,0.2890062,8.923472
2762248336704,0.876139,-0.23234114,9.475603
2762268194881,1.0976279,-0.5366584,9.611102
2762288053184,0.84204936,-0.44994074,9.354705
2762307911360,1.0492268,-0.21051803,8.949606
2762327769537,1.7998194,-0.015483412,9.197427
2762347627712,2.3259141,-0.3662035,9.320899
2762367485669,1.3281702,-1.3899609,8.830256
2762387343846,-1.0888139,-3.43667,10.214691
2762407202021,1.2548555,-0.2471686,10.261221
2762427060197,1.5162903,1.1010582,6.5516973
2762446918374,-0.09374015,1.4266921,5.299574
2762466775860,-0.049055655,1.3401817,6.6203904
2762486634036,1.0267118,-0.3645782,7.309779
2762506492213,1.7255263,-1.3208984,7.2501125
2762526350388,1.7815044,-1.0090337,6.7743306
2762546208436,0.81104696,-1.6148771,8.281543
2762566066613,-0.5804954,-2.9725187,11.095292
2762585926848,-0.70298785,-2.891457,12.619969
2762605785152,0.5291888,-1.8314817,8.371757
2762625643329,0.2525884,-1.4863642,10.399835
2762645501632,0.17578575,-1.567567,12.093122
2762665360788,0.68598807,-0.43058354,11.70281
2762685219093,0.74731535,-0.40492666,10.377952
2762705077396,0.58288145,-0.69833666,9.911806
2762724935828,0.048844006,-0.87581897,9.976311
2762744794133,0.10951334,-1.2066879,12.180581
2762764652564,-0.9354516,-0.017957147,12.097583
2762784500238,-2.2201009,1.3082066,9.002992
2762804358159,-0.6746688,-1.5515429,5.9904685
2762824216206,4.1374984,-7.5531206,9.452828
2762844074126,4.632462,-5.282616,13.901003
2762863932175,2.6930985,-1.537387,8.467348
2762883794123,2.8791933,-0.7452559,5.844009
2762903652299,3.559711,1.256882,8.855958
2762923510348,2.1329067,3.5474977,6.424083
2762943368523,1.4940251,2.7848804,6.443334
2762963226059,3.9686165,0.83948654,6.6558523
2762983084236,3.7541664,0.34024233,6.7439094
2763002942283,5.2625585,-1.2851979,7.1211276
2763022800459,5.6921897,-4.762029,8.599311
2763042658508,4.6643763,-4.354536,10.162314
2763062516555,1.2836751,-6.725389,11.557535
2763082372299,-1.4339246,-7.662061,9.685737
2763102230348,-1.8069803,-8.430945,8.883429
2763122088395,-4.0443325,-6.3231564,13.030513
2763141946443,-4.6727095,-3.8594995,11.958689
2763161804619,-4.178695,-1.7138307,11.692092
2763181660121,-4.7212896,0.8642621,17.67431
2763201518041,-4.7068114,1.9127212,16.68124
2763221375961,-4.988923,-0.33505583,14.432937
2763241233753,-3.8082259,2.418066,14.0748205
2763261091673,-1.7673922,3.7437818,13.7782545
2763280947679,-1.2230848,1.5369829,13.831456
2763300805471,-3.3844132,2.9697287,15.93486
2763320663263,-3.3681731,6.2345214,15.066072
2763340521055,4.5980988,4.096407,13.199435
2763360378975,5.9006724,4.731985,10.385593
2763380234719,4.7951217,0.7434432,11.994727
2763400092511,2.9559639,-0.21681942,12.477532
2763419950303,0.29444635,1.3592534,13.004574
2763439808223,-1.9868107,2.651909,13.853002
2763459666015,-2.9300816,0.96925884,12.684065
2763479523807,-2.162865,-0.22909826,11.730376
2763499384933,-0.9822545,3.9685009,10.234576
2763519242853,-4.2816787,3.3931887,8.043801
2763539100773,1.0034511,1.7904195,6.2589674
2763558958693,3.211873,-0.5233387,4.53554
2763578816613,1.7265139,-0.3831623,3.1491668
2763598679720,1.0281663,1.8792168,4.5464005
2763618537768,-1.4911113,2.2135415,6.020517
2763638395816,-3.2814748,0.47131708,4.8186784
2763658253864,-2.4610667,-1.2396988,3.3975239
2763678111912,-0.4055493,-0.7749455,4.6964073
2763697968631,-0.15932764,1.0412512,7.1739845
2763717826679,-1.0443914,2.0971546,8.739887
2763737684727,-5.013346,2.5222948,9.283892
2763757542775,-5.9225926,3.445665,9.990169
2763777400823,-5.0369983,0.65530694,12.052271
2763797262296,-2.4384513,-1.6900706,13.261867
2763817120344,1.1832044,-1.7236133,10.432038
2763836978520,5.1388774,0.2686068,9.39821
2763856836568,3.8562577,0.6463653,10.703308
2763876694616,2.2040236,-0.033546757,10.20872
2763896559405,0.57321554,-1.6800325,11.417764
2763916417709,-0.20630296,-2.88516,12.547719
2763936275885,-0.10940268,-2.494461,15.6348715
2763956134061,2.465435,-2.0265317,15.0661955
2763975992365,0.95396185,-0.3255794,11.953866
2763995854637,1.2277176,0.5349322,13.242336
2764015712941,0.6665719,-0.91137064,13.410355
2764035575643,-4.217816,-4.0440984,11.060965
2764055433947,-0.3917509,-3.0360193,8.618009
2764075292251,-0.6076539,-0.19371225,7.9145293
2764095151724,-0.46723273,-0.22648598,3.0243604
2764115010028,-1.4666398,1.2369323,6.166546
2764134868332,-1.7997901,5.8339105,4.817625
2764154726764,-0.85173184,1.9912648,6.150663
2764174585068,-2.018661,0.3260926,7.0455017
2764194435692,-2.8803265,0.8859458,6.9970756
2764214293868,-3.5019233,0.55636156,8.357377
2764234152044,-2.767958,0.12194491,10.618441
2764254010348,-3.1471322,-0.43621138,15.563744
2764273868524,-0.5951771,-1.8034308,12.290598
2764293723404,1.3243042,-1.2933934,10.58414
2764313581580,1.9673667,-2.8340046,9.766262
2764333439756,2.3477743,-2.7886622,9.695702
2764353297932,3.2903762,-1.470116,9.46814
2764373155980,3.9196796,0.058142103,8.418905
2764393005275,6.0265055,1.1290396,6.16249
2764412863195,3.4666855,0.6501545,9.006259
2764432721115,2.5314667,-0.78099245,10.150636
2764452579163,2.7211607,-1.4546218,9.767154
2764472437083,1.8624232,-1.8647408,12.32278
2764492292530,0.92679673,-1.8169078,14.257046
2764512150450,0.4165174,-1.3639294,17.992949
2764532008498,-2.175604,-0.24365118,15.319176
2764551866418,-0.6932714,-0.007892771,11.834996
2764571724338,0.2837844,-0.1124943,9.447406
2764591574291,-0.28008658,-0.2367121,8.756875
2764611432083,-0.6387758,-0.48438472,10.338022
2764631289747,-1.1374924,-0.442452,11.317224
2764651147539,-1.7498928,0.5432545,8.096528
2764671005331,0.7864352,-1.0706211,9.0972805
2764690861325,3.11392,-1.578417,9.352692
2764710719117,2.1987004,-1.1511452,8.859196
2764730576781,0.33768144,-0.40538755,9.431692
2764750434445,-2.707517,-0.20538379,9.130198
2764770292109,-2.9146535,-0.24796052,9.107187
2764790155496,-2.0565088,-0.92837405,9.348893
2764810013416,-2.860061,-0.8299644,10.290394
2764829871208,-3.5215204,0.023867778,11.003054
2764849729000,-1.8560537,1.2704849,10.0353775
2764869586920,-0.432214,0.9650333,10.458399
2764889445527,0.9903688,0.16853382,9.029189
2764909303319,1.7710162,-2.173199,9.009932
2764929161111,1.3856635,-1.0647532,9.703921
2764949018903,-0.27080697,1.0189816,9.781173
2764968876695,-0.79012287,0.46878612,9.799136
2764988736366,-0.7230094,0.41764688,9.817255
2765008594158,-0.12251829,0.83244765,9.548976
2765028451950,0.09110575,1.0657636,9.470383
2765048309742,-1.0165006,-0.24863097,10.023422
2765068167406,-1.1045264,-1.318898,10.369885
2765088019791,-1.0092764,-2.4338138,10.050748
2765107877455,-1.2551461,1.2006094,9.8872175
2765127735119,-1.6277851,2.1498682,9.794719
2765147592783,-1.5518453,1.5790929,10.197161
2765167450447,-1.8576845,1.4259369,10.612856
2765187312993,-1.4158479,-0.009564649,9.785397
2765207170657,-1.5860641,-0.9627823,8.763365
2765227028449,-2.9852147,-1.390593,9.2679205
2765246886113,-1.64607,0.42062062,10.186708
2765266743905,1.4189816,2.0319986,10.219695
2765286602244,1.1809082,0.8315419,9.587728
2765306459908,0.64276206,0.42606735,9.593025
2765326317572,1.5254915,0.118239336,9.675683
2765346175364,1.6817952,-0.44717488,9.937491
2765366033028,0.85666573,-0.32771942,10.745546
2765385894288,0.27374154,0.04810374,10.984263
2765405752080,-0.38604647,-0.3500269,10.423502
2765425609872,-1.4086051,-2.2496216,9.75189
2765445467664,-1.1188573,-3.012814,9.582752
2765465325456,-0.45956936,-1.8089182,9.23167
2765485188441,-1.7691919,-1.202211,10.352625
2765505046361,-2.1041305,0.38664514,10.231928
2765524904281,-1.0747344,1.9708419,9.95084
2765544762201,-0.6876554,2.8933213,10.132167
2765564620249,-0.44774705,1.5052062,10.117152
2765584481722,-0.30283272,-0.56546384,9.845187
2765604339898,-0.6841314,-1.1035551,9.866809
2765624197946,-0.8108047,-0.5144529,9.936049
2765644056122,-0.57202125,0.22527632,9.885434
2765663914170,-0.46079227,0.355624,9.852263
2765683778276,-0.52530825,-0.01936035,9.92907
2765703636580,-0.6095512,-0.3410566,9.953065
2765723494756,-0.500054,-0.32873806,9.969248
2765743353060,-0.46399945,-0.09880769,10.008352
2765763211364,-0.34338954,0.6620965,9.952243
2765783077694,-0.39213413,0.52633923,9.912735
2765802936126,-0.6294194,-0.121856764,9.908593
2765822794558,-0.7948111,-0.29193503,9.972346
2765842652990,-0.7460741,-0.0060527683,9.990889
2765862511422,-0.749868,0.1899318,9.958426
2765882369975,-0.7990876,0.15328757,9.932473
2765902228535,-0.77335155,0.13087046,9.941381
2765922086967,-0.68895745,0.116992526,9.942496
2765941945399,-0.6163294,0.05414582,9.92907
2765961803959,-0.6324326,0.04507001,9.904627
2765981665955,-0.69360685,0.064746544,9.857488
2766001524515,-0.71763295,0.10094092,9.847253
2766021383075,-0.71258557,0.06394485,9.840775
2766041245783,-0.6622948,0.067736045,9.8621235
2766061104343,-0.58177865,0.028485786,9.887648
2766080955856,-0.5487604,0.03922991,9.994233
2766100814160,-0.4873586,0.14242671,9.94135
2766120672592,-0.45537725,0.035127703,9.9982195
2766140531024,-0.48902684,-0.025730025,10.023936
2766160389456,-0.54376215,0.013886627,9.990705
2766180241535,-0.48093927,0.02853351,9.981718
2766200099839,-0.40268707,-0.046570133,9.955526
2766219958015,-0.3772939,-0.030059027,9.898556
2766239816319,-0.39593038,0.07539871,9.908991
2766259674495,-0.47102165,0.027542865,9.957445
2766279529897,-0.47461408,-0.09502841,9.964923
2766299388073,-0.5177773,0.0014514086,9.950348
2766319246249,-0.5914063,0.20830882,9.913903
2766339104425,-0.61356205,0.20154513,9.948716
2766358962601,-0.62653124,0.05958476,10.008004
2766378812699,-0.55795175,0.037210707,9.954669
2766398670747,-0.5342104,0.07983157,9.881243
2766418528667,-0.59470487,0.11662514,9.922485
2766438386715,-0.539149,0.07179213,9.994769
2766458244763,-0.43463466,-0.06783826,9.960167
2766478103237,-0.4106993,-0.12817536,9.911624
2766497961285,-0.39494544,0.2639608,9.874037
2766517819333,-0.490858,0.20245935,9.893203
2766537677381,-0.6073524,-0.110574044,9.957885
2766557535429,-0.5521092,-0.062053036,10.002255
2766577394773,-0.4476682,-0.015147091,9.98921
2766597252821,-0.33027714,-0.1492274,9.961083
2766617110997,-0.16348201,-0.22258247,9.96486
2766636969045,-0.015997866,-0.11828982,9.892227
2766656827093,0.07117398,-0.3475759,9.90839
2766676688633,0.026233759,-0.39343885,9.94804
2766696546809,-0.0099674435,-0.18882695,9.974888
2766716404857,-0.22139417,-0.23355943,9.978038
2766736262905,-0.4421111,-0.29412338,9.965879
2766756121081,-0.6192046,-0.09758173,9.921353
2766775982157,-0.714818,0.095822856,9.822844
2766795840333,-0.7616164,0.14796051,9.8225565
2766815698509,-0.75846577,0.22221878,9.867798
2766835556685,-0.8073993,0.29699844,9.945576
2766855414861,-0.88564855,0.2553609,9.9927025
2766875273037,-0.9199489,0.34319285,9.959617
2766895133297,-0.8740441,0.47842187,9.957395
2766914991473,-0.92223966,0.34364164,9.997987
2766934849649,-1.0055648,0.32060865,9.997965
2766954707825,-0.9203875,0.5151445,9.918299
2766974566001,-0.79774594,0.38408378,9.882676
2766994423256,-0.430341,-0.1526769,9.88609
2767014281432,-0.7310058,-4.7643497E-4,10.056898
2767034139608,-0.39939326,0.6318795,10.060021
2767053997784,-0.40139145,0.34743646,10.017997
2767073855832,-0.54177403,-0.12850936,9.98206
2767093707259,-0.5082302,0.010426022,9.986799
2767113565307,-0.54222876,0.22378881,9.954232
2767133423355,-0.64052266,0.17406899,9.945467
2767153281403,-0.65721905,0.09904212,9.934646
2767173139323,-0.5366826,0.04073459,9.967046
2767192997657,-0.45730448,0.060881335,9.959929
2767212855705,-0.42664403,0.15828618,9.9978075
2767232713625,-0.48778293,0.15544122,10.002977
2767252571673,-0.56956863,0.13040452,9.955779
2767272429593,-0.68458456,0.18002622,9.97917
2767292294815,-0.6552749,0.110705554,9.98703
2767312152863,-0.52103126,0.045877703,9.9198
2767332011039,-0.36687452,0.095825,9.9062395
2767351869087,-0.22847621,0.110567406,9.917718
2767371727263,-0.21838972,0.039059922,9.958006
2767391586170,-0.28499797,-0.13948575,9.968987
2767411444346,-0.40400863,-0.20348524,9.967076
2767431302522,-0.5105906,-0.025270494,9.963396
2767451160698,-0.6270345,0.14805162,9.88136
2767471019002,-0.70588297,0.27313817,9.868301
2767490877518,-0.6932789,0.27538583,9.907339
2767510735694,-0.6469779,0.13676068,9.93677
2767530593998,-0.5077459,0.080856174,9.9435835
2767550452174,-0.41136706,0.17208488,9.989487
2767570310350,-0.46895802,0.2836313,9.999444
2767590167422,-0.592856,0.2827416,9.96258
2767610025726,-0.6930075,0.25111112,9.934903
2767629884030,-0.7149409,0.16826603,9.91399
2767649742334,-0.68587905,0.20121175,9.971227
2767669600510,-0.65219456,0.2985488,10.0461
2767689454029,-0.59605044,0.3212941,10.035045
2767709312205,-0.54339075,0.20589115,9.977004
2767729170381,-0.5221188,0.11599328,9.912782
2767749028557,-0.5207686,0.10875447,9.937377
2767768886733,-0.46998876,0.3270144,9.964381
2767788752996,-0.5129431,0.23987298,9.951201
2767808611300,-0.5810706,0.10385949,10.006642
2767828469604,-0.54941916,0.09948837,9.983052
2767848327908,-0.41945255,0.075496726,9.975431
2767868186212,-0.31439796,0.06719351,9.965355
2767888040127,-0.27825585,0.12513882,10.008026
2767907898431,-0.28062686,0.080859184,10.105106
2767927756607,-0.24779524,-0.0067451717,9.856815
2767947614911,-0.36994052,0.2653352,9.814265
2767967473087,-0.59017164,0.1269153,9.99183
2767987329123,-0.567213,-0.03153713,10.0714
2768007187299,-0.45971227,0.09932701,10.008143
2768027045475,-0.45327073,0.19347508,9.928936
2768046903695,-0.45763066,0.043580353,9.998456
2768066761871,-0.39960778,-0.15797807,9.950028
2768086618083,-0.42292818,-0.16578345,9.930919
2768106476131,-0.47274393,-0.08965755,9.952073
2768126334179,-0.52566344,-0.18424527,9.880258
2768146192355,-0.5249074,-0.07053051,9.921797
2768166050403,-0.45515656,-0.0056597623,9.936785
2768185904567,-0.52547354,-0.15889588,9.93529
2768205762487,-0.49082932,-0.09437555,9.927954
2768225620407,-0.4458807,-0.03146853,9.939804
2768245478455,-0.43899968,0.0069935555,9.952483
2768265336375,-0.45480505,0.08074743,9.995968
2768285194825,-0.48523423,0.12413454,10.031018
2768305052873,-0.50568736,0.16390978,9.995316
2768324910921,-0.48807243,0.1704067,9.971686
2768344768969,-0.48599383,0.12880279,9.954732
2768364626889,-0.47649628,0.15476456,9.928598
2768384479323,-0.5003686,0.13632159,9.983665
2768404337243,-0.5438928,0.09371673,10.014235
2768424195035,-0.54320717,0.15054758,9.9854965
2768444052955,-0.5274117,0.20458406,9.909528
2768463910875,-0.6300929,0.22164515,9.903422
2768483771025,-0.66279054,0.19940634,9.936391
2768503628945,-0.6295315,0.17593624,9.961954
2768523486993,-0.5718449,0.13371956,9.984114
2768543344913,-0.5016946,0.071098045,9.9781685
2768563202833,-0.45457947,0.018900244,9.981742
2768583058705,-0.37620234,0.030581942,9.93044
2768602916625,-0.36596146,0.014975249,9.959855
2768622774545,-0.4122206,-0.028723534,9.97125
2768642632465,-0.42830443,-0.0011341794,9.955987
2768662490385,-0.46808773,0.017305182,9.941501
2768682349030,-0.4573334,-0.029734684,9.9599695
2768702206822,-0.40139478,-0.047179475,9.968303
2768722064742,-0.3646406,-0.04401572,9.935362
2768741922534,-0.3578655,-0.030489605,9.8964615
2768761780454,-0.43701005,-0.018572709,9.914381
2768781643384,-0.51761764,-0.008618984,9.966799
2768801501304,-0.5610414,-0.03940816,9.929578
2768821359352,-0.52647775,0.34055263,9.974007
2768841217272,-0.5582997,0.29084367,9.983429
2768861075192,-0.58987474,0.016177166,9.973992
2768880931856,-0.48749664,0.25408736,9.979955
2768900789776,-0.5148663,0.27615732,9.990391
2768920647824,-0.5488076,0.16861673,9.996589
2768940505872,-0.50473523,0.17824018,9.945579
2768960363792,-0.48595196,0.15217647,9.952229
2768980223967,-0.47863075,0.13417356,9.967648
2769000082015,-0.47017965,0.1536635,9.982514
2769019940063,-0.45943648,0.1240161,9.92666
2769039797983,-0.48645815,0.124923356,9.951816
2769059656031,-0.4600201,0.09489872,9.993434
2769079510012,-0.43687388,0.11054992,9.962842
2769099367932,-0.46679556,0.10615529,9.935646
2769119225852,-0.5241286,0.031584296,9.947735
2769139083900,-0.51543665,0.072070055,9.970036
2769158941820,-0.54213625,0.13398682,9.966673
2769178799319,-0.5848483,0.114408195,9.970568
2769198657239,-0.53148603,0.049090624,9.949659
2769218515159,-0.48504135,-0.028152315,9.969157
2769238372951,-0.4657717,-0.023431702,9.9722595
2769258230871,-0.43657556,0.044360157,9.92315
2769278094642,-0.43116245,0.051192768,9.930652
2769297952690,-0.42704165,-0.029998275,9.970848
2769317810610,-0.4420565,-0.039802864,9.973461
2769337668530,-0.46073803,-0.034770552,9.931193
2769357526578,-0.43862498,-0.042082455,9.9347
2769377386630,-0.41611654,0.016269514,9.961355
2769397244806,-0.43812776,0.055939656,9.997269
2769417102854,-0.46962145,0.036292195,9.959203
2769436961030,-0.47638696,0.017934468,9.937151
2769456819078,-0.45765817,0.06651084,9.95321
2769476682855,-0.47902924,0.106274046,9.973964
2769496541031,-0.5054917,0.08078866,9.9536915
2769516399207,-0.50070906,0.08951245,9.950203
2769536257383,-0.5114811,0.12870033,10.001215
2769556115559,-0.53552896,0.14317772,9.976855
2769575973735,-0.55525786,0.11624107,9.947411
2769595834184,-0.5297603,0.08850719,9.970768
2769615692488,-0.50274736,0.102746814,9.987933
2769635550792,-0.5122461,0.116695054,9.963433
2769655409096,-0.5348156,0.026975164,9.926464
2769675267400,-0.50408673,0.025643755,9.95389
2769695125405,-0.4943261,0.08408206,9.981474
2769714983709,-0.51531297,0.0839957,9.983668
2769734842013,-0.50592756,0.061352413,9.966755
2769754700317,-0.48440439,0.057266768,9.954154
2769774558621,-0.46309832,0.054172304,9.978227
2769794426036,-0.4490418,0.02266288,9.968372
2769814284596,-0.4608094,0.05204779,9.978508
2769834143028,-0.4804853,0.091876514,9.970107
2769854001588,-0.5219496,0.13211526,9.966001
2769873860020,-0.4810382,0.11122716,9.983749
2769893719671,-0.44923148,0.08859782,9.975461
2769913578231,-0.48238978,0.09870237,9.932426
2769933436663,-0.5554583,0.11575768,9.96895
2769953295223,-0.55050737,0.12011185,9.939749
2769973153783,-0.51825815,0.13388565,9.955333
2769993012184,-0.5072493,0.084595665,9.9852915
2770012870616,-0.46540847,0.12826677,9.973456
2770032729176,-0.48934406,0.15345314,9.937764
2770052581210,-0.52400506,0.10291954,9.942119
2770072439227,-0.53083855,0.117105335,9.965171
2770092297660,-0.5072746,0.14206734,9.981339
2770112156219,-0.4964853,0.097766474,9.979295
2770132014779,-0.48626924,0.07811854,9.969129
2770151873212,-0.46667168,0.08285143,9.941389
2770171731771,-0.49625552,0.055274744,9.960669
2770191574939,-0.48114225,0.0525215,9.967364
2770211433116,-0.44538727,0.075343914,9.975773
2770231291291,-0.46283305,0.091756694,9.9790325
2770251149467,-0.5334642,0.08271945,9.972246
2770271007772,-0.58813024,0.033715054,9.964532
2770290869329,-0.52324104,0.03883089,9.953687
2770310727633,-0.43097234,0.088754565,9.9235525
2770330585938,-0.414998,0.026684105,9.944136
2770350444241,-0.44387388,-0.017072301,9.981266
2770370291561,-0.46514648,0.029248618,9.952586
2770390149610,-0.53731346,0.10659109,10.00758
2770410007785,-0.5586196,0.0044069523,9.978984
2770429865961,-0.47146478,-0.03808913,9.925949
2770449724010,-0.4215545,0.052214313,9.963137
2770469582185,-0.43975356,0.1758428,10.035203
2770489438860,-0.4910337,0.09436589,9.9937935
2770509296909,-0.56276685,0.0116111785,9.951351
2770529154956,-0.5844298,0.063273706,9.983285
2770549012876,-0.554763,0.10286226,9.9994955
2770568870925,-0.5199675,0.049855486,10.000253
2770588728344,-0.47533104,0.0134501755,9.9623575
2770608586392,-0.47260502,0.07591896,9.971498
2770628444441,-0.48569298,0.12610026,9.998503
2770648302488,-0.5099171,0.046773374,10.00226
2770668160536,-0.50701547,-0.052387066,9.968194
2770688018585,-0.45724237,0.022212265,9.976115
2770707864953,-0.47506225,0.14305474,9.984264
2770727722617,-0.53444654,0.060136348,9.963041
2770747580410,-0.5222771,-0.055097558,9.961883
2770767438073,-0.46995834,-0.02376165,9.963977
2770787286667,-0.44753742,0.06626761,9.970397
2770807144204,-0.464139,0.062291626,9.988192
2770827001739,-0.45409316,-0.019717608,9.962411
2770846859147,-0.44805595,-0.04093071,9.958428
2770866716684,-0.41573384,0.032492947,9.985421
2770886574705,-0.4539848,0.045181308,9.979639
2770906432113,-0.51134986,0.016948745,9.975377
2770926289650,-0.48249912,0.008627496,9.9509735
2770946147185,-0.43126467,0.052656725,9.953508
2770966004721,-0.42078778,0.10212549,9.963643
2770985862258,-0.43179485,0.07116755,9.987206
2771005723017,-0.48526224,0.028394936,9.979439
2771025580553,-0.49203056,0.025639568,9.959405
2771045437962,-0.4553641,0.074065536,9.977612
2771065295497,-0.4467003,0.124932915,9.9769335
2771085153198,-0.465344,0.08195196,9.946518
2771105010735,-0.45206577,0.012994956,9.909238
2771124868270,-0.4351753,-0.014340878,9.916168
2771144725806,-0.43081406,0.029106978,9.955187
2771164583343,-0.42274088,0.034679554,9.982412
2771184440792,-0.44260016,0.007671548,9.948783
2771204298200,-0.45422274,0.097680174,9.930248
2771224155737,-0.43510437,0.08560812,10.0014515
2771244013144,-0.44482076,0.1113612,9.976031
2771263870552,-0.5161886,0.17917,9.98183
2771283728089,-0.50945145,0.08099872,10.004918
2771303583076,-0.5229386,0.09282762,9.93227
2771323440356,-0.4686519,0.26873425,9.931425
2771343297765,-0.5107671,0.23270276,9.933036
2771363155172,-0.57240266,0.004554581,9.960876
2771383022899,-0.51671517,-0.052191842,9.9754
2771402880564,-0.5128582,0.1556192,9.923881
2771422738099,-0.5363479,0.29211333,9.943865
2771442595763,-0.57740337,0.13222174,9.889293
2771462453428,-0.6102811,-0.21890907,9.773056
2771482320398,-0.6103471,0.005148009,9.981814
2771502178190,-0.4683957,0.35525936,10.051582
2771522035983,-0.49025664,0.13187417,10.008856
2771541893774,-0.44554788,0.057245918,9.988619
2771561751694,-0.29211628,0.103639156,9.971956
2771581609487,-0.2989693,0.2141142,9.977373
2771601476500,-0.43959728,0.31354898,10.019523
2771621334548,-0.53051496,0.20356326,10.051071
2771641192725,-0.5438746,0.10232709,9.962094
2771661050772,-0.45483136,0.120988704,9.968019
2771680914322,-0.3773734,0.09344084,9.975629
2771700772627,-0.45641652,0.12629284,9.921243
2771720630930,-0.48348892,0.11563573,9.895769
2771740489106,-0.43684322,-9.4705826E-4,9.945164
2771760347411,-0.4078351,-0.07670265,9.9389105
2771780205586,-0.44236603,0.061344534,9.926989
2771800056288,-0.49915025,0.14508465,9.926822
2771819914337,-0.5140936,-0.025753185,9.9078045
2771839772512,-0.48083657,-0.071262844,9.9108095
2771859630560,-0.47303385,0.06465257,9.971592
2771879488609,-0.48985413,0.09462343,9.972272
2771899356334,-0.49942327,0.027751764,9.961553
2771919214638,-0.47669518,0.058934893,9.9655905
2771939072943,-0.42536688,0.10980147,9.992435
2771958931374,-0.40568006,0.09786464,10.057436
2771978790260,-0.4454364,0.12553741,10.051898
2771998648565,-0.49592942,0.22115785,10.006231
2772018506868,-0.5258125,0.26358968,10.006207
2772038365172,-0.52018297,0.22406025,9.998578
2772058223477,-0.5687624,0.22214174,9.948745
2772078077124,-0.62027293,0.26695597,9.939035
2772097940731,-0.62998337,0.18116787,9.994379
2772117799164,-0.60054123,0.11636342,9.971817
2772137657595,-0.61332697,0.10128127,9.933248
2772157516155,-0.5369971,-0.031066684,9.912453
2772177374588,-0.41921845,-0.14735927,9.844668
2772197229623,-0.4939366,-0.16182306,9.778392
2772217088055,-0.45945302,-0.35889408,9.809047
2772236946616,-0.33041152,-0.51844925,9.890824
2772256805047,-0.3055608,-0.21870905,9.990432
2772276653381,-0.18912132,0.017610412,9.995187
2772296511686,-0.16167232,-0.18881312,10.0006275
2772316369861,-0.22546083,-0.18772171,10.01789
2772336228165,-0.2855775,-0.028563239,10.018412
2772356086470,-0.43806055,-0.11260595,10.003224
2772375944645,-0.52933794,-0.264432,9.964144
2772395799383,-0.40382987,-0.334674,9.965985
2772415657560,-0.2239376,-0.24008852,9.928371
2772435515735,-0.22640626,-0.052621927,9.906802
2772455373783,-0.4065199,-0.08799932,9.891675
2772475231960,-0.49911627,-0.2091402,9.90027
2772495081949,-0.4683286,-0.17247938,9.942557
2772514939997,-0.47071478,-0.07495448,9.949457
2772534797918,-0.49999058,-0.05443103,9.944577
2772554655837,-0.49266103,-0.046644285,9.956703
2772574513512,-0.46388182,0.04014604,9.964273
2772594371433,-0.4499289,0.11919979,9.979338
2772614229352,-0.51997703,0.10925153,10.011645
2772634087400,-0.58005154,0.105187096,10.05504
2772653945321,-0.61114365,0.21000732,10.038102
2772673803368,-0.6323239,0.2875233,9.987059
2772693659331,-0.6453054,0.29093826,9.977961
2772713517124,-0.6454276,0.21721098,10.002545
2772733375043,-0.5458279,0.1879662,9.969553
2772753232963,-0.45445064,0.20966683,9.957925
2772773090884,-0.40919974,0.23349382,9.985134
2772792945060,-0.41323972,0.20074242,10.017197
2772812802852,-0.41841424,0.22955291,9.971462
2772832660645,-0.44692314,0.29661354,9.947958
2772852518436,-0.47385305,0.21345511,9.983443
2772872372650,-0.4734223,0.11460887,9.979458
2772892230315,-0.45044646,0.112751625,9.951387
2772912087850,-0.45092663,0.15960416,9.920919
2772931945514,-0.42507997,0.11128467,9.922722
2772951803179,-0.43035963,0.10404488,9.941732
2772971660842,-0.45520055,0.09781722,9.938133
2772991520851,-0.467976,0.057495203,9.943855
2773011378516,-0.42705625,0.04208923,9.964969
2773031236179,-0.42418033,0.06326061,9.976445
2773051093843,-0.43502882,0.1404962,9.996391
2773070951508,-0.44481885,0.09957354,9.979065
2773090799132,-0.48949355,0.069105335,9.983459
2773110656540,-0.4867135,0.09433158,9.978604
2773130514077,-0.4252735,0.12461448,9.978141
2773150371484,-0.4332711,0.076860026,9.97245
2773170229020,-0.46221688,0.045067273,9.944893
2773190086557,-0.48579141,0.060856845,9.936046
2773209947377,-0.5032527,0.11078254,9.939483
2773229805041,-0.5216968,0.1360633,9.937223
2773249662578,-0.592595,0.12886298,9.904678
2773269520113,-0.6711682,0.0013138088,9.877916
2773289380886,-0.6787689,-0.08233689,9.929732
2773309238423,-0.54982615,-0.020307533,9.971196
2773329096086,-0.39747477,0.0079932995,9.963339
2773348953622,-0.33537742,0.008750767,10.0011635
2773368811159,-0.34761468,0.01728885,9.98168
2773388668089,-0.4211839,0.039144367,9.962601
2773408525625,-0.48854867,0.032851983,9.98338
2773428383162,-0.45120338,0.03867705,9.976217
2773448240697,-0.3983075,0.074360244,9.946151
2773468098233,-0.38529813,0.05562085,9.972774
2773487955770,-0.38156763,-0.002137766,9.967993
2773507812817,-0.35135815,-0.012873425,10.000739
2773527670353,-0.3294307,0.015027755,9.962472
2773547527890,-0.38250986,0.011324723,9.951646
2773567385425,-0.38732257,-0.029128173,9.968262
2773587246667,-0.35928467,-0.04612473,9.993782
2773607104332,-0.39152128,0.0037108269,9.932634
2773626961995,-0.48737612,0.02318825,9.907545
2773646819659,-0.48933744,-0.02790483,9.941869
2773666677324,-0.42657766,0.004407421,9.978765
2773686541643,-0.41750342,0.01614174,9.977197
2773706399563,-0.46125594,0.003355759,9.936426
2773726257356,-0.47590944,0.018022321,9.932986
2773746115147,-0.44840258,0.014534463,9.963546
2773765973067,-0.43642566,0.008901707,9.960907
2773785830860,-0.44688162,0.018131278,9.934661
2773805686877,-0.42515367,0.04236722,9.941211
2773825544669,-0.39019543,-0.016245512,9.985452
2773845402462,-0.37926573,-0.047093134,9.955319
2773865260253,-0.37119782,-0.020669773,9.909175
2773885125504,-0.35770944,-0.051937524,9.932954
2773904983425,-0.32960388,-0.057339974,9.951993
2773924841344,-0.34281573,-0.0013853065,9.950071
2773944699136,-0.41453975,0.008483897,9.962519
2773964557057,-0.4197783,0.029676847,9.951567
2773984427916,-0.41735435,0.045234103,9.946299
2774004286220,-0.46065828,0.089144245,9.935554
2774024144397,-0.5124711,0.110187925,9.963461
2774044002572,-0.5122674,0.13069837,9.98559
2774063856551,-0.48232642,0.13031735,9.939546
2774083714728,-0.5036899,0.15301077,9.944123
2774103567990,-0.48159677,0.12065494,9.966535
2774123426038,-0.4460319,0.12348808,9.952273
2774143284215,-0.454346,0.12088783,9.945598
2774163142262,-0.4524775,0.094113454,9.955902
2774182996689,-0.4285065,0.085161135,9.968816
2774202854738,-0.3956789,0.061006904,9.973848
2774222712785,-0.3828428,0.06686553,9.959521
2774242570833,-0.39984578,0.11724845,9.941618
2774262428882,-0.4447762,0.083825916,9.962814
2774282286929,-0.4273568,0.06709147,9.967827
2774302138417,-0.40437782,0.095313765,9.936912
2774321996338,-0.4339626,0.09007596,9.922616
2774341854257,-0.45545846,0.050727144,9.9668455
2774361712177,-0.42685285,0.039611846,9.966226
2774381570226,-0.40148643,0.08108418,9.954255
2774401424957,-0.42225724,0.11042602,9.928003
2774421282877,-0.4563452,0.047346883,9.942204
2774441140798,-0.44162783,0.041581247,9.97752
2774460998717,-0.42853615,0.07520845,9.973486
2774480859928,-0.45995194,0.09480663,9.948117
2774500717977,-0.44538602,0.06858797,9.935405
2774520576024,-0.44300142,0.055821758,9.975019
2774540433944,-0.47463566,0.07065008,9.971201
2774560291993,-0.47663125,0.04804096,9.963188
2774580149912,-0.41681564,-0.0121387085,9.952889
2774600007606,-0.38926667,-0.02537972,9.946126
2774619865655,-0.3666612,-0.03892977,9.933475
2774639723702,-0.33072194,-0.051722396,9.93124
2774659581750,-0.31292132,-0.013832035,9.938519
2774679439799,-0.3047509,-0.006557794,9.937629
2774699291284,-0.3496318,-0.017262874,9.942543
2774719149076,-0.3585653,0.036502726,9.958433
2774739006869,-0.37610027,0.09544291,10.003288
2774758864660,-0.40017933,0.12907435,9.999609
2774778722324,-0.42277345,0.17928036,9.983387
2774798580117,-0.4667118,0.19348992,9.9582405
2774818437908,-0.53081197,0.16236085,9.969452
2774838295700,-0.5608835,0.15640593,9.982923
2774858153493,-0.524077,0.17331026,9.969584
2774878011284,-0.47509784,0.15199296,9.957857
2774897863901,-0.41974548,0.121785164,9.983322
2774917721694,-0.37124082,0.09652574,9.975894
2774937579357,-0.39367214,0.060876988,9.938927
2774957437021,-0.4307141,0.04572591,9.930859
2774977294814,-0.4493388,0.0050956183,9.954536
2774997158139,-0.46509323,-3.1421453E-4,9.971919
2775017015931,-0.437892,0.044156782,9.963398
2775036873724,-0.39179868,-0.021968393,9.944642
2775056731515,-0.37771368,-0.015173831,9.923738
2775076582651,-0.37735248,0.055537425,9.936026
2775096440316,-0.38207677,0.102193154,9.974764
2775116297851,-0.37144372,0.038323827,9.97865
2775136155515,-0.3737064,0.025293032,9.949867
2775156013180,-0.3994583,0.1052753,9.941872
2775175870715,-0.3926241,0.11325178,9.938886
2775195726026,-0.42273068,0.048839796,9.973197
2775215583563,-0.44111735,0.042647526,9.971727
2775235441098,-0.44726446,0.11061691,9.950122
2775255298634,-0.49721542,0.13563737,9.962885
2775275156171,-0.51275754,0.06382333,9.99935
2775295016039,-0.5338992,0.07335358,9.938407
2775314873575,-0.56362146,0.12786795,9.97292
2775334731112,-0.56548995,0.075531,9.982155
2775354588647,-0.4692504,0.005245311,9.964167
2775374443970,-0.3925951,0.014126735,9.98825
2775394301379,-0.41723403,0.07048288,9.972825
2775414158914,-0.4457834,0.037933163,9.966228
2775434016322,-0.45218843,-0.09424613,9.967689
2775453873731,-0.40536326,-0.13335933,9.970142
2775473731266,-0.32820687,-0.10036248,9.948449
2775493594690,-0.32461658,-0.07926729,9.944572
2775513452355,-0.31850952,-0.09184364,9.933359
2775533309890,-0.31199926,-0.15507933,9.932045
2775553167554,-0.32712337,-0.1537579,9.930309
2775573025219,-0.43530992,0.014496556,9.950941
2775592886051,-0.58690846,0.15009056,9.910045
2775612743843,-0.69225854,0.052092813,9.902121
2775632601636,-0.6872852,-0.16282618,9.945837
2775652459427,-0.6089851,-0.11858944,9.979267
2775672317219,-0.50336593,0.061340597,10.005589
2775692175012,-0.4631086,0.011537105,9.985117
2775712042269,-0.4841229,-0.09833703,9.993621
2775731900189,-0.35891077,-0.007444052,10.013049
2775751758238,-0.32133007,-0.02913883,9.981939
2775771616157,-0.35928333,-0.029740138,10.0459
2775791474279,-0.3894038,0.02807876,10.045904
2775811332328,-0.47772524,0.08472643,9.991941
2775831190247,-0.45703414,0.052097946,9.897038
2775851048295,-0.44704854,0.1204866,9.868783
2775870906216,-0.38455632,0.05345183,9.938888
2775890762008,-0.35629684,-0.06548778,9.9554825
2775910619928,-0.31798822,-0.018196905,9.956534
2775930477849,-0.27593747,0.031058885,9.962768
2775950335768,-0.2852828,-0.01476978,9.990617
2775970193688,-0.34247255,-0.11953694,10.014689
2775990051609,-0.387132,-0.09381499,9.944171
2776009915049,-0.43762487,0.031620238,9.896
2776029772969,-0.50155103,0.16491221,9.950566
2776049631018,-0.54651135,0.17886293,9.970268
2776069489065,-0.6462073,0.13710059,9.974297
2776089347068,-0.68370676,0.19260025,9.980909
2776109205117,-0.67308885,0.1974989,9.928592
2776129063164,-0.5569326,0.24906246,9.898428
2776148921212,-0.52122164,0.2918215,9.93342
2776168779261,-0.5152957,0.16193981,9.954973
2776188632505,-0.40964139,0.039748996,9.967627
2776208490425,-0.25632033,0.1433714,9.9707985
2776228348346,-0.23939481,0.180054,9.9528
2776248206393,-0.32735598,0.1929228,9.905846
2776268064313,-0.32772943,0.14021021,9.927218
2776287922234,-0.39208466,0.051418655,9.973508
2776307777282,-0.40897503,0.07265221,9.989039
2776327635202,-0.3883002,0.19177625,9.949925
2776347493123,-0.35723683,0.17385924,9.9348135
2776367351042,-0.40271497,0.110833734,9.953615
2776387206048,-0.48221928,0.1060984,9.9977865
2776407063969,-0.3754825,0.09060404,9.972552
2776426921760,-0.30156267,-0.05131737,9.928372
2776446779680,-0.29666066,0.08251831,9.935962
2776466637601,-0.43237895,0.26987654,9.973081
2776486489693,-0.6047339,0.27878335,10.00891
2776506347357,-0.7138956,0.15789741,9.958116
2776526205150,-0.6581535,0.0066730976,9.934955
2776546062813,-0.5669789,-0.031373758,10.005432
2776565920605,-0.47262666,0.10910512,9.993626
2776585778270,-0.46164984,0.17719084,9.982957
2776605635622,-0.4885852,0.07354603,10.009344
2776625493414,-0.44039628,-0.051396012,9.973467
2776645351207,-0.4219469,-0.04357739,9.973615
2776665208870,-0.42192987,0.004707741,9.926128
2776685061761,-0.4450437,-0.03291003,9.957495
2776704919426,-0.5528689,-0.07597486,9.966722
2776724777089,-0.4192169,0.0043774885,9.954957
2776744634625,-0.32728854,0.08431434,9.926874
2776764492290,-0.36068982,0.066028796,9.9368105
2776784349953,-0.40735498,0.05566454,9.9749365
2776804203611,-0.42556792,0.091357514,9.957202
2776824061148,-0.39878228,0.11807353,9.925296
2776843918555,-0.38561872,0.097486235,9.9471
2776863776091,-0.35968468,0.1298477,9.954411
2776883633628,-0.3682523,0.1844756,9.922552
2776903490401,-0.41044718,0.28104836,9.93388
2776923347809,-0.4128141,0.33987057,9.971105
2776943205346,-0.39364633,0.27759796,9.95196
2776963062753,-0.33530813,0.31493118,9.892468
2776982920508,-0.34650788,0.4402294,9.917477
2777002777917,-0.42310536,0.31763,9.962334
2777022635324,-0.3853197,0.2640214,9.967743
2777042492732,-0.35134214,0.33712694,9.922381
2777062350269,-0.40315282,0.37773266,9.900616
2777082207676,-0.4865562,0.33096752,9.909871
2777102062000,-0.46878576,0.1577967,9.952626
2777121919281,-0.35869133,0.045859307,9.980509
2777141776688,-0.31475976,0.07014707,9.942079
2777161634096,-0.29663965,0.084842615,9.909137
2777181491377,-0.29915005,0.035940945,9.877362
2777201348113,-0.34405804,-0.01866931,9.896912
2777221205393,-0.37860402,-0.02989125,9.958874
2777241062674,-0.37571436,-0.04651205,9.994989
2777260919953,-0.34658596,-0.04861641,9.974973
2777280778868,-0.3326488,-0.036614202,9.931386
2777300636149,-0.34701717,-0.028356815,9.951298
2777320493556,-0.33862385,-0.13898322,9.95687
2777340350964,-0.2741431,-0.18336996,9.977567
2777360208245,-0.2538695,-0.14248578,9.969644
2777380065652,-0.2580823,-0.15120625,9.941684
2777399928802,-0.250816,-0.20155263,9.959165
2777419786211,-0.21811545,-0.2118969,9.956856
2777439643618,-0.27869347,-0.13939176,9.926963
2777459501154,-0.40279257,-0.043271217,9.94671
2777479358563,-0.5045292,0.040011797,9.891812
2777499225411,-0.52903473,0.057411253,9.92431
2777519083075,-0.53980654,0.08139053,9.95451
2777538940740,-0.5695393,0.19332904,9.958251
2777558798275,-0.54682255,0.17073098,9.992064
2777578662478,-0.42446157,0.047506325,9.975482
2777598520271,-0.34085625,0.050256852,9.900924
2777618378190,-0.36963782,0.097748026,9.908164
2777638235982,-0.42406705,0.0729472,9.9514675
2777658093903,-0.45400512,0.028082032,9.955499
2777677951694,-0.5028297,-0.026716258,9.972614
2777697811718,-0.42812312,-0.031001912,9.99046
2777717669639,-0.36994672,0.030848477,9.948084
2777737527558,-0.32353738,0.05462387,9.912291
2777757385478,-0.32201013,0.10883682,9.929492
2777777243399,-0.3686093,0.08590871,9.96516
2777797095916,-0.40617844,-0.021038119,9.969967
2777816953708,-0.4031809,0.0025689024,9.957153
2777836811501,-0.40621123,0.098447084,9.938477
2777856669420,-0.37863928,0.053205665,9.9556265
2777876532149,-0.2744039,-0.050131436,9.977472
2777896390198,-0.2264532,-0.050477147,9.974915
2777916248117,-0.25354686,-0.015808731,9.98386
2777936106037,-0.28415927,0.011852398,9.951081
2777955963958,-0.37051848,0.09189833,9.909612
2777975821877,-0.46897238,0.16450329,9.918807
2777995680431,-0.4737734,0.15397064,9.950463
2778015538352,-0.39111805,0.054497853,10.003205
2778035396271,-0.29595703,-0.016395159,9.955813
2778055254319,-0.27436888,-0.07671648,9.875025
2778075112240,-0.21939602,-0.059786607,9.872406
2778094968482,-0.21386315,-0.06023413,9.894965
2778114822867,-0.30164593,-0.037809417,9.910221
2778134680916,-0.4564963,0.13930552,9.907945
2778154538835,-0.55896586,0.19139954,9.931981
2778174396755,-0.5576338,0.062238697,9.94893
2778194254676,-0.38860896,-0.022325257,9.94374
2778214107676,-0.25233808,0.14053622,9.940575
2778233965468,-0.28370327,0.30186847,9.99116
2778253823389,-0.35810727,0.25754872,10.046478
2778273681308,-0.39338306,0.083831176,10.017027
2778293534614,-0.43018886,-0.006521845,9.949322
2778313392407,-0.48022157,0.06673091,9.933236
2778333250198,-0.55475646,0.13958736,9.885148
2778353107862,-0.56901646,0.16106822,9.880536
2778372965655,-0.54731125,0.18286094,9.920902
2778392818013,-0.4845791,0.17300294,9.97456
2778412675549,-0.3998717,0.13261683,10.000477
2778432533214,-0.33616433,0.07895665,9.986215
2778452390877,-0.29388705,0.052524097,9.965224
2778472248541,-0.286365,0.09062851,9.985988
2778492106206,-0.29092145,0.08470392,10.017147
2778511970665,-0.34016877,0.024395535,10.010962
2778531828329,-0.34165168,-0.024752397,9.983377
2778551686122,-0.37027088,0.014313207,9.913627
2778571543913,-0.4432794,0.18269888,9.880799
2778591396359,-0.46197474,0.2708593,9.917387
2778611254024,-0.42935982,0.20882316,9.965803
2778631111687,-0.34212515,0.11454348,9.975695
2778650969351,-0.3120642,0.1752699,9.947552
2778670827016,-0.4121216,0.2050135,9.973616
2778690679845,-0.3997875,0.19624518,9.916531
2778710537253,-0.38719174,0.14683,9.91435
2778730394790,-0.3863759,0.13061945,9.954574
2778750252325,-0.39527008,0.18581101,10.005597
2778770109861,-0.3876459,0.0502308,9.95806
2778789967398,-0.32979968,-0.056242008,9.890986
2778809823810,-0.22431082,-0.10540515,9.869442
2778829681218,-0.24980621,-0.04145041,9.955581
2778849538755,-0.32361832,-0.052577183,9.978751
2778869396162,-0.29189456,-0.018153701,9.935278
2778889248535,-0.361007,0.08191302,9.955963
2778909105816,-0.502282,0.12848702,9.954505
2778928963095,-0.54495746,0.13997033,9.972724
2778948820375,-0.44181627,0.1409541,9.9388
2778968677784,-0.42407796,0.12519382,9.967123
2778988540134,-0.463378,0.10848925,9.993827
2779008397542,-0.3552043,0.24373066,9.903892
2779028254951,-0.36475682,0.40508837,9.862751
2779048112358,-0.45452186,0.42461142,9.9152355
2779067969766,-0.6130895,0.27664137,9.971967
2779087827047,-0.68386865,0.03364215,9.954292
2779107686532,-0.3907999,0.30863038,9.909969
2779127544068,-0.22711203,0.65854686,9.9530735
2779147401477,-0.4112245,0.29396465,10.033621
2779167259012,-0.47842503,0.4128806,10.015074
2779187123917,-0.26131067,0.73470414,9.976273
2779206981582,-0.51801306,0.47358063,9.886114
2779226839117,-0.5889298,0.33317342,9.783556
2779246696781,-0.5086015,0.5977288,9.899758
2779266554446,-0.8102239,0.39140478,9.928143
2779286412109,-0.8146104,0.05498275,9.962181
2779306266189,-0.4511325,0.19011757,9.9837055
2779326123854,-0.22731927,0.23992392,9.965816
2779345981389,-0.2736066,0.10005475,9.933518
2779365839053,-0.27411205,-0.18930341,9.90611
2779385696590,-0.15866624,-0.1970375,9.916843
2779405556964,0.0024040896,-0.18305309,9.881229
2779425414628,0.075804,-0.37901688,9.908959
2779445272165,-0.030171724,-0.4373445,9.911334
2779465129828,-0.11222385,-0.4599541,9.78718
2779484997366,0.0106772315,-0.3940801,9.819058
2779504855287,-0.06395616,-0.35141397,10.008637
2779524713078,-0.23379037,-0.34709167,10.199653
2779544570870,-0.33980334,-0.14771175,10.06696
2779564428791,-0.34087855,-0.07530619,9.987641
2779584286582,-0.2872316,0.07541713,10.040461
2779604151115,-0.4435159,0.12096258,9.975228
2779624009164,-0.675078,0.11531293,9.83487
2779643867083,-0.8816838,0.120592706,9.856335
2779663725131,-1.135186,-0.02576739,10.040201
2779683583180,-1.219651,-0.013049975,10.205615
2779703446794,-0.91359615,-0.06571606,10.137381
2779723304970,-0.46101543,0.10916541,10.013635
2779743163147,-0.32783982,0.13426462,9.914791
2779763021322,-0.45603052,-0.04190008,9.921063
2779782858428,-0.5000545,-0.069975175,9.986647
2779802716221,-0.53190064,0.19008075,9.941006
2779822574012,-0.53852427,0.21961515,9.910689
2779842431676,-0.33953893,0.18931104,9.940742
2779862289469,-0.21464199,0.3277714,10.043345
2779882147260,-0.33864194,0.2508936,9.994499
2779902004447,-0.4417645,0.100561924,9.933328
2779921862112,-0.4441873,-0.092386484,9.942506
2779941719903,-0.28376526,-0.07428305,9.854996
2779961577567,-0.29074237,0.038182173,9.849217
2779981435360,-0.51272935,-0.2685814,10.04315
2780001299179,-0.48970512,-0.19662428,10.200482
2780021157099,-0.54539025,-0.14340703,10.152663
2780041014892,-0.3892894,-0.2719461,9.9822035
2780060872683,-0.23738828,-0.14205442,9.9210205
2780080737186,-0.3589043,-0.4012253,9.935953
2780100595235,-0.52143466,-0.43423292,10.032465
2780120445306,-0.50309587,0.028267816,10.126448
2780140303354,-0.76745063,-0.10492817,10.077472
2780160161403,-0.5639159,-0.4965769,10.109254
2780180019450,-0.57977,0.021280643,10.109922
2780199870982,-0.8065409,-0.3705316,10.087585
2780219728903,-0.74398965,-0.69586855,10.041226
2780239586822,-0.5667861,-0.5079927,10.078354
2780259444742,-0.07741891,-0.265802,10.011618
2780279302535,-0.0044459384,-0.11096561,9.900769
2780299153389,-0.25400102,-0.22534381,9.91513
2780319011053,-0.31785694,-0.1857127,9.874101
2780338868846,-0.20338894,0.02723686,9.726986
2780358726509,-0.20580979,0.15976977,9.63178
2780378582899,-0.37163073,0.005495225,9.91729
2780398440692,-0.4706822,-0.05126933,10.141616
2780418298355,-0.42117792,-0.047213897,9.95018
2780438156019,-0.27534637,0.073710136,9.803092
2780458013684,-0.3028074,0.042196736,9.810435
2780477871475,-0.50333506,-0.17473637,9.85379
2780497730180,-0.65038145,-0.16577692,9.948995
2780517587845,-0.63590527,-0.10338575,10.042611
2780537445508,-0.5850497,0.029559067,10.114531
2780557303172,-0.52583295,-0.024423491,10.011191
2780577160837,-0.41916144,-0.13255788,9.853142
2780597013026,-0.43885934,-0.18956442,9.936942
2780616870562,-0.41968286,-0.07133494,10.182482
2780636728227,-0.29003495,0.08871888,10.121903
2780656585762,-0.24870495,0.08942871,9.990577
2780676443298,-0.31431353,0.17189017,9.970806
2780696300835,-0.40019554,0.20381407,9.9816475
2780716154871,-0.4080661,0.17739466,9.964664
2780736012279,-0.38045305,0.08937658,9.975972
2780755869688,-0.4054044,0.07375595,9.921204
2780775727223,-0.52841467,0.12898003,9.906934
2780795579128,-0.5773642,0.023615245,10.002411
2780815436409,-0.44711545,0.006669504,10.018009
2780835293816,-0.35862237,-0.0849867,9.932973
2780855151224,-0.2787161,-0.068907835,9.921245
2780875008505,-0.32170573,-0.039044842,10.007576
2780894866252,-0.37834316,-0.011501354,10.05645
2780914723532,-0.338299,0.013479958,10.014493
2780934580813,-0.3671293,0.10499282,9.962674
2780954438092,-0.58660877,0.07762101,9.924322
2780974295372,-0.6115876,0.10336829,9.987376
2780994152653,-0.58591187,0.14231537,9.977039
2781014014796,-0.573814,0.07519133,9.9335165
2781033872204,-0.58797026,0.15570861,9.901707
2781053729485,-0.5930074,0.17072545,9.91275
2781073586892,-0.55840904,0.06352931,9.998134
2781093450438,-0.4609781,0.1201784,10.004424
2781113307975,-0.41056636,0.097766794,9.940724
2781133165510,-0.43311206,0.028571693,9.9307
2781153023046,-0.43680146,0.017450742,9.991919
2781172880583,-0.3700541,-0.009347961,10.015882
2781192744579,-0.29724395,-0.051182784,9.956528
2781212602371,-0.3755164,-0.007992851,9.942638
2781232460036,-0.5056222,-0.02916555,9.966566
2781252317827,-0.5696381,-0.14521438,10.017274
2781272175491,-0.56474197,-0.15207739,10.022039
2781292033156,-0.46388155,-0.19517642,9.993228
2781311880500,-0.3121768,-0.18239881,9.953
2781331738164,-0.19801468,-0.15643418,9.886753
2781351595701,-0.16666724,-0.050217014,9.914769
2781371453364,-0.18433788,0.030443782,9.983404
2781391303805,-0.2830839,0.01525621,9.973237
2781411161086,-0.33179668,-0.009324249,9.976614
2781431018365,-0.32784522,-0.03952681,9.978909
2781450875645,-0.33964983,-0.08950773,9.96766
2781470732926,-0.29186827,-0.13927941,9.960044
2781490600786,-0.20101431,-0.12589015,9.963478
2781510458194,-0.15296791,-0.08052713,9.966045
2781530315731,-0.12779398,-0.091728345,9.979938
2781550173138,-0.1342062,-0.08023117,9.98256
2781570030674,-0.13581958,-0.09731215,9.972005
2781589888083,-0.18839794,-0.06490006,9.984195
2781609755876,-0.21615727,-0.046999075,9.988311
2781629613540,-0.2646788,0.060569692,10.00829
2781649471333,-0.25019765,-0.22193299,9.946331
2781669328996,-0.1907122,-0.09865191,9.955955
2781689190591,-0.19656809,-0.062734075,9.946336
2781709048384,-0.27205184,-0.04338286,9.917856
2781728906303,-0.24291088,0.027011016,9.953466
2781748764223,-0.1956146,0.023521515,9.975218
2781768622016,-0.19193712,0.0070082536,9.989608
2781788479935,-0.20220353,0.060898557,10.028166
2781808331845,-0.2454645,0.05392245,9.943306
2781828189638,-0.2684209,0.034932002,9.944527
2781848047429,-0.29287013,0.015100318,9.949201
2781867905221,-0.3200077,-0.024997879,9.958689
2781887763014,-0.284046,0.0029670082,9.965957
2781907621986,-0.25988036,-0.027913133,9.990393
2781927479778,-0.25218377,-0.05861146,9.973375
2781947337571,-0.2794499,-0.035508342,9.954313
2781967195362,-0.27141324,-0.057220485,9.981753
2781987059505,-0.24523795,-0.0993925,10.015227
2782006917426,-0.26118022,-0.08656882,9.968051
2782026775345,-0.2497066,-0.09742648,9.975873
2782046633137,-0.25041875,-0.08238655,9.968277
2782066491058,-0.24251121,-0.14290404,9.942082
2782086348977,-0.22103061,-0.12302273,9.971776
2782106206458,-0.28036407,-0.077366605,10.001452
2782126064379,-0.36476365,-0.043513637,10.007506
2782145919979,-0.42959404,-0.028755452,9.981608
2782165777899,-0.46503848,-0.085578404,9.923355
2782185635820,-0.5091735,-0.07595942,9.933597
2782205487436,-0.51418775,-0.036446944,9.970109
2782225345356,-0.43690607,-0.012821753,9.990264
2782245203149,-0.40186465,-0.048879758,9.970475
2782265060940,-0.46073744,-0.025450202,9.948979
2782284912773,-0.41141942,-0.122378744,10.001065
2782304770438,-0.3775765,-0.14007463,9.956922
2782324628229,-0.35149258,-0.23977447,9.92089
2782344485893,-0.36623257,-0.16035789,9.988264
2782364343686,-0.36412993,-0.14536497,9.961376
2782384201349,-0.26485634,-0.15114854,9.912713
2782404054252,-0.2276047,-0.11130575,9.96564
2782423911789,-0.22496115,-0.14104708,10.005325
2782443769452,-0.26646614,-0.044385973,10.017297
2782463626988,-0.30583328,-0.028588383,10.021778
2782483484525,-0.2920141,-0.044366404,9.965289
2782503338293,-0.34599385,-0.042410776,9.935109
2782523195701,-0.35743368,-0.046771415,9.898325
2782543053238,-0.36109328,-0.017199429,9.931095
2782562910773,-0.40886444,6.6729944E-4,9.961838
2782582763646,-0.43379816,0.010202933,9.962117
2782602621055,-0.3986094,0.0028636311,9.972761
2782622478462,-0.32642496,-0.057199366,9.982332
2782642335870,-0.19408251,-0.108040035,10.011035
2782662193279,-0.11818006,-0.121532544,10.014316
2782682050686,-0.13928093,-0.11478226,10.00594
2782701911227,-0.21531571,-0.15705323,9.984662
2782721768764,-0.22663237,-0.07203623,9.960402
2782741626171,-0.26645428,-0.012437761,9.930986
2782761483707,-0.35854545,0.004143926,9.955246
2782781341116,-0.39814165,0.037856128,9.980766
2782801193554,-0.44887984,0.08038708,9.991671
2782821050834,-0.4342427,0.07778848,9.962914
2782840908243,-0.43164533,0.087981395,9.941531
2782860765650,-0.39826342,0.11597027,9.952393
2782880623058,-0.38740242,0.12032524,9.963043
2782900480467,-0.44934788,0.10035622,9.945198
2782920334741,-0.48450997,0.13557653,9.95452
2782940191893,-0.4821478,0.17365488,9.956319
2782960049174,-0.44771725,0.10550285,9.963346
2782979906325,-0.36157557,0.028121598,9.984871
2782999768847,-0.36845917,0.08085695,9.967208
2783019626000,-0.43129122,0.049545355,9.9260845
2783039483279,-0.41899705,0.038457166,9.962202
2783059340559,-0.4038929,0.026388638,9.993878
2783079197712,-0.42617622,0.039673097,9.977871
2783099055352,-0.44588467,0.027606927,9.928196
2783118912632,-0.3909853,0.0027609828,9.94961
2783138769913,-0.36223495,-0.0050780447,9.973099
2783158627192,-0.37296346,-0.030546058,9.980638
2783178484600,-0.3513218,-0.028244745,9.97443
2783198341881,-0.30464444,-0.008727873,9.959909
2783218210953,-0.32754907,-0.041683584,9.970146
2783238068489,-0.3397609,0.022432322,9.974543
2783257926026,-0.40983474,-0.0039791563,9.949156
2783277783561,-0.36680046,0.05661819,9.973157
2783297642388,-0.3552212,0.03395889,9.971187
2783317499925,-0.41856638,0.024203598,9.957245
2783337357588,-0.39018846,0.044886664,9.97604
2783357215124,-0.37334216,0.08475197,9.976443
2783377072789,-0.37778398,0.043426353,9.93532
2783396933233,-0.36541602,0.043133575,9.92044
2783416790769,-0.3314539,0.006830952,9.960372
2783436648434,-0.27083504,0.01847788,10.022213
2783456506097,-0.2870542,0.048471365,9.981042
2783476363633,-0.3596332,0.07072339,9.956265
2783496221298,-0.3917655,0.05117307,9.952577
2783516083392,-0.36891732,-0.011865485,9.951479
2783535941184,-0.32451972,0.033076104,9.961095
2783555798849,-0.33118424,0.06159304,9.956625
2783575656640,-0.35298678,0.05204416,9.965303
2783595517053,-0.3433315,0.03936226,10.00114
2783615374974,-0.3021326,-0.008461703,9.9552355
2783635232893,-0.3122857,-0.005647465,9.948743
2783655090813,-0.33102718,0.04481686,9.968833
2783674948606,-0.38475564,-0.034025688,9.962469
2783694811473,-0.36846244,-0.038308166,9.978648
2783714669521,-0.3302214,-0.018841293,9.984778
2783734527570,-0.30464426,-0.030020077,9.969981
2783754385489,-0.29663873,-0.024412895,10.000223
2783774243537,-0.32312116,0.006745891,9.988248
2783794101586,-0.36815146,-0.040950254,9.939759
2783813955031,-0.3556797,-0.00288143,9.954739
2783833812951,-0.3350757,-0.028343758,9.974662
2783853670872,-0.33490252,-0.06003246,9.977992
2783873528791,-0.3636244,-0.03903177,9.959414
2783893381493,-0.34005663,-0.02212874,9.963319
2783913239286,-0.3195782,-0.031552862,9.957751
2783933097077,-0.33895004,0.021903919,9.995069
2783952954997,-0.34080556,-0.0641017,9.985502
2783972812790,-0.30800977,-0.13455494,9.93641
2783992670581,-0.27376232,-0.04280299,9.94241
2784012534419,-0.33578795,0.02105793,9.971114
2784032392340,-0.40451428,0.005443276,9.975306
2784052250387,-0.35554117,-0.016089104,9.976291
2784072108307,-0.35838053,0.0014429763,9.982682
2784091966228,-0.30833352,0.0013792102,9.9783
2784111817753,-0.31638822,-0.026630607,9.970842
2784131675673,-0.36316252,-0.026166774,9.977123
2784151533466,-0.32873362,-0.01596465,9.97221
2784171389863,-0.35315225,-0.04611078,9.94625
2784191238870,-0.34181917,-0.03831807,9.9682255
2784211096535,-0.31219235,-0.020971045,9.984204
2784230954070,-0.30612275,-0.020908905,9.966191
2784250811734,-0.30387092,-0.018905358,9.9346285
2784270669399,-0.33677757,0.042147942,9.957019
2784290527062,-0.3652169,-0.021206588,9.99582
2784310379295,-0.33052933,-0.06522991,9.982328
2784330236832,-0.30076402,-0.02804347,9.961801
2784350094367,-0.32655552,0.015305453,9.947533
2784369951903,-0.35214907,0.01468411,9.973624
2784389809440,-0.3531333,-0.048439153,9.976236
2784409660425,-0.33932248,-0.008163857,9.96641
2784429517705,-0.34226975,0.027505921,9.966279
2784449374986,-0.42501697,0.038794257,9.984534
2784469232393,-0.4048452,-0.029770868,9.98608
2784489088088,-0.36580846,-0.00931722,9.959735
2784508945369,-0.36650512,-0.024171794,9.955989
2784528802648,-0.34706876,-0.017037736,9.953175
2784548659928,-0.37020913,-0.045369666,9.963853
2784568517209,-0.36775675,-0.014206935,9.959276
2784588374488,-0.38152346,0.035143178,9.97354
2784608230177,-0.3982879,0.0036097178,9.969385
2784628087330,-0.35761374,-0.038609773,9.979502
2784647944609,-0.3278464,-0.012667123,9.965069
2784667801889,-0.34820992,3.0423334E-4,9.969817
2784687659170,-0.35894892,-0.008555424,9.987773
2784707510603,-0.36262482,0.0047509833,9.937026
2784727367755,-0.3649126,-0.03014298,9.9549055
2784747224780,-0.34632915,-0.067914985,10.000227
2784767081803,-0.30167547,-0.003940922,9.993272
2784786936279,-0.30644655,-0.0017519945,9.97265
2784806793304,-0.31756046,-0.063552774,9.966485
2784826650327,-0.31354862,-0.06852824,9.972603
2784846507351,-0.3260111,-0.032651227,9.967795
2784866364376,-0.36037204,-0.009110348,9.952173
2784886221399,-0.3723323,-0.06724792,9.96441
2784906081099,-0.29620248,-0.056463625,10.002356
2784925938124,-0.29432186,-0.070968665,9.971249
2784945795147,-0.29783866,-0.047802664,9.955911
2784965652171,-0.31753016,-0.057808924,9.970663
2784985509196,-0.32939833,-0.013382543,9.981469
2785005370272,-0.3270452,-0.030867016,9.958982
2785025227296,-0.3316077,-0.01962509,9.931077
2785045084449,-0.33752275,0.029446997,9.958184
2785064941600,-0.3960899,0.0061434982,9.995809
2785084803505,-0.431861,-0.029951723,9.975054
2785104660658,-0.3384352,-0.03563881,9.949852
2785124517937,-0.35166132,-0.035722677,9.964578
2785144375089,-0.37454003,-0.020716092,9.974752
2785164232370,-0.31392178,0.036721826,9.972086
2785184089521,-0.3644341,-0.03867352,9.9471245
2785203948137,-0.36835027,-0.023232264,9.945106
2785223805418,-0.3374126,0.034180205,9.976652
2785243662569,-0.35721081,-0.005165056,9.977099
2785263519849,-0.3722714,0.004160379,9.956271
2785283377002,-0.35761553,0.028867831,9.965275
2785303238310,-0.34844983,0.03144848,9.98237
2785323095718,-0.3279999,0.06495114,9.965617
2785342952999,-0.34479612,0.008924703,9.955863
2785362810406,-0.37988982,-0.010689536,9.927516
2785382667686,-0.39149672,0.023257943,9.966719
2785402525095,-0.32812855,-0.015262364,9.978762
2785422386670,-0.2848332,-2.0541291E-4,9.944444
2785442244078,-0.27254227,0.00810387,9.943758
2785462101487,-0.33170956,-0.0480593,9.978449
2785481958894,-0.35727835,-0.012715351,9.98193
2785501821247,-0.32968473,-0.02347023,9.977416
2785521678784,-0.33093622,0.015069933,9.961211
2785541536191,-0.3598808,0.05019941,9.950319
2785561393727,-0.37318122,0.0016463692,9.943905
2785581251264,-0.37193838,0.038181253,9.983696
2785601112339,-0.39563355,0.016450804,9.977857
2785620970003,-0.37456977,0.034583554,9.931216
2785640827796,-0.36391518,0.009129203,9.956477
2785660685459,-0.38506147,0.0031402346,10.000452
2785680543123,-0.35342732,-0.004803578,9.967416
2785700400788,-0.3489918,-0.03162609,9.94493
2785720262632,-0.34007508,-0.0418055,9.936619
2785740120424,-0.35034493,-0.034732457,9.947826
2785759978217,-0.3408754,-0.07339719,9.949896
2785779836008,-0.3017852,-0.024278164,9.989947
2785799694524,-0.29476848,0.0012618593,10.007943
2785819552317,-0.29353124,-0.012394613,9.98875
2785839410108,-0.31846058,-0.047289647,9.948132
2785859267900,-0.31913567,-0.041076988,9.943743
2785879125693,-0.33335856,0.006404297,9.953819
2785898979565,-0.37155807,-0.013059464,9.981657
2785918837357,-0.3444638,0.0038264892,9.976346
2785938695022,-0.31790167,-0.06648215,9.953473
2785958552813,-0.32960853,-0.009382007,9.940311
2785978410477,-0.3664711,-0.010611679,9.96289
2785998268270,-0.34945938,-0.051517557,9.988997
2786018127298,-0.32461187,-0.052485835,9.95693
2786037985090,-0.31913894,8.096782E-4,9.946005
2786057842883,-0.3175566,-0.018028095,9.963719
2786077700674,-0.3353333,-0.07579708,9.973785
2786097558423,-0.3160425,-0.04943363,9.978012
2786117416216,-0.30632415,0.009591068,9.973747
2786137274007,-0.3832796,-0.024189193,9.945913
2786157128146,-0.35419488,-0.01666214,9.962384
2786176985939,-0.31096607,-0.027560389,9.981621
2786196837531,-0.33603662,-0.06746766,9.97394
2786216695195,-0.32537833,-0.07005473,9.958698
2786236552860,-0.30452442,-0.042441837,9.961388
2786256410523,-0.33463287,-0.06627743,9.977689
2786276268187,-0.3205015,-0.053168606,9.97565
2786296125852,-0.2833824,-0.04449145,9.965872
2786315976889,-0.3140853,-0.05354938,9.968876
2786335834425,-0.32903007,-0.018098257,9.969965
2786355691962,-0.32627824,-0.04999162,9.9824915
2786375549497,-0.3409621,0.009038654,9.966731
2786395399821,-0.36697245,0.018112652,9.968195
2786415257102,-0.37236315,-0.01374414,9.9516
2786435114381,-0.3325749,0.030129846,9.964581
2786454971789,-0.33425757,0.016238963,9.970825
2786474829070,-0.36609468,0.028848963,9.975951
2786494686349,-0.3808274,7.819348E-4,9.946721
2786514548194,-0.33408275,-0.06344138,9.966333
2786534405603,-0.28576285,-0.01624193,9.983863
2786554263010,-0.28558797,-0.072611466,9.975697
2786574120418,-0.30085865,-0.05150609,9.968624
2786593977827,-0.28738657,-0.07416942,9.966462
2786613833759,-0.32513607,-0.06308276,9.958755
2786633691167,-0.3227525,-0.03496701,9.971693
2786653548448,-0.29997998,-0.030414125,9.968323
2786673405855,-0.3034652,-0.032259986,9.979962
2786693265524,-0.30992004,-0.0036427132,9.98254
2786713122933,-0.32661283,-0.013840554,9.9581995
2786732980340,-0.35195336,-0.022817466,9.957968
2786752837748,-0.34247845,-0.020904634,9.957968
2786772695157,-0.322772,-0.0358386,9.949193
2786792552564,-0.30288777,0.017065084,9.972937
2786812409417,-0.2987331,-0.037288833,9.993108
2786832266826,-0.3420593,-0.020845795,9.980298
2786852124105,-0.32964188,-0.0161673,9.938568
2786871981513,-0.35223222,-0.029355226,9.942678
2786891838922,-0.34361544,-0.01280849,9.961434
2786911691502,-0.30866146,0.002077528,9.986398
2786931548782,-0.30145785,-0.00824637,9.97645
2786951406063,-0.34210244,-0.052811526,9.948135
2786971263214,-0.35601184,-0.059621383,9.942901
2786991120660,-0.3359914,-0.004911451,9.949223
2787010977941,-0.31990513,-2.303189E-4,9.96191
2787030835220,-0.31364954,-3.8439268E-4,9.975659
2787050692372,-0.3220448,0.020487748,9.961626
2787070549653,-0.32498574,0.028364358,9.958525
2787090406932,-0.33998707,0.017697634,9.982973
2787110263011,-0.36294052,-0.0098028025,9.971336
2787130120292,-0.33219403,0.0021128298,9.963235
2787149977571,-0.32589737,-0.008473622,9.961702
2787169834723,-0.32115972,-0.005405579,9.958164
2787189692004,-0.32449013,0.006075451,9.97016
2787209548326,-0.35171813,-0.0051520714,9.954137
2787229405478,-0.34379736,-0.03869784,9.956717
2787249262759,-0.32178414,-0.01187933,9.95585
2787269119910,-0.30338496,-0.020486653,9.9612055
2787288977324,-0.32286453,-0.05932218,9.962842
2787308834605,-0.33258745,-0.025645498,9.957591
2787328691756,-0.35555643,-0.058459017,9.945867
2787348549036,-0.3600846,-0.08974172,9.985387
2787368406189,-0.33101323,-0.07375499,9.963162
2787388263468,-0.28319648,-0.08589585,9.97039
2787408127599,-0.23240896,-0.08226822,9.958344
2787427984880,-0.25628287,-0.06513998,9.969702
2787447842287,-0.32236496,-0.04110198,9.984988
2787467699695,-0.35019428,-0.036035776,9.98148
2787487557104,-0.29723477,-0.04866378,9.967882
2787507416254,-0.30358756,-0.036060493,9.940291
2787527273662,-0.313023,0.019128883,9.953981
2787547131071,-0.323235,-0.0023169266,9.96828
2787566988478,-0.29490316,7.579772E-4,10.001338
2787586846904,-0.3003734,-0.019171132,9.971714
2787606704441,-0.3287772,-0.04626081,9.95421
2787626561848,-0.27103472,-0.015097678,9.9608555
2787646419256,-0.27319786,0.016402945,9.94645
2787666276793,-0.3341957,-0.028946549,9.987574
2787686134200,-0.3763615,0.018544083,9.988935
2787705997702,-0.3903377,0.012421888,9.947071
2787725855367,-0.32647082,-0.022623997,9.961793
2787745712902,-0.28107634,-0.012922518,9.981945
2787765570566,-0.33480197,-0.011293615,9.961329
2787785428231,-0.37620404,-0.03495797,9.949959
2787805285851,-0.36799204,0.016378773,9.935141
2787825143515,-0.31875739,-0.031816635,9.9875
2787845001052,-0.28306395,-0.069317475,10.018333
2787864858587,-0.2722309,-0.10364142,9.980426
2787884716251,-0.27466184,-0.10667759,9.960849
2787904573788,-0.3110074,-0.06730177,9.953906
2787924433737,-0.3291529,-0.05629315,9.956338
2787944291401,-0.31774282,-0.06574693,9.995341
2787964149066,-0.3267079,-0.036593873,9.963046
2787984006601,-0.35842752,-0.03287067,9.95915
2788003868036,-0.36828744,0.008873677,9.972496
2788023725701,-0.32533696,-0.016701039,9.966946
2788043583364,-0.30902255,-0.040526316,9.966775
2788063441028,-0.3286409,0.020303868,9.9806385
2788083298693,-0.3461069,-0.008813953,9.963702
2788103161600,-0.3278649,-0.004883921,9.97597
2788123019392,-0.3035919,-0.069758646,10.004002
2788142877313,-0.27206427,-0.02843065,9.959842
2788162735104,-0.30358833,-0.008191296,9.95874
2788182590028,-0.35319334,-0.0011019219,9.982289
2788202447821,-0.32709816,-0.038437303,9.995895
2788222299005,-0.28557023,-0.04943264,9.999856
2788242156797,-0.30527204,-0.030054033,9.957823
2788262014462,-0.32097733,-0.06566993,9.924562
2788281872253,-0.3368435,-0.046803925,9.932683
2788301728003,-0.32427666,-0.027841164,9.975535
2788321585796,-0.32497197,0.0056324834,9.9960785
2788341443587,-0.34414813,0.013610439,9.986945
2788361301251,-0.3688595,-0.0020249425,9.96202
2788381159044,-0.33789006,-0.029825758,9.94425
2788401016175,-0.3184874,-0.03985899,9.954788
2788420873967,-0.34205925,-0.04318356,9.971528
2788440731760,-0.32030368,-0.028034229,9.975297
2788460589423,-0.29096174,-0.06773091,9.973414
2788480447215,-0.30429995,-0.074912764,9.98551
2788500305008,-0.3135735,-0.07055669,9.983506
2788520161275,-0.27574664,-0.05952134,9.974349
2788540018939,-0.28285596,-0.07685678,9.960949
2788559876732,-0.2965132,-0.0438933,9.967312
2788579734395,-0.30600935,-0.07139519,9.975077
2788599590236,-0.31118712,-0.0768439,9.972813
2788619447901,-0.28680113,-0.0322452,9.948088
2788639305564,-0.26695928,-0.018706989,9.980448
2788659163228,-0.288571,-0.072945766,9.983401
2788679020893,-0.2948607,-0.06404078,9.988355
2788698873832,-0.30724475,-0.09269007,9.969338
2788718731368,-0.2930385,-0.054860607,9.956121
2788738588905,-0.27088028,-0.04470041,9.962187
2788758446440,-0.2663514,-0.07112266,9.981947
2788778303976,-0.27964592,-0.047387302,9.972325
2788798161513,-0.29035664,-0.08197576,9.970751
2788818010478,-0.27652365,-0.069909975,9.936759
2788837867758,-0.24675691,-0.008141123,9.968185
2788857725167,-0.26456603,-0.108118236,9.994874
2788877582574,-0.3085911,-0.062184326,9.957917
2788897433885,-0.30218363,-0.036452457,9.972329
2788917291038,-0.26915738,-0.019841043,9.965666
2788937148189,-0.27731216,-0.042728413,9.946026
2788957005469,-0.3192223,-0.03115756,9.950657
2788976862622,-0.3204961,-0.0049832547,9.968303
2788996719773,-0.31198722,0.013248732,9.951986
2789016578686,-0.3251556,0.009203392,9.956388
2789036435967,-0.3275444,0.040023353,9.966382
2789056293118,-0.32418853,-0.016758963,9.973268
2789076150398,-0.31290165,0.051828198,9.974984
2789096007551,-0.31828415,0.104188986,9.968215
2789115863605,-0.3201741,0.064677864,9.98172
2789135720757,-0.31150785,0.038624775,9.961739
2789155577910,-0.33490568,0.0610578,9.9328165
2789175435061,-0.3858242,0.09692662,9.94748
2789195298168,-0.41714054,0.037053015,9.950215
2789215155321,-0.3593194,0.020872202,9.961827
2789235012600,-0.34567073,0.035388127,9.953718
2789254869880,-0.38403368,1.2677562E-4,9.951384
2789274727033,-0.3209352,0.01120941,9.98163
2789294584312,-0.31308222,-0.027588641,9.943816
2789314440024,-0.32187068,0.036052268,9.953609
2789334297177,-0.34587407,0.089742154,9.989933
2789354154456,-0.37319827,0.06415001,9.999165
2789374011608,-0.38436723,0.079758115,9.959013
2789393868889,-0.39091003,0.07161812,9.927788
2789413732459,-0.349669,0.08121567,9.934377
2789433589739,-0.40080813,0.0116102,9.989263
2789453447148,-0.36613792,0.020357983,9.995646
2789473304427,-0.28042695,0.059234887,9.985367
2789493172429,-0.30772546,0.0017578251,9.986488
2789513029966,-0.34262872,-0.053626005,9.990546
2789532887501,-0.31207088,-0.05008063,9.958705
2789552745037,-0.27707314,-0.07759899,9.974829
2789572602574,-0.25855073,-0.11334178,9.990619
2789592460109,-0.2654869,-0.13257074,9.980607
2789612323746,-0.2757424,-0.18436565,10.002902
2789632181539,-0.23702465,-0.23602715,10.027136
2789652039202,-0.23923017,-0.28121805,10.020329
2789671896994,-0.23265173,-0.32898876,10.007882
2789691754659,-0.22757381,-0.3062373,9.997647
2789711620075,-0.23754674,-0.33506495,9.995405
2789731477995,-0.29285368,-0.33408695,9.994555
2789751335916,-0.33729038,-0.32242647,9.991131
2789771193835,-0.28356823,-0.3152267,9.986543
2789791046598,-0.27278435,-0.3702698,9.951697
2789810904519,-0.29252544,-0.34161693,9.909465
2789830762310,-0.29210952,-0.26663172,9.884018
2789850620102,-0.25077054,-0.17988709,9.912368
2789870478023,-0.2046704,-0.14876965,9.944739
2789890335814,-0.27480853,-0.13971609,9.91518
2789910190545,-0.29779655,-0.1319822,9.894701
2789930048338,-0.25993568,0.04227231,9.911554
2789949906129,-0.34738964,0.06538651,9.94376
2789969763921,-0.3759493,-0.07469768,9.968028
2789989621714,-0.1302954,-0.18360095,9.934399
2790009485966,0.02002111,-0.15592898,9.8933935
2790029343886,-0.033508424,0.038097486,9.861117
2790049201807,-0.19072583,0.12813681,9.936801
2790069059726,-0.4416101,0.15532963,10.008447
2790088916451,-0.6606417,0.27397817,10.030392
2790108774372,-0.8349648,0.41851747,10.094349
2790128632419,-1.1074455,0.40317053,10.061378
2790148490339,-1.2789305,0.36284223,10.080604
2790168348260,-1.0969296,0.36210513,10.149653
2790188206179,-0.6967809,0.34665808,10.094044
2790208055018,-0.44283852,0.27417755,10.057873
2790227912811,-0.30947807,0.30543014,10.047942
2790247770730,-0.10732636,0.3604794,9.99287
2790267628650,-0.051602002,0.30214736,10.011241
2790287486443,-0.4058973,0.12225696,10.05707
2790307333433,-0.98276746,-0.098247916,10.035362
2790327191097,-1.0786281,-0.22703564,10.036643
2790347048762,-0.65151143,-0.16969386,9.984099
2790366906425,-0.12961075,-0.24106103,9.82808
2790386764089,0.17067878,-0.27251586,9.794746
2790406621754,0.15350443,-0.2703938,9.834592
2790426477509,0.086231396,-0.16974518,9.928972
2790446335045,-0.08036459,-0.21123418,9.995798
2790466192582,-0.24368873,-0.19755156,10.043824
2790486050245,-0.32578945,-0.06930919,10.075056
2790505903557,-0.32700938,-0.027548801,10.007726
2790525760966,-0.2660451,0.07178308,9.894907
2790545618373,-0.16833603,0.071653105,9.868554
2790565475781,-0.13542296,0.020518007,9.881672
2790585333318,-0.1679594,-0.025125641,9.989243
2790605181014,-0.13407718,-0.092647634,9.992824
2790625038294,-0.13536999,-0.11377622,9.964682
2790644895447,-0.11038732,-0.110157065,9.941722
2790664752726,-0.092723876,-0.056439955,9.957232
2790684609878,-0.11169855,0.031916685,9.926552
2790704467159,-0.15368612,-0.067928486,9.916761
2790724327211,-0.17362665,-0.1482464,9.916698
2790744184491,-0.15567936,-0.17288615,9.894477
2790764041644,-0.08859893,-0.09696832,9.934322
2790783898795,-0.012697783,-0.10884467,9.939433
2790803748637,0.0092328265,-0.19499636,9.895795
2790823605662,-0.02293168,-0.15907843,9.98267
2790843462685,0.022920337,-0.13054696,10.042872
2790863319837,0.08237928,-0.16563156,9.964346
2790883176862,0.13652346,-0.071405,9.889253
2790903026967,0.0027420027,-0.3523876,9.775787
2790922883863,-0.05078509,-0.43852535,9.776278
2790942740760,0.10885081,-0.39797497,9.859577
2790962597527,0.23720758,-0.46764913,10.02715
2790982454423,0.36759067,-0.33636338,10.201225
2791002311192,0.49377733,-0.25859272,10.17547
2791022173975,0.58609456,-0.29612437,10.143545
2791042030999,0.5252906,-0.23178977,10.03483
2791061887896,-0.07087446,-0.1346958,9.7993145
2791081744791,-0.7276097,-0.30651212,9.82399
2791101606660,-0.8095919,-0.1559531,9.918631
2791121463685,-0.6460025,0.04357825,9.853705
2791141320836,-0.469684,0.25812382,9.79317
2791161177860,-0.4138765,0.64396083,9.8106575
2791181034885,-0.50795823,0.80812955,9.972748
2791200893365,-0.69257486,0.7163237,10.042812
2791220750389,-0.6207873,0.6396843,9.97404
2791240607542,-0.37342826,0.49196,9.949066
2791260464565,-0.28454924,0.49839222,10.080176
2791280321589,-0.27498883,0.43895447,9.994206
2791300178742,-0.31708065,0.32572857,9.815667
2791320037313,-0.39839882,0.2945649,9.705222
2791339894465,-0.3238564,0.17294733,9.736241
2791359751618,-0.23175699,0.14640567,10.069316
2791379608769,-0.0315863,0.21122047,10.252292
2791399466200,0.037271567,0.1176293,9.991374
2791419323353,0.057594433,0.07885661,9.825046
2791439180376,0.35235858,0.18977936,10.002867
2791459037528,0.6435418,0.28452596,10.177079
2791478894681,0.34913054,0.27283913,10.131433
2791498751832,-0.1982402,0.1019423,10.112042
2791518614098,-0.19180651,0.42817283,10.233922
2791538471251,-0.11228031,0.7217183,10.084425
2791558328530,-0.54126793,0.6175418,9.92334
2791578185682,-0.7783689,0.30146766,9.765293
2791598042963,-0.3198382,-0.036454767,9.622398
2791617907678,-0.013555709,0.012795204,9.833319
2791637765214,-0.047525242,0.26321524,10.077783
2791657622623,-0.22895029,0.42809653,10.191019
2791677480030,-0.2712662,0.34297466,10.098238
2791697345276,-0.1789563,0.2267521,9.963862
2791717202813,0.04657443,-6.853706E-4,9.876954
2791737060476,0.12922904,-0.12189949,10.008444
2791756918140,-0.0057861865,-0.03108005,10.08944
2791776775805,-0.21300013,0.13999002,9.9828
2791796633468,-0.3131329,0.25396615,9.882093
2791816485616,-0.31379423,0.2735062,9.870161
2791836343153,-0.2974709,0.22900312,9.907053
2791856200688,-0.3414505,0.14648753,9.938352
2791876058224,-0.35631877,0.18968967,9.909109
2791895915761,-0.285109,0.26891395,9.871715
2791915775405,-0.16774552,0.2741255,9.843933
2791935632941,-0.14746156,0.29645824,10.042179
2791955490478,-0.17102148,0.29785413,10.116574
2791975348013,-0.12269872,0.2971201,10.12567
2791995210487,-0.09740138,0.22664537,9.99469
2792015068280,-0.08073708,0.1240255,9.988047
2792034925943,-0.07534894,0.021279301,10.018972
2792054783607,-0.04471546,-0.06955856,10.026625
2792074641272,-0.055681765,-0.08009108,9.976977
2792094498935,-0.093012616,-0.09504507,9.9504595
2792114356581,-0.05044013,-0.08192657,9.901314
2792134214374,-0.032056976,-0.061775446,9.950531
2792154072037,-0.075555265,-0.022604052,9.988994
2792173929829,-0.09283776,0.013374126,9.941497
2792193787494,-0.080988616,0.059837062,9.936051
2792213631389,-0.093704075,0.08709842,9.965586
2792233488925,-0.12831607,0.10878124,10.004303
2792253346462,-0.09523404,0.12432068,10.003497
2792273203997,-0.0730722,0.13203974,10.018322
2792293059820,-0.09339147,0.15467884,9.923064
2792312917485,-0.10553675,0.1356096,9.908716
2792332775020,-0.046149537,0.113568574,9.938608
2792352632556,-0.031363603,0.083106495,10.0128355
2792372490093,-0.07132636,0.105002135,10.01274
2792392347756,-0.00838873,0.1501791,9.969038
2792412189164,-0.040311735,0.20337678,10.030104
2792432046317,-0.20670421,0.23998976,9.941211
2792451903596,-0.2251541,0.32662797,9.92238
2792471760748,-0.24744397,0.3733802,9.945049
2792491617901,-0.24741666,0.35983375,9.977537
2792511476978,-0.26564923,0.33336508,9.953474
2792531334130,-0.24039462,0.2700639,10.009988
2792551191283,-0.1876447,0.21741942,10.099913
2792571048434,-0.17320362,0.16507976,9.959363
2792590903635,-0.1770275,0.14465985,9.932909
2792610760788,-0.114223264,0.14721803,10.049139
2792630617811,-0.107629314,0.18073477,10.059636
2792650474963,-0.15872489,0.19696909,9.904958
2792670332116,-0.22504318,0.12463859,9.866401
2792690189267,-0.17864132,0.035704285,9.956437
2792710047321,-0.09132181,0.01925822,10.022883
2792729904474,-0.099204965,0.08744683,10.074395
2792749761497,-0.1586329,0.056180533,10.1531515
2792769618649,-0.19489428,0.04834455,10.073772
2792789475802,-0.23685502,0.021054428,9.853208
2792809317640,-0.14597733,-0.03868428,9.734399
2792829174408,-0.012613809,-0.050457865,9.897623
2792849031177,-0.0148318615,-0.0498558,10.090805
2792868888072,-0.053083118,-0.054778613,10.132327
2792888744840,-0.12518665,0.034205712,9.990964
2792908601737,-0.23589101,0.14496173,9.822477
2792928461972,-0.2253898,0.10226687,9.90601
2792948318740,-0.14259312,-0.03352529,10.035371
2792968175637,-0.07571473,-0.08578621,10.044987
2792988032404,-0.19097117,-0.039174072,9.965824
2793007894593,-0.24424347,0.039289746,9.971274
2793027751490,-0.19793695,0.047419194,9.963456
2793047608385,-0.24572016,0.07786838,9.893305
2793067465281,-0.32561278,0.07069951,9.841678
2793087322050,-0.27637073,0.1860794,9.847761
2793107188001,-0.2931455,0.32522944,9.936409
2793127045025,-0.2987708,0.31613415,9.95396
2793146902050,-0.25222996,0.2507229,9.989763
2793166759201,-0.2079732,0.24866223,10.009297
2793186616225,-0.17080195,0.24449806,9.965502
2793206473250,-0.12865832,0.26633173,9.938911
2793226335856,-0.07490966,0.21829122,9.950555
2793246193008,-0.04973824,0.16712224,10.035193
2793266050161,-0.12639053,0.24133128,10.080296
2793285907312,-0.11449411,0.24306166,9.972985
2793305772435,-0.01423003,0.23923892,9.8728075
2793325629844,-0.026863454,0.22879975,9.904142
2793345487123,-0.06496015,0.18363318,9.96766
2793365344531,-0.00468949,0.15108049,10.040259
2793385201812,0.024862612,0.083857074,10.046569
2793405061724,-0.01816241,0.04160261,10.049525
2793424919004,-0.081315495,0.051683933,9.945945
2793444776413,-0.14569762,0.06006866,9.925324
2793464633820,-0.17972319,0.08951067,9.896932
2793484491228,-0.13200825,0.05957421,9.879333
2793504348637,-0.11437223,-0.005037068,10.008131
2793524215522,-0.15823011,0.001986827,10.079444
2793544073186,-0.20515668,0.06814117,10.08535
2793563930851,-0.23842806,0.047303423,10.035553
2793583788386,-0.2962938,0.01997359,10.029739
2793603646708,-0.24537586,0.06819782,9.92394
2793623504373,-0.20786239,0.08881774,9.879484
2793643362164,-0.20989844,0.09031227,9.958254
2793663219828,-0.2281621,0.06669218,10.024098
2793683077621,-0.17132585,0.05642733,10.050277
2793702940818,-0.15256496,0.06582699,10.057199
2793722798738,-0.19592214,0.07493045,10.01168
2793742656531,-0.1902342,0.035843015,10.011855
2793762514450,-0.16953097,0.013477613,10.036673
2793782372370,-0.207773,-0.021987975,10.044391
2793802230291,-0.23123375,-0.06296874,9.988566
2793822082188,-0.23752165,-0.06901078,9.92807
2793841939980,-0.2248908,-0.072745435,9.911197
2793861797773,-0.23038284,-0.0824937,9.978093
2793881655564,-0.24369219,-0.09772848,10.029421
2793901517897,-0.26723975,-0.13128084,9.991607
2793921375818,-0.237786,-0.16911805,9.9573
2793941233737,-0.23324686,-0.13056375,9.939603
2793961091657,-0.23521288,-0.1477337,9.96735
2793980949578,-0.24702802,-0.1643671,10.019462
2794000807497,-0.21008712,-0.16947637,9.980457
2794020666813,-0.16565548,-0.16253917,9.875046
2794040524734,-0.18232806,-0.105479605,9.921112
2794060382653,-0.23457938,-0.06518202,10.021552
2794080240573,-0.261328,-0.062151097,10.016631
2794100098366,-0.2513891,-0.049676258,9.912108
2794119957242,-0.27943036,0.016668567,9.84626
2794139815290,-0.29747045,0.07539042,9.851725
2794159673211,-0.33126897,0.10015855,9.896009
2794179531258,-0.34979922,0.10633823,9.971544
2794199381114,-0.2707066,0.07827383,10.039307
2794219238907,-0.21617296,0.056940775,10.067258
2794239095113,-0.16187863,0.036776777,10.026759
2794258952905,-0.07479075,-0.041824292,9.995045
2794278810698,-0.07008876,-0.08798919,10.0431
2794298668617,-0.057385143,-0.10339613,10.024391
2794318520661,-0.07270481,-0.07016604,9.940951
2794338378454,-0.105657995,-0.022013247,9.912871
2794358236117,-0.117885865,-0.059460804,10.012208
2794378093909,-0.121751264,-0.11975086,10.1269655
2794397951574,-0.13311157,-0.18135035,10.097731
2794417792011,-0.17741504,-0.19144964,9.9341755
2794437649291,-0.10996981,-0.16932206,9.809401
2794457506444,-0.12249748,-0.1670631,9.899803
2794477363723,-0.15515389,-0.18544516,10.082257
2794497216505,-0.19346799,-0.16183303,10.0722685
2794517073658,-0.21519393,-0.16271769,9.9183235
2794536930809,-0.19782837,-0.120262004,9.8664255
2794556787961,-0.1982008,-0.10553634,9.907829
2794576645114,-0.3001773,-0.13289396,9.919215
2794596502265,-0.32453462,-0.14916186,9.902693
2794616356357,-0.29293573,-0.08864795,9.878377
2794636213510,-0.28659722,-0.0063715875,9.8725815
2794656070533,-0.32462883,0.048636753,9.871338
2794675927557,-0.31058928,0.07078174,9.925815
2794695784582,-0.25965124,0.12930351,10.012717
2794715646012,-0.2520056,0.13652603,9.986399
2794735503164,-0.21948501,0.14579996,9.949685
2794755360317,-0.17010228,0.2363479,10.056001
2794775217468,-0.22880301,0.17392258,10.153078
2794795067476,-0.2135376,0.05189685,10.16343
2794814924501,-0.12338059,-0.020825671,10.037539
2794834781396,-0.07083931,-0.0440678,9.947933
2794854638420,-0.11538597,-0.0017161435,9.872471
2794874495317,-0.15358357,0.060887042,9.834421
2794894352340,-0.13934945,0.05946721,9.901792
2794914211485,-0.12972143,0.06045509,10.112592
2794934068382,-0.15578912,0.009817316,10.151099
2794953925405,-0.21283762,-0.012828759,10.03086
2794973782429,-0.22048132,-0.002681012,9.921762
2794993639454,-0.155194,0.0030236011,9.8924055
2795013500663,-0.122896396,-0.03144779,9.905993
2795033357687,-0.15822895,-0.066549145,9.941828
2795053214712,-0.22770405,-0.06586287,9.97391
2795073071735,-0.24488044,-0.04069634,9.993059
2795092929027,-0.22477916,-0.02252819,9.978401
2795112786052,-0.21147086,-0.0027989233,9.982005
2795132643075,-0.2089993,-0.0020969873,9.942934
2795152500227,-0.21188724,-0.012798202,9.907483
2795172357252,-0.19720012,0.04706811,9.915979
2795192214403,-0.20588957,0.10406681,9.915665
2795212072804,-0.28042394,0.13393565,9.970352
2795231929957,-0.25451967,0.13604502,10.083
2795251786980,-0.20056891,0.14133674,10.128965
2795271644004,-0.17173286,0.10898355,10.01538
2795291501029,-0.20595853,0.08432693,9.901731
2795311361532,-0.19465835,0.04722183,9.924768
2795331218684,-0.10054102,0.022113374,9.931194
2795351075837,-0.12287985,0.02688559,9.96752
2795370932988,-0.16777205,0.017586607,9.95442
2795390790140,-0.15968108,0.05724267,9.986972
2795410647293,-0.17170542,0.023775028,10.026364
2795430509026,-0.1254062,-0.054403916,10.084807
2795450366306,-0.16989847,-0.08979646,10.042696
2795470223459,-0.1756846,-0.10035366,9.951002
2795490080610,-0.21320243,-0.060152713,9.913051
2795509946267,-0.2569883,-0.008341518,9.92742
2795529803548,-0.29944563,-0.036774285,9.949082
2795549660955,-0.30863443,-0.0483808,9.919325
2795569518363,-0.29696956,-0.0348917,9.915689
2795589375772,-0.1932994,-0.02651591,9.936028
2795609240449,-0.24009134,-0.004298511,9.996468
2795629098113,-0.32379058,-0.013651677,9.954429
2795648955650,-0.3342919,-0.07540431,9.939865
2795668813313,-0.28449485,-0.06891419,9.995271
2795688670977,-0.20854454,-0.113012604,10.005434
2795708528642,-0.1568869,-0.1696621,9.98344
2795728391887,-0.12860379,-0.21935962,9.973089
2795748249679,-0.09341336,-0.2832175,9.9781685
2795768107472,-0.09340412,-0.2881332,9.999019
2795787965263,-0.087483145,-0.2691751,10.012509
2795807817880,-0.11416397,-0.24511266,10.038979
2795827675673,-0.11531725,-0.2609085,10.006644
2795847533464,-0.097475536,-0.24691612,9.94575
2795867391128,-0.17446901,-0.20258622,9.948873
2795887248921,-0.28089264,-0.113145806,9.9466095
2795907103067,-0.31448382,-0.045979492,9.951282
2795926960731,-0.27512908,2.0366164E-4,9.954634
2795946818396,-0.2946576,0.02880472,9.951325
2795966676187,-0.33503354,0.020429827,9.95406
2795986533851,-0.30492643,0.016270883,9.970723
2796006391516,-0.27483955,0.04538907,9.972187
2796026248935,-0.287835,0.0628346,9.940703
2796046106599,-0.28646833,0.037205666,9.927037
2796065964264,-0.2213746,0.048147388,9.965837
2796085821927,-0.20532252,0.036118712,9.982631
2796105679792,-0.19603871,0.006242506,10.018287
2796125537457,-0.1709882,-0.047178954,10.007827
2796145395120,-0.15639183,-0.08146868,9.961879
2796165252784,-0.18224338,-0.061080296,9.954981
2796185110449,-0.16889839,-0.0533002,9.977627
2796204957939,-0.15979049,-0.0624092,9.965999
2796224815475,-0.14332595,-0.03509339,9.966211
2796244672884,-0.14798392,0.009965738,10.008803
2796264526363,-0.19540896,0.01171743,9.986746
2796284383771,-0.19979829,0.009492486,9.9553385
2796304241308,-0.20289463,0.014543925,9.962063
2796324095088,-0.1966032,0.03433771,9.981316
2796343952496,-0.21159118,0.04740749,9.96181
2796363809905,-0.23584381,0.039260708,9.92703
2796383667312,-0.21233176,0.049021542,9.952003
2796403522207,-0.22768699,0.07795033,9.960417
2796423379488,-0.24765581,0.05226073,9.958848
2796443236767,-0.20660686,0.039888516,9.962873
2796463094047,-0.1947544,0.003156959,9.968979
2796482951328,-0.2007324,0.017671749,9.97577
2796502808607,-0.20787366,0.028342739,9.974371
2796522670635,-0.25045258,0.023573577,9.97416
2796542528044,-0.22114737,0.0053830827,10.014918
2796562385323,-0.1763829,-0.0067941598,10.025065
2796582242731,-0.21105607,-0.015030846,9.979553
2796602100012,-0.25441554,-0.033366363,9.925751
2796621950251,-0.19842282,-0.036078822,9.922295
2796641807531,-0.19630137,-0.014677637,9.972873
2796661664684,-0.27143893,-0.025750905,9.993806
2796681521963,-0.28964952,-0.036019474,9.9614105
2796701376329,-0.23880419,-0.019189276,9.970482
2796721233482,-0.22223486,0.007294586,9.974532
2796741090633,-0.24051706,-0.028298113,9.966558
2796760947657,-0.2315383,-0.057992008,9.965652
2796780804810,-0.2323451,-0.056684453,9.995718
2796800661961,-0.22708867,-0.048973322,10.005579
2796820517071,-0.25045848,-0.063154936,9.971938
2796840374224,-0.2528012,-0.08900823,9.961357
2796860231247,-0.24918912,-0.0815457,9.95945
2796880088271,-0.25856072,-0.095283724,9.956971
2796899945296,-0.23697433,-0.06808371,9.960968
2796919801960,-0.24006125,-0.06757559,10.018348
2796939658856,-0.23951446,-0.08710509,10.023431
2796959515881,-0.22503452,-0.10088697,9.974797
2796979372904,-0.1997487,-0.09606635,9.961017
2796999233525,-0.23652735,-0.0797708,9.96415
2797019090550,-0.25628957,-0.05694779,9.973146
2797038947701,-0.25353974,-0.07125445,9.981491
2797058804725,-0.2591275,-0.055603094,10.017134
2797078661878,-0.23002657,-0.08837396,9.990129
2797098518901,-0.20845781,-0.088273905,9.961137
2797118378747,-0.18784784,-0.095798746,9.955716
2797138235900,-0.19207229,-0.11696491,9.962814
2797158093051,-0.19620457,-0.08617293,9.96676
2797177950203,-0.20563568,-0.04830733,9.985889
2797197807356,-0.25003332,-0.015729036,9.988652
2797217669895,-0.25682902,-0.045599777,9.9841795
2797237527175,-0.23889513,-0.05297701,9.978244
2797257384456,-0.22942401,-0.015717842,9.961764
2797277241735,-0.254904,0.011821244,9.958055
2797297100868,-0.24224202,-0.015245225,9.968456
2797316958149,-0.17905058,-0.017920224,10.063162
2797336815556,-0.20378484,-0.006279871,10.127654
2797356672964,-0.26511756,0.01505403,10.046914
2797376530245,-0.23154317,-0.019791221,9.891739
2797396387652,-0.13176653,-0.07482928,9.931366
2797416242433,-0.11803621,-0.08354476,9.944042
2797436099714,-0.07911417,-0.1189251,9.893368
2797455957121,-0.1399708,-0.07672716,9.980203
2797475814401,-0.22435395,-0.04433433,9.995753
2797495671682,-0.22674325,-0.025437552,9.988272
2797515537950,-0.22428907,-0.04142345,9.972894
2797535395358,-0.22282314,-0.05921786,9.9589
2797555252767,-0.20622127,-0.020276098,9.94523
2797575110302,-0.18003145,-0.004085331,9.948063
2797594967655,-0.2295157,0.017506594,9.980739
2797614825192,-0.28665575,-0.009259761,9.962202
2797634682727,-0.28063685,-0.017506236,9.954215
2797654540263,-0.21006687,-0.037253957,9.951377
2797674397672,-0.16387567,-0.045479245,9.982165
2797694255207,-0.16827363,-0.015015183,9.951988
2797714117692,-0.24681748,0.0016563354,9.947285
2797733975357,-0.25420755,0.011894624,10.005023
2797753833020,-0.22400366,-0.033653468,9.999549
2797773690684,-0.18494432,-0.036312677,9.957632
2797793548349,-0.17937873,-0.010997473,9.974883
2797813397704,-0.17392085,-0.0020953284,9.975754
2797833255112,-0.12812863,-0.033476353,9.980587
2797853112521,-0.11614826,-0.0529508,9.994525
2797872970056,-0.15719831,-0.012792582,9.988932
2797892827464,-0.20020276,-0.008533034,9.960952
2797912685001,-0.22691134,0.0163703,9.962667
2797932542426,-0.24367791,0.018504074,9.941468
2797952399834,-0.2264506,-0.022093695,9.944446
2797972257243,-0.1991857,-0.01863173,9.967457
2797992114650,-0.19834475,0.0023613416,9.979138
2798011980080,-0.21069433,0.054245584,10.00256
2798031837745,-0.21872333,0.051149596,10.051414
2798051695280,-0.17533241,0.019773897,10.043737
2798071552944,-0.18636812,-0.030475784,9.927505
2798091410481,-0.19716772,-0.05523201,9.8948555
2798111271294,-0.16854085,-0.02188902,9.946833
2798131129086,-0.15417199,5.638211E-4,9.995775
2798150986879,-0.16575721,-0.02319847,9.993191
2798170844542,-0.20443596,-0.0412732,10.002932
2798190702334,-0.20476095,-0.075211294,9.963467
2798210560127,-0.1711546,-0.080594905,9.926825
2798230368400,-0.18693694,-0.052156612,9.921849
2798250225539,-0.21017288,-0.014889646,9.964028
2798270082308,-0.19460471,-0.020282084,10.014476
2798289939203,-0.21955623,-0.053149085,9.985398
2798309792306,-0.22199264,-0.032585815,9.946041
2798329648947,-0.22834776,-0.02518982,9.969922
2798349505586,-0.2050593,-0.045628536,9.964147
2798369362354,-0.18711063,-0.061732225,9.9422455
2798389218995,-0.22408426,-0.06931983,9.978222
2798409075183,-0.21429104,-0.041644104,9.993445
2798428931695,-0.19367787,-0.033295628,9.957086
2798448788336,-0.21680677,-0.019404499,9.960558
2798468644975,-0.24127556,-0.023672275,9.964597
2798488501487,-0.22010678,-0.049445275,9.959751
2798508358128,-0.18260579,-0.026246559,9.963146
2798528225543,-0.20115378,0.022198811,10.004658
2798548082183,-0.21987614,-0.028356044,10.006619
2798567938952,-0.16268358,-0.10339559,9.946739
2798587795719,-0.11758872,-0.070341036,9.960155
2798607635115,-0.14363623,-0.060165226,9.993615
2798627491500,-0.16589126,-0.07768317,9.984928
2798647347883,-0.17977618,-0.078288235,9.967723
2798667204267,-0.17837445,-0.07427277,9.988903
2798687060524,-0.18053345,-0.068313316,10.001347
2798706923307,-0.2007945,-0.06057203,9.96553
2798726779691,-0.22628607,-0.01519319,9.9535265
2798746636204,-0.22531573,-0.07209091,9.956419
2798766492587,-0.19576171,-0.09339136,9.960686
2798786348971,-0.17781524,-0.07946731,9.975074
2798806205484,-0.19228086,-0.08627436,9.973482
2798826075080,-0.18703672,-0.06469362,10.001716
2798845931720,-0.18449989,-0.09495177,9.956925
2798865788361,-0.17376374,-0.1231514,9.944649
2798885645000,-0.15179385,-0.14103985,9.980689
2798905511916,-0.16382071,-0.09759321,9.98067
2798925368685,-0.19448617,-0.07091233,9.970522
2798945225580,-0.20113513,-0.08743867,9.987583
2798965082348,-0.18158838,-0.1112783,9.973927
2798984939245,-0.14830703,-0.102231085,9.929853
2799004796012,-0.15853786,-0.09318909,9.9535055
2799024666665,-0.1888022,-0.07170334,10.002061
2799044523818,-0.1985215,-0.075507864,10.002272
2799064380841,-0.1817529,-0.089529924,9.987139
2799084237865,-0.16923088,-0.08776726,9.955487
2799104094890,-0.18248856,-0.10213411,9.949936
2799123963134,-0.22244877,-0.08473099,10.000815
2799143820542,-0.21259056,-0.07840505,9.926916
2799163677823,-0.26376677,-0.04259426,9.937317
2799183535230,-0.24763931,-0.027170906,9.957579
2799203398044,-0.25914297,-0.028889222,9.958881
2799223255581,-0.25878233,0.0016309426,9.951864
2799243113116,-0.23738074,-0.011872362,9.9636545
2799262970652,-0.20048732,-0.041631855,9.983651
2799282828189,-0.24020049,-0.028645026,9.97513
2799302685724,-0.25549605,-0.016516414,9.987072
2799322548185,-0.21829355,-0.020271622,9.973655
2799342405850,-0.1626392,-0.06485261,9.997429
2799362263641,-0.13101195,-0.050535716,10.036801
2799382121305,-0.17461327,-0.03430509,9.967949
2799401978970,-0.14617501,-0.023774816,9.9934845
2799421838822,-0.15749091,-0.069227464,10.049213
2799441696614,-0.14519365,-0.08065058,9.997221
2799461554407,-0.16995159,-0.071403995,9.95003
2799481412198,-0.20410158,-0.019548338,9.995383
2799501281212,-0.23633203,-0.025610453,10.023498
2799521139389,-0.2667557,-0.0616426,10.007201
2799540997436,-0.2503471,-0.047670454,9.997634
2799560855612,-0.29224482,0.009209827,9.972894
2799580713661,-0.25387168,-0.051726803,9.914133
2799600571836,-0.19447412,-0.061397098,9.950425
2799620433724,-0.19364437,-0.030839847,9.980125
2799640292157,-0.30074498,-5.370691E-4,9.987396
2799660150460,-0.3586998,0.007851254,10.00351
2799680008892,-0.34688282,-0.011781736,9.97686
2799699867325,-0.31835943,-0.0638391,9.9568615
2799719731766,-0.2560079,-0.1185564,9.986188
2799739590454,-0.19015531,-0.16253516,9.967926
2799759449143,-0.13151681,-0.14880143,9.951046
2799779307830,-0.16502371,-0.097981125,9.9714575
2799799146861,-0.1605883,-0.14370489,9.993904
2799819004910,-0.10892214,-0.2189039,10.000145
2799838862957,-0.07318157,-0.23933148,9.971727
2799858720877,-0.11686756,-0.13151741,9.987848
2799878578926,-0.21347192,-0.06381879,9.987304
2799898436845,-0.23087578,-0.061653852,9.960556
2799918287774,-0.2234459,-0.09529371,9.977053
2799938145567,-0.21851511,-0.098230354,9.958615
2799958003358,-0.2241226,-0.07220823,9.981787
2799977861278,-0.19635105,-0.03798592,9.986737
2799997719071,-0.13867018,-0.06755195,9.951817
2800017579190,-0.1664644,-0.08189085,9.926878
2800037437110,-0.18873844,-0.045639306,9.935461
2800057294903,-0.1880495,-0.025990795,9.984345
2800077152822,-0.20714858,0.037322547,10.013207
2800097010058,-0.21688613,0.03595631,10.003448
2800116867979,-0.1896308,-0.0429727,9.948132
2800136726026,-0.21976326,-0.0037508884,9.891814
2800156583946,-0.25262964,0.11249143,9.970123
2800176441867,-0.2502562,0.12344449,10.009266
2800196299786,-0.2189471,0.057636984,10.005466
2800216142317,-0.20777075,-0.02421821,9.947424
2800235999726,-0.19502719,0.013981746,9.889581
2800255857261,-0.1949722,0.11624945,9.928597
2800275718035,-0.1830042,0.13316913,9.94946
2800295575444,-0.15838525,0.036400545,9.974903
2800315421232,-0.17057878,0.017784763,9.965961
2800335278384,-0.22219639,0.09866286,9.94586
2800355135537,-0.27748343,0.13457228,9.985311
2800374992688,-0.26151916,0.15224455,10.038278
2800394840264,-0.26115027,0.097379304,10.042405
2800414697289,-0.23210733,0.04819274,10.001117
2800434554184,-0.16274902,0.049339186,9.962841
2800454411208,-0.13808362,-0.03054128,9.961057
2800474268105,-0.15042321,-0.08341101,10.011928
2800494125128,-0.16199276,-0.09602041,10.015816
2800513982396,-0.16766512,-0.06973846,9.982056
2800533839421,-0.22798197,-0.028338453,9.9566
2800553696316,-0.25730813,-0.018103687,9.962747
2800573553340,-0.24399073,-0.024345404,9.996142
2800593410237,-0.24893607,-0.019208351,9.995264
2800613269715,-0.30831677,-0.01619792,9.981856
2800633126739,-0.29031506,-0.03599201,9.961384
2800652983764,-0.30932567,-0.052227948,9.8848915
2800672840787,-0.27248758,-0.044155456,9.833598
2800692697811,-0.1740301,-0.08828071,9.854623
2800712554836,-0.14657067,-0.16986135,9.97426
2800732410347,-0.12598114,-0.16916184,10.076836
2800752267243,-1.660023E-4,-0.18395747,10.067454
2800772124268,0.09060959,-0.23752874,10.0683155
2800791981291,0.107064806,-0.17936863,10.024827
2800811834443,0.09403683,-0.080124356,9.913393
2800831691340,0.027498918,0.024695182,9.930624
2800851548235,-0.111210845,0.10251492,10.067175
2800871405003,-0.21932453,0.07257191,10.109902
2800891261900,-0.27943563,0.052360952,10.028723
2800911122312,-0.3512408,0.121325925,9.979738
2800930979208,-0.38611743,0.1355792,9.944961
2800950836105,-0.32435355,-0.0036593792,9.951326
2800970693000,-0.17836235,-0.10984306,9.992194
2800990549896,-0.121526234,-0.06303217,9.994638
2801010406793,-0.18640573,0.015481301,9.963366
2801030275305,-0.14248404,-0.032612804,9.973626
2801050132457,-0.059499647,-0.13354447,9.980232
2801069989482,-0.075351834,-0.12759888,9.918006
2801089846633,-0.07933182,-0.057756178,9.9149
2801109710130,-0.0735237,0.036935236,10.080936
2801129567283,-0.0526624,0.019298058,10.164277
2801149424562,-0.052943222,-0.04785573,10.057782
2801169281842,-0.018965617,-0.005071843,9.983985
2801189139123,-0.07838085,0.06133594,9.981902
2801208995140,-0.24124804,0.06411584,10.006045
2801228852420,-0.3497674,0.11991864,9.997542
2801248709573,-0.3967642,0.1405374,10.020243
2801268566852,-0.4061102,0.152279,9.971065
2801288424004,-0.48209745,0.23306724,9.896299
2801308281285,-0.48685893,0.14914991,9.840265
2801328135527,-0.42614004,0.092805,9.8902445
2801347992679,-0.37635314,0.07285721,9.891369
2801367849960,-0.34918684,0.007235075,9.894403
2801387707111,-0.33243603,0.0066789663,9.909168
2801407569285,-0.26663524,-0.01808128,9.980078
2801427426566,-0.21528819,-0.06070959,10.001171
2801447283845,-0.21625623,-0.019939346,10.017161
2801467141125,-0.23232922,0.01632848,9.985896
2801486998534,-0.15962341,-0.11007341,9.9383545
2801506865370,-0.087657854,-0.19543952,9.940431
2801526722906,-0.13024402,-0.08345092,10.001486
2801546580443,-0.19690013,0.04019582,10.0292225
2801566437850,-0.2152372,0.0059111235,9.977913
2801586295386,-0.20546652,-0.024796117,9.949821
2801606152923,-0.21975271,-0.019125948,9.979717
2801626016358,-0.23844704,-0.041136526,10.055944
2801645874022,-0.19569619,-0.040202904,10.049082
2801665731815,-0.13916542,-0.04389318,10.033285
2801685589478,-0.09309372,-0.115994595,10.003988
2801705454639,-0.03864312,-0.32052052,9.947869
2801725312560,-0.030335788,-0.4358821,9.939612
2801745170479,-0.054810457,-0.4552093,9.992076
2801765028399,0.0033526863,-0.40097496,9.961175
2801784886320,0.06322265,-0.2927529,9.783277
2801804744239,0.0396862,-0.11803618,9.816479
2801824605333,-0.09900449,0.26753047,10.044229
2801844463382,-0.31002265,0.5538854,10.227739
2801864321429,-0.53211904,0.66648483,10.235141
2801884179477,-0.658603,0.6487712,10.189405
2801904037526,-0.57566833,0.38722923,9.96702
2801923892214,-0.45758498,0.11330919,9.914313
2801943750134,-0.39532477,0.042849105,9.905278
2801963608183,-0.41105053,-5.9084274E-4,9.889957
2801983466102,-0.33572403,0.018968793,9.946256
2802003324619,-0.15239193,0.061293773,10.026006
2802023182540,-0.039846808,0.013902143,10.020502
2802043040459,-0.059442304,-0.008104621,9.977587
2802062898507,-0.07666007,-0.08085216,9.981102
2802082756428,-0.116817884,-0.14589693,10.005323
2802102614347,-0.06542016,-0.024452014,9.966241
2802122469024,0.012882772,0.025661424,9.969789
2802142326945,-0.068683825,0.019003158,9.993547
2802162184864,-0.19951658,0.03794184,10.028123
2802182042784,-0.26882204,0.03364014,10.042944
2802201900577,-0.30676743,-0.15890048,9.924975
2802221747798,-0.20320809,-0.2047373,9.737679
2802241605462,-0.14737849,-0.16977435,9.807011
2802261463127,-0.22553934,-0.037221983,9.9081955
2802281320790,-0.18680954,-0.09097788,9.904979
2802301164819,-0.22174191,-0.2087082,9.950802
2802321022356,-0.19384782,-0.2676981,9.936294
2802340879763,-0.08926141,-0.18476544,9.907733
2802360737171,-0.08231233,-0.19857176,9.910407
2802380594708,-0.13190061,-0.19357441,9.923946
2802400452115,-0.096386425,-0.1089212,9.896415
2802420302361,-0.05614528,-0.18288942,10.00116
2802440159642,-0.13795546,-0.1652287,10.075399
2802460016921,-0.3604944,4.903162E-4,9.896816
2802479874073,-0.50316274,-0.052247677,9.841291
2802499731354,-0.35184518,0.0044573476,9.861003
2802519588462,-0.18123905,0.079628654,9.994857
2802539445742,-0.20123121,-0.037154593,10.006106
2802559302895,-0.24493419,-0.17472854,9.920704
2802579160046,-0.18766575,-0.06868863,9.854925
2802599018027,-0.08583019,-3.8450345E-4,9.945626
2802618875308,-0.08986656,-0.062283877,9.992935
2802638732587,-0.09686335,-0.08982479,9.892924
2802658589867,-0.07711379,-0.08520643,9.904933
2802678447148,-0.047819976,-0.09353637,9.96327
2802698304427,-0.05309126,0.022267424,9.997851
2802718159714,-0.1065575,-0.039697107,9.959747
2802738016867,-0.2075061,-0.068035096,10.011306
2802757874146,-0.14608584,0.0066032982,9.915554
2802777731298,-0.049894936,0.04988497,10.000089
2802797588579,-0.03657754,0.06604066,9.977675
2802817436770,-0.114470564,-0.071482696,9.983168
2802837293666,-0.17994037,-0.0026078527,9.886562
2802857150691,-0.22431321,0.10529527,9.892874
2802877007714,-0.25836837,0.051004745,9.924946
2802896864738,-0.19399089,0.10161446,10.008539
2802916721763,-0.19320679,0.119485736,9.939989
2802936573928,-0.16308945,-0.023887737,9.919879
2802956430824,-0.15474878,-0.02061,9.914079
2802976287593,-0.12427444,-0.050484482,9.978321
2802996144360,-0.08481254,0.0825904,9.990182
2803016006638,-0.17903282,0.12418781,9.921272
2803035863535,-0.23246199,-0.064219065,9.957355
2803055720302,-0.12294212,-0.08700294,9.931197
2803075577198,-0.06606042,-0.0036163095,9.929841
2803095434095,-0.08286715,-0.045050688,9.951191
2803115293768,-0.07138613,0.022596503,9.982473
2803135150792,-0.1398255,0.012073867,9.949388
2803155007689,-0.17968254,-0.032944754,9.933368
2803174864584,-0.11940498,-0.074396506,9.964288
2803194721608,-0.09117946,-0.05078478,9.927661
2803214578505,-0.12536356,0.018533284,9.924636
2803234429274,-0.0831248,-0.023176229,9.979607
2803254286170,-0.054344494,-0.08329639,9.983282
2803274142939,-0.06948721,-0.12296678,9.946906
2803293999706,-0.08655652,-0.13240506,9.876046
2803313862380,-0.081093155,-0.02522287,9.927008
2803333719277,-0.051340643,-0.004288164,9.994207
2803353576172,-0.029921167,-0.07185246,9.996555
2803373433196,-0.05778142,-0.11931039,9.991402
2803393290093,-0.018751225,0.003329205,9.977362
2803413149779,-0.09536681,0.05406448,9.961313
2803433006803,-0.19135888,0.0046395184,9.929073
2803452863700,-0.22649905,-0.016148388,9.932775
2803472720723,-0.14510462,-0.056314353,10.018914
2803492577747,-0.053681012,-0.018875094,9.963017
2803512434772,-0.11013387,0.054237846,9.891909
2803532302140,-0.2225428,0.037279062,9.910862
2803552159292,-0.22888783,-0.013925573,9.962301
2803572016573,-0.17167506,0.013616248,9.994974
2803591873724,-0.21712095,0.07788622,9.945427
2803611740231,-0.29092753,0.01820984,9.884372
2803631597640,-0.20957379,0.038137987,9.9419
2803651455175,-0.14770594,-0.053371962,9.955163
2803671312583,-0.095303304,-0.09029856,9.943805
2803691170120,-0.11281451,-0.092947505,9.928979
2803711034707,-0.14957893,0.010928888,9.964268
2803730892371,-0.1604963,0.026955592,9.988908
2803750750036,-0.19652088,0.027101617,9.967121
2803770607699,-0.2298461,0.029362822,9.916848
2803790465363,-0.1910866,0.03476592,9.877352
2803810323156,-0.13828805,0.044001788,9.953847
2803830171865,-0.14154874,0.010319371,10.019715
2803850029401,-0.123274095,-0.0036982498,10.002408
2803869886938,-0.15527289,0.01837056,9.952767
2803889744345,-0.1561963,-0.028074706,9.966438
2803909603014,-0.12943411,-0.04036873,9.96406
2803929460423,-0.16424292,-0.016372597,9.932797
2803949317958,-0.20616174,0.020538041,9.908702
2803969175494,-0.16832793,0.009090684,9.933132
2803989032903,-0.11022514,0.019796675,9.994543
2804008890438,-0.11167398,0.008889915,9.973733
2804028758738,-0.15264167,-0.027225664,9.962396
2804048616531,-0.10929662,-0.020871703,9.946613
2804068474194,-0.07561269,-0.0029008656,9.912421
2804088331986,-0.1562969,0.038501523,9.929723
2804108189651,-0.22586583,0.046095267,9.945827
2804128042852,-0.20652239,0.042687137,9.928113
2804147900516,-0.1395022,0.014210528,9.986404
2804167758181,-0.08205894,0.0071912273,9.989923
2804187615844,-0.066416465,-0.027748646,9.9193535
2804207466028,-0.0676816,-0.037345607,9.962303
2804227323565,-0.081494845,0.01611285,9.979327
2804247181100,-0.122383915,0.027410023,9.933056
2804267038636,-0.14001365,0.023853192,9.953447
2804286896173,-0.16521744,0.054369148,9.947146
2804306752067,-0.19531599,0.06312095,9.927217
2804326608542,-0.15405995,0.11569759,9.928228
2804346466079,-0.18003592,0.066704914,9.935772
2804366323614,-0.22925086,0.040922955,9.935174
2804386181150,-0.1888943,0.14537089,9.953658
2804406038687,-0.16013533,0.15794174,9.97194
2804425890830,-0.19393377,0.08238538,9.947378
2804445748238,-0.18280135,0.039129954,9.939972
2804465605647,-0.16317753,0.012182715,9.954981
2804485463054,-0.09411335,0.04368323,9.96087
2804505315209,-0.10539758,0.07150996,9.963479
2804525172490,-0.16246495,-0.016580014,9.949839
2804545029769,-0.15652671,0.017606381,9.957267
2804564887049,-0.12525803,0.018823931,9.936398
2804584744330,-0.13255517,0.035712082,9.915112
2804604601609,-0.16629148,0.02893803,9.944878
2804624459235,-0.11656865,0.018350117,9.987363
2804644316644,-0.13741028,0.07430334,9.982902
2804664173923,-0.19914022,0.066709004,9.945986
2804684031203,-0.13483769,0.05961894,9.943925
2804703888612,-0.09065571,0.0030001693,9.9594145
2804723747390,-0.10356276,0.042081363,9.996308
2804743604670,-0.17859475,0.008361002,9.960516
2804763461951,-0.18001205,0.028178465,9.912425
2804783319358,-0.15417068,0.052819185,9.954473
2804803154244,-0.1312576,0.020913975,10.020586
2804823011013,-0.1724453,-0.030691257,9.973654
2804842867908,-0.19323078,-0.055600863,9.945254
2804862724676,-0.15507017,-0.0020192317,9.909794
2804882581445,-0.16879448,0.011336962,9.920786
2804902438212,-0.16580836,0.023814674,9.945261
2804922296650,-0.15066543,0.07099853,9.971534
2804942153419,-0.15299322,0.045660917,9.942091
2804962010186,-0.2140458,0.016761094,9.980272
2804981866954,-0.14550094,0.038950555,9.978129
2805001723723,-0.14526574,0.014297937,9.961529
2805021579807,-0.17860253,-0.003554214,9.953554
2805041436575,-0.20574339,-0.03681959,9.942946
2805061293216,-0.16401462,0.026169727,9.909869
2805081149983,-0.1453569,0.03389918,9.96029
2805101009585,-0.11101508,0.030157566,9.96512
2805120866354,-0.17401254,-0.08148955,9.929513
2805140723121,-0.18569666,7.773446E-4,9.92785
2805160579889,-0.13898276,0.11910586,9.949542
2805180436658,-0.20815085,0.09134932,9.982782
2805200293425,-0.21081088,0.042246222,9.965245
2805220160188,-0.2004342,0.018142046,9.953842
2805240017085,-0.21282482,-0.013900748,9.969592
2805259874108,-0.1420806,-0.07885218,9.951367
2805279731004,-0.10149577,-0.0557039,9.941437
2805299587901,-0.15910648,-0.04746139,9.93693
2805319450868,-0.1547872,-0.10030244,9.962886
2805339307892,-0.10630504,-0.081900954,9.958788
2805359165045,-0.13478675,-0.04237513,9.937743
2805379022196,-0.15145929,-0.004989165,9.992468
2805398879220,-0.15382186,-0.040685132,9.989487
2805418736373,-0.12803024,-0.041107118,9.934611
2805438581643,-0.15333843,0.023085674,9.921863
2805458438539,-0.22548713,0.084726326,9.924729
2805478295308,-0.22570261,0.071994826,9.976583
2805498152203,-0.1654862,0.02107353,9.992365
2805518016062,-0.122811176,0.003741613,9.972414
2805537872959,-0.1273094,0.06657022,9.946474
2805557729982,-0.16915302,0.06379055,9.938957
2805577587006,-0.17101705,0.06459343,9.9188385
2805597443903,-0.1766113,0.0580315,9.95305
2805617307679,-0.18607818,0.031078303,9.971616
2805637164959,-0.1454342,0.016179135,9.970235
2805657022112,-0.13336179,-0.030754857,9.972037
2805676879391,-0.112798154,0.04472068,9.97326
2805696736671,-0.17092599,0.042891603,9.938094
2805716593824,-0.24308617,0.031274825,9.928604
2805736452608,-0.18289328,0.04309716,9.9686165
2805756309888,-0.117807224,0.04053131,9.96025
2805776167169,-0.110201895,0.04509109,9.944132
2805796024448,-0.11584997,0.10305095,9.920978
2805815878979,-0.12745066,0.09509306,9.953627
2805835736132,-0.14597443,0.04729436,9.964032
2805855593283,-0.19146886,0.011176773,9.933098
2805875450563,-0.17869982,4.131328E-4,9.947307
2805895307716,-0.15147789,-0.005594638,9.97371
2805915175448,-0.09414964,-0.007763598,9.976538
2805935032856,-0.13033068,-0.02624367,9.979349
2805954890265,-0.17264166,-0.061486967,9.9601345
2805974747672,-0.14287888,-0.04849253,9.975518
2805994605080,-0.10549409,-0.072162166,10.011077
2806014462489,-0.059209574,-0.15849185,9.975858
2806034325930,-0.014822283,-0.11556571,9.936763
2806054183594,-0.11844832,-0.019340487,9.908549
2806074041131,-0.19471954,0.029505286,9.948619
2806093898666,-0.22235301,-0.0047045466,9.9780035
2806113756903,-0.15088426,-0.049580626,9.977036
2806133614440,-0.1407339,-0.13795215,9.973192
2806153472103,-0.112384774,-0.115464464,9.92757
2806173329639,-0.038029537,-0.020955568,9.916312
2806193187176,-0.121820025,-0.0036945587,9.918802
2806213044278,-0.19408023,-0.08475098,9.998778
2806232901814,-0.22234361,-0.24824084,10.071612
2806252759479,-0.19948125,-0.4295038,10.005807
2806272617142,-0.032919295,-0.44296184,9.875043
2806292474678,-0.007531473,-0.346662,9.8333
2806312332343,-0.21030514,-0.23213498,9.90619
2806332184392,-0.338424,-0.20220853,10.060524
2806352042056,-0.33019388,-0.34117207,10.037934
2806371899593,-0.13007635,-0.35983312,9.959089
2806391757256,0.007056681,-0.19543087,9.976152
2806411603101,0.05096104,-0.11306074,9.997857
2806431460382,-0.01725638,-0.028016772,9.961311
2806451317661,-0.19291277,0.015432521,9.912449
2806471174813,-0.26714036,0.050426662,9.951858
2806491032094,-0.22241138,0.1223239,10.037913
2806510889373,-0.2051093,0.13810302,10.019707
2806530750115,-0.18208307,0.1786581,9.901342
2806550607396,-0.096083865,0.25826097,9.802247
2806570464803,-0.07474526,0.17601481,9.780817
2806590322083,-0.009291137,0.12675796,9.990925
2806610179364,0.065195985,0.07709495,10.194102
2806630029688,0.0754849,0.13524565,10.087964
2806649886840,-0.015321054,0.23461282,9.955798
2806669744121,-0.016946767,0.20911795,9.947775
2806689601272,-0.07052994,-0.033667292,9.918799
2806709456333,-0.2051355,-0.08512301,9.786335
2806729313358,-0.30835855,-0.02978685,9.894473
2806749170509,-0.30924013,-0.06462071,10.1067095
2806769027661,-0.23766978,-0.045851946,10.099641
2806788884686,-0.21831636,-0.05733905,9.977196
2806808741837,-0.2609425,-0.124417625,9.92355
2806828596289,-0.25404617,-0.20871967,9.905003
2806848453314,-0.079027124,-0.20705463,9.968387
2806868310465,0.07783348,-0.10319911,9.972968
2806888167489,0.033366524,-0.06153565,9.939036
2806908024642,-0.11077581,0.07379551,10.000145
2806927882250,-0.21517003,0.20073116,10.037366
2806947739402,-0.29609787,0.22829814,10.004765
2806967596555,-0.20218281,0.2684034,9.98459
2806987453578,-0.11957439,0.3441185,9.973589
2807007310829,-0.19889544,0.21889456,9.971443
2807027167854,-0.17712094,0.1519773,9.935305
2807047024877,-0.05083302,0.1494247,9.997243
2807066881773,-0.09922365,0.18397191,10.021905
2807086738798,-0.1978318,0.21047783,9.965412
2807106595821,-0.22081454,0.25727788,9.8973465
2807126458209,-0.2007945,0.30277425,9.910754
2807146315362,-0.20814124,0.24367537,9.9661875
2807166172385,-0.22467606,0.19686319,10.026876
2807186029537,-0.20365848,0.20069483,9.963091
2807205886690,-0.15688978,0.12322044,9.945284
2807225743085,-0.087256625,0.1319585,9.962284
2807245600109,-0.106543526,0.23515338,9.94418
2807265457134,-0.244382,0.35888648,9.887977
2807285314285,-0.24463868,0.5063935,9.916704
2807305169790,-0.14143392,0.5844366,10.028096
2807325026815,-0.051349588,0.4556393,10.098505
2807344883838,0.024871878,0.338791,10.073451
2807364740862,-0.06311332,0.37174755,9.943262
2807384597887,-0.15553054,0.28495732,9.866031
2807404454910,-0.12000933,0.22100306,9.885306
2807424309997,-0.06577491,0.23633006,9.981924
2807444167022,-0.07380313,0.19244479,10.02278
2807464023917,-0.14461342,0.14735818,9.924519
2807483880941,-0.14809209,0.10497953,9.914754
2807503737838,-0.13046013,0.03184651,9.944319
2807523610701,-0.09731161,0.02268986,9.972328
2807543467981,-0.04358552,0.08158948,9.974699
2807563325262,-0.0021314193,0.11592216,9.950998
2807583182669,-0.06583673,0.1540975,9.899585
2807603039949,-0.15655352,0.099517375,9.863117
2807622897230,-0.17929527,0.021136796,9.902092
2807642765663,-0.17781097,0.083867624,9.952581
2807662623199,-0.13372955,0.11826941,9.951016
2807682480864,-0.103400104,0.065805696,9.958508
2807702338399,-0.09360714,0.053168062,9.925413
2807722199525,-0.08295814,0.02170021,9.860494
2807742057318,-0.09010922,-0.008936552,9.849662
2807761914981,-0.0875155,0.055782426,9.909631
2807781772645,-0.051763084,0.11272281,9.955891
2807801630438,-0.07626725,0.11095023,9.988093
2807821490496,-0.07583023,0.11340874,9.996401
2807841348288,-0.039829697,0.07476738,9.992474
2807861206081,-0.069600336,0.06943668,9.920642
2807881063872,-0.08087881,0.066244006,9.883765
2807900921664,-0.0016559095,0.0029310524,10.005211
2807920779457,0.08844258,-0.0747413,9.968492
2807940633242,0.079245016,-0.17053077,9.916647
2807960490906,0.11788324,-0.23685522,10.067837
2807980348699,0.1436796,-0.32119223,10.140718
2808000206362,0.13333236,-0.34586644,9.958026
2808020068671,0.04593173,-0.22260442,9.816009
2808039926464,-0.101498276,-0.047663156,9.850658
2808059784255,-0.16918261,-0.03340625,9.982678
2808079642175,-0.1781148,-0.110442325,10.039768
2808099499968,-0.18076563,-0.105589986,9.922739
2808119359119,-0.17919171,-0.027701318,9.873898
2808139217039,-0.1891846,0.08055088,9.851357
2808159074960,-0.15790145,0.08804784,9.879349
2808178932879,-0.108685285,0.039731648,9.96605
2808198790799,-0.08971691,0.090265654,9.969824
2808218648720,-0.1387705,0.23859848,9.856326
2808238495326,-0.18545745,0.2853744,9.87482
2808258353118,-0.15314063,0.22976048,10.030347
2808278210783,-0.12636557,0.08609432,10.084845
2808298068446,-0.08087795,-0.021559607,9.985308
2808317914974,-0.004674261,-0.018672766,9.881265
2808337772511,-0.003916563,0.09660974,9.876479
2808357633468,-0.11389822,0.16765456,9.91153
2808377490876,-0.14405775,0.14779887,9.9700775
2808397348413,-0.1459295,0.2260152,9.974123
2808417198731,-0.12757222,0.32089102,9.93254
2808437056011,-0.10085937,0.35821876,10.007185
2808456913292,-0.08138834,0.29504198,10.049495
2808476770571,0.002524112,0.19065487,10.020784
2808496627851,-0.033053167,0.1506313,9.980788
2808516485132,-0.19790767,0.16561818,9.866328
2808536335438,-0.11679608,0.22558859,9.82468
2808556192462,-0.0428112,0.27575296,9.813742
2808576049615,-0.08261581,0.32465124,9.92331
2808595906638,-0.20434573,0.38949355,10.079216
2808615759176,-0.27652675,0.46609676,10.085729
2808635616201,-0.2900117,0.48182014,9.921618
2808655473224,-0.30557403,0.34117237,9.788576
2808675330120,-0.27354366,0.24287644,9.847954
2808695187145,-0.26055688,0.15217352,9.976269
2808715047179,-0.3318324,0.12247677,10.000683
2808734904203,-0.3559438,0.16846088,9.884078
2808754761356,-0.3281913,0.23888288,9.809633
2808774618379,-0.2886736,0.2914043,9.808168
2808794475403,-0.27170226,0.28380942,9.86061
2808814332428,-0.23344992,0.1716459,9.925216
2808834181996,-0.24666227,0.05134847,10.018671
2808854038764,-0.22704776,0.040996734,10.0300865
2808873895661,-0.18606108,0.0035378172,9.977861
2808893752556,-0.08817109,0.014184382,9.897582
2808913606915,-0.03097823,0.044203244,9.9213295
2808933463684,-0.052344024,-0.0077644926,10.016639
2808953320323,-0.04026623,-0.119129285,10.068612
2808973177091,0.045960933,-0.15351242,10.099705
2808993033860,0.11434715,-0.19694938,10.067237
2809012890499,0.14361362,-0.22760211,9.998407
2809032750046,0.14213176,-0.2585992,9.958364
2809052606687,0.09629144,-0.27213997,9.920141
2809072463454,0.030377321,-0.3126103,9.980867
2809092320094,0.02728393,-0.2833516,10.004289
2809112176735,-0.006014515,-0.16644007,9.961658
2809132035898,-0.1267394,-0.078444585,9.985781
2809151892538,-0.25347528,-0.019871682,10.018148
2809171749307,-0.3257353,-0.013115692,9.911128
2809191606074,-0.34921148,0.028223379,9.797458
2809211470273,-0.35126716,0.08627538,9.835109
2809231327170,-0.32571828,0.015078619,9.9412365
2809251184065,-0.22067939,-0.14356212,9.981837
2809271041089,-0.038850114,-0.25003546,9.960522
2809290897986,0.017893424,-0.26474404,9.994725
2809310754881,-0.025383867,-0.22889018,10.010075
2809330621194,-0.10656594,-0.17799486,9.954975
2809350478219,-0.07565554,-0.23531894,9.960624
2809370335370,0.050422683,-0.37393764,10.01983
2809390192522,0.11243964,-0.43505704,10.005513
2809410049675,0.08467327,-0.42095864,9.929589
2809429911915,0.024561707,-0.44000906,9.954479
2809449769195,-0.018858664,-0.40618178,10.001985
2809469626348,-0.11687298,-0.19889516,9.939279
2809489483627,-0.2513628,-0.018822577,9.839208
2809509345136,-0.3485229,0.0777072,9.857634
2809529202417,-0.36425018,0.121263385,9.940881
2809549059824,-0.34903565,0.1230795,9.967969
2809568917104,-0.26594234,0.14604378,9.967833
2809588774513,-0.24640071,0.22562073,9.920447
2809608631792,-0.20305777,0.18356273,9.889317
2809628497215,-0.1318059,0.06005035,9.925228
2809648354880,-0.1730573,0.058242574,9.982797
2809668212415,-0.25611076,0.06994942,9.942602
2809688070079,-0.28107145,0.035069585,9.886278
2809707927616,-0.22642674,0.042064875,9.940625
2809727790581,-0.17894807,0.033784203,9.988088
2809747648373,-0.15955575,0.044461817,9.986556
2809767506038,-0.12319643,0.069013126,10.000406
2809787363829,-0.045607835,0.095476754,10.002284
2809807217976,0.06562999,0.085026436,10.007155
2809827075641,0.04633134,0.03476715,10.012352
2809846933432,-0.036557402,-0.019160964,10.037153
2809866791224,-0.078075305,-0.012195188,10.056481
2809886648889,-0.09382907,0.041057173,9.991008
2809906506680,-0.06994283,0.09920661,9.966152
2809926363515,-0.076187626,0.14975835,9.965427
2809946221308,-0.15291193,0.1289129,9.981135
2809966078971,-0.14004903,0.08101317,10.007967
2809985936635,-0.107914425,0.06602505,10.021189
2810005794428,-0.0402878,-0.019648656,10.007621
2810025651931,0.009168936,-0.12826127,10.013002
2810045509595,0.079437286,-0.24700773,10.000734
2810065367388,0.1516156,-0.32148433,9.983171
2810085225051,0.18655424,-0.340175,9.941096
2810105082843,0.20877515,-0.36011693,9.928668
2810124940508,0.2006477,-0.40169075,9.910719
2810144794209,0.12368877,-0.40140402,9.833385
2810164651873,0.080901645,-0.43853965,9.754533
2810184509410,0.021047588,-0.40230113,9.7630005
2810204367073,-0.008604957,-0.27060074,9.823332
2810224221122,-0.122076064,-0.13599779,9.918463
2810244078659,-0.28556913,-0.06312455,10.015903
2810263936194,-0.43040058,0.05217008,9.992608
2810283793730,-0.53816986,0.12171742,9.933989
2810303651267,-0.5545834,0.21061754,10.030096
2810323499019,-0.42490336,0.31332758,10.031053
2810343356427,-0.272265,0.32733184,9.928722
2810363213708,-0.25612053,0.30217373,9.838368
2810383072521,-0.2546162,0.2953723,9.905015
2810402929929,-0.1758792,0.12947713,9.978992
2810422787338,-0.2073222,0.009058413,9.942457
2810442635005,-0.26121274,0.05099342,9.870844
2810462492157,-0.22419775,0.11101067,9.867522
2810482349310,-0.11061432,0.10481868,9.92114
2810502206461,-0.029754633,0.087326944,9.933727
2810522066391,-0.102874406,-0.054578874,9.90265
2810541923544,-0.02641324,-0.25915754,9.929902
2810561780695,0.18629667,-0.19445328,10.110406
2810581637847,0.087909184,-0.11200399,10.1940155
2810601495000,-0.16961521,-0.10143323,10.061315
2810621348665,-0.17303851,-0.017584532,9.920714
2810641205817,-0.068515934,-0.03778289,9.881181
2810661062842,2.1302038E-4,-0.077762686,9.861307
2810680919865,-0.0532945,-0.0624451,9.836853
2810700777017,-0.17353426,0.0111279255,9.92001
2810720634042,-0.25192285,0.063753694,10.08133
2810740490157,-0.15189643,0.05960473,10.081103
2810760347181,-0.1371717,1.1938075E-4,9.98913
2810780204206,-0.18323526,0.0028017913,9.899298
2810800061101,-0.1904492,0.001301526,9.862084
2810819910859,-0.16841848,-0.052014846,9.875525
2810839767628,-0.1583462,-0.042133775,9.883209
2810859624395,-0.15500462,0.015092612,9.922228
2810879481291,-0.22859271,0.15343998,9.865884
2810899338060,-0.4119076,0.2897354,9.888995
2810919197582,-0.4451265,0.2487515,10.006837
2810939054478,-0.36543298,0.039890736,10.108168
2810958911247,-0.21666892,0.008073031,10.09497
2810978768142,-0.18598486,0.07102062,9.945032
2810998625038,-0.22778235,0.0981949,9.885942
2811018481935,-0.30778107,0.20649183,9.920623
2811038345468,-0.2601731,0.16430318,9.951469
2811058202492,-0.2724478,-0.04548033,10.0450735
2811078059517,-0.22018269,-0.09805664,10.137859
2811097916540,-0.2280767,0.008823711,10.069557
2811117777221,-0.2709598,0.08966025,9.90634
2811137634246,-0.31828052,-0.02568574,9.827262
2811157491397,-0.2972574,-0.12547056,9.930306
2811177348421,-0.20332973,-0.09380191,9.982939
2811197205446,-0.16961443,-0.056321677,9.9406395
2811217070734,-0.14517242,0.043467995,9.924861
2811236927886,-0.21438453,0.071055986,9.879283
2811256785167,-0.15177432,0.11925319,9.971597
2811276642318,-0.38540444,0.3083776,10.035097
2811296499598,-0.753316,0.3533374,9.9062195
2811316356879,-0.5096719,0.40318334,9.856099
2811336212482,-0.23390912,0.40620142,9.860222
2811356069762,-0.24490727,0.3691314,9.991704
2811375926915,-0.22007564,0.42067188,10.141185
2811395784194,-0.21619223,0.28467134,10.098778
2811415638560,-0.1558108,0.07383752,9.941797
2811435495713,-0.033576924,-0.058086693,9.840775
2811455352864,0.068553634,-0.15681642,9.892771
2811475210016,0.14032325,-0.1507018,9.98652
2811495067169,0.16444348,-0.1774395,10.081959
2811514924448,0.09349563,-0.34016815,10.040006
2811534794918,0.030277815,-0.35835946,9.922294
2811554652327,0.008141651,-0.40780792,9.961451
2811574509862,0.069992125,-0.43075556,10.03597
2811594367270,0.18087815,-0.37178347,10.067306
2811614224679,0.13000464,-0.38857234,9.988245
2811634085427,-0.07758257,-0.28939706,9.880138
2811653943091,-0.2589144,-0.120537005,9.858575
2811673800628,-0.3060999,-0.048685424,9.851066
2811693658163,-0.30458492,-0.014469186,9.834666
2811713515692,-0.3096245,-0.019772103,9.905348
2811733373357,-0.29253867,-0.026172495,9.972406
2811753230892,-0.24279113,-0.018983237,9.984603
2811773088556,-0.110349394,-0.083783686,9.9606
2811792946221,0.026956018,-0.14362237,9.949085
2811812803756,0.05665693,-0.15424377,9.968071
2811832666625,0.01844727,-0.18265553,9.98592
2811852524290,0.016807403,-0.13276939,10.089424
2811872382081,0.08448945,-0.13282567,10.047033
2811892239873,0.058221024,-0.110059775,9.910319
2811912097666,-0.09622115,-0.017900333,9.86781
2811931953153,-0.2292777,0.09794518,9.937276
2811951810817,-0.32388362,0.20058626,9.970619
2811971668482,-0.30687279,0.18172202,10.008753
2811991526145,-0.2271819,0.041887123,9.967984
2812011386917,-0.141984,-0.06627614,9.959552
2812031244710,-0.06709922,-0.22418725,10.026448
2812051102373,0.069986664,-0.41112956,10.035826
2812070960165,0.14401188,-0.52190137,9.91311
2812090817830,0.091291346,-0.4785269,9.841401
2812110675621,0.05825883,-0.48451877,9.96001
2812130530748,0.1266524,-0.5035451,10.0451355
2812150388541,0.08935557,-0.29353172,9.986893
2812170246204,-0.14031878,-0.0280103,9.883466
2812190103996,-0.29038322,0.13362093,9.926471
2812209961661,-0.29199287,0.16087581,9.94503
2812229808895,-0.21836936,0.12539303,9.904615
2812249666431,-0.15447685,0.08602396,9.947195
2812269523968,-0.1523381,0.09595657,9.947041
2812289381503,-0.1659367,0.1392943,9.9271965
2812309229859,-0.18326376,0.087531514,9.958618
2812329087140,-0.11338569,-0.035036605,9.963244
2812348944547,-0.032070387,-0.021219745,9.944461
2812368801955,0.03259773,0.031981844,9.823599
