UPTIMENANO,Ax,Ay,Az
69286714458857,-0.25646216,-0.08037988,9.475721
69286734315882,-0.03693978,0.23534748,9.943815
69286754172905,0.42909738,-0.41938353,10.392397
69286774029929,0.45649582,-0.82873446,10.515534
69286793886954,0.38400495,-0.10191742,9.767999
69286813743977,0.051672805,0.113763735,10.42088
69286833586103,0.04717221,0.022298666,10.710387
69286853442744,0.74370813,0.007175693,9.03761
69286873299383,0.19104277,1.2119001,8.746763
69286893156023,-0.54858834,2.5602803,11.619292
69286913012664,0.004395188,2.6551843,11.430782
69286932867285,0.24520835,0.9487656,9.805929
69286952723797,0.0649478,-0.06912299,9.5386715
69286972580438,-1.3268248,-1.2737106,7.9029965
69286992436949,-0.7812724,-4.070813,6.407735
69287012293589,0.39827296,-1.5056456,9.773506
69287032150230,1.2694532,0.007759103,12.505338
69287052000426,0.20446509,1.1352835,11.32463
69287071856810,-0.1418853,3.4581764,10.558417
69287091713323,0.10032252,1.0634211,9.159779
69287111569706,0.0551238,-2.0611596,9.480196
69287131425602,0.97468376,-0.51915383,9.944482
69287151281987,-1.2355225,1.531253,8.429323
69287171138370,-2.6145022,0.9435432,8.649556
69287190994882,-1.0418673,-0.3596923,9.593404
69287210851267,-1.2312869,0.26421195,9.54264
69287230707833,-1.2605752,1.6450822,9.243618
69287250564345,-0.19037826,0.97646993,9.030417
69287270420730,0.6666673,-0.036854517,9.569495
69287290277113,0.80883425,-1.1252464,10.506041
69287310133497,1.2233022,-1.5061309,10.9045515
69287329989882,1.4534204,-0.89858794,11.544529
69287349842742,-0.08476199,0.5279296,10.775564
69287369699126,-0.41328645,0.55831116,10.348891
69287389555511,0.21752968,-0.64324653,11.044605
69287409411894,0.307383,-0.3447124,10.422525
69287429272124,0.07217452,0.6339873,9.5832815
69287449128637,-0.3288581,0.55759805,9.027915
69287468985020,0.08398956,-0.41254774,9.25086
69287488841532,0.38417777,-0.75431263,9.191367
69287508697917,-0.055829957,-1.0772375,9.003803
69287528552170,-0.9306305,-0.7203184,7.5909343
69287548408554,-1.9620627,0.7402111,4.1446834
69287568264939,-1.8116056,2.765371,5.0522137
69287588121322,-0.8837413,2.1024153,6.5508146
69287607977706,-0.3234894,1.5690641,7.502684
69287627834091,1.0361977,-0.6829046,5.959692
69287647686384,1.2701101,-1.3133693,6.315808
69287667542640,1.4308573,-0.9355335,6.911667
69287687399025,2.5299263,-0.38467976,7.328641
69287707255280,2.5442636,0.39348206,8.628069
69287727115973,2.493565,0.7507094,10.853643
69287746972358,3.9134984,0.68460625,12.767938
69287766828613,2.3954368,1.9194484,13.669814
69287786684997,0.9542829,2.32907,12.759753
69287806541382,1.63639,1.1356801,10.63772
69287826397814,1.6632644,0.2537485,10.1558695
69287846254070,1.6207423,0.066293955,11.603258
69287866110455,2.360437,0.14764228,13.180857
69287885966838,1.1605664,0.6879621,14.458198
69287905823094,-0.6801602,0.60401696,15.567049
69287925679479,0.24605568,-0.11692181,12.5436535
69287945541073,1.6476047,0.01883507,3.1108353
69287965397457,-1.2859446,-3.319501,6.117369
69287985253970,-4.812211,-7.3801017,1.9883426
69288005110353,1.4269552,3.4907413,1.7495881
69288024967968,5.9940767,7.05137,5.322057
69288044824481,4.963633,5.052566,4.326031
69288064680864,5.363593,5.479776,8.205484
69288084537248,-0.84685045,2.864892,10.8041525
69288104393761,-1.3974963,1.5823133,4.171462
69288124250144,3.3635886,3.2830746,2.7382584
69288144103834,6.4989862,3.4703386,8.559832
69288163960219,7.0253644,3.4984953,10.636832
69288183816602,5.504362,1.629653,12.451903
69288203673114,2.596139,-0.10806728,14.763887
69288223529498,3.7168286,-2.3232434,14.280856
69288243387546,1.0851563,-3.0303693,12.301583
69288263244058,1.6438087,-1.2523974,10.347347
69288283100442,-0.4531951,-1.0041654,15.335332
69288302956954,-0.9731687,-1.4720876,15.942975
69288322813338,0.28261262,-3.9349363,15.48544
69288342666638,0.7843644,-5.390981,18.887892
69288362523022,-4.2682204,-4.2773786,18.233965
69288382379534,-4.9879208,-4.8057837,14.316111
69288402236046,-3.489633,-4.8638325,12.378594
69288422092558,-5.701174,-3.841482,13.244058
69288441944718,-6.9537764,-3.1344845,13.354882
69288461801102,-4.6608963,-3.0094717,11.483343
69288481657486,-5.476122,1.4970142,7.8891215
69288501513870,-6.6639953,1.8041945,6.403417
69288521370126,-2.8896718,-0.400658,6.570878
69288541229182,-1.9584565,0.40808466,4.00946
69288561085566,-0.80387974,1.1334857,2.0478132
69288580941950,-0.84742194,-1.0924231,3.8819768
69288600798462,-2.2888668,-5.4196467,5.039485
69288620654846,-0.31633064,-6.5612416,9.816454
69288640513938,-0.85516745,-6.088574,8.852849
69288660370450,1.3199767,-5.192934,11.54884
69288680226834,-0.08444388,-1.7969532,9.061674
69288700083346,-0.49443218,1.4837997,9.959586
69288719939730,1.7291324,1.1368238,12.073276
69288739801460,6.0878744,-0.8982588,12.944149
69288759657972,8.875662,-0.113987386,15.627603
69288779514484,3.7666106,-2.4071295,13.758594
69288799370996,3.575948,7.375522,9.105035
69288819227508,-0.7772367,8.3048935,5.2442245
69288839083709,-0.4982048,0.032347526,6.0398636
69288858940349,0.077316515,-2.688794,7.489476
69288878796861,-0.07030243,-2.1998816,7.436938
69288898653373,0.19881848,-1.8423336,7.0023446
69288918510013,1.9538392,-2.3374007,8.741804
69288938365239,2.7725213,-2.452636,9.033111
69288958221751,1.7100143,2.5057316,8.223487
69288978078135,0.6524288,5.44165,11.522591
69288997934647,0.108843535,2.7432804,12.358056
69289017791159,-0.43526575,1.8466874,13.165636
69289037645416,-0.5864651,1.7931223,11.904222
69289057501928,-0.49423435,2.1269689,9.520989
69289077358312,-0.760958,1.389453,10.102437
69289097214824,-0.41380578,-0.3908218,11.9167185
69289117071336,0.053223986,0.02418602,10.039911
69289136918835,-0.16245545,2.8313527,7.850288
69289156775219,0.44071516,-0.76526487,8.934123
69289176631475,-0.4397117,-2.1079729,7.7971573
69289196487731,1.9752169,0.8106592,9.224045
69289216344115,4.062416,6.3227983,23.033937
69289236196153,-1.9788802,-0.42204922,16.097754
69289256052281,1.5944391,-4.027116,11.243663
69289275908409,0.9601209,-3.502189,9.622415
69289295764665,0.32661802,-0.17334431,6.5825753
69289315620793,1.6316801,3.75829,6.610446
69289335469576,1.4061561,1.0176526,8.9599285
69289355325704,0.5816688,-0.9876641,10.899728
69289375181704,-2.0575435,-1.7499804,10.676869
69289395037832,-1.8378226,-2.1864858,10.016876
69289414893832,3.2535074,-0.4184901,10.067289
69289434749332,2.6152859,-2.8747888,8.092542
69289454605332,-0.75609934,-5.2948437,6.2138033
69289474461460,0.07177758,-3.7782242,7.852515
69289494317460,0.22716933,-3.1614678,9.379028
69289514173460,0.12496001,-2.2425067,9.462164
69289534019482,0.21970679,1.1197213,9.4942665
69289553875226,0.19165137,13.333112,16.779484
69289573731098,4.0238385,8.795991,15.728455
69289593586970,1.0469078,-1.8487855,7.656745
69289613442842,-1.5702703,0.080832206,8.256627
69289633291617,0.93160665,-0.2906928,8.9907
69289653147361,4.205165,-1.3394146,9.298856
69289673003105,4.078838,0.17780927,10.343888
69289692858849,2.6663072,0.124893256,11.934489
69289712714593,2.4278383,0.2848904,12.358315
69289732577860,1.8258145,2.893837,12.123649
69289752433732,-0.6872257,3.757826,11.012457
69289772289476,-8.349481,-1.7924633,9.252381
69289792145348,-7.662117,-4.086955,8.98381
69289812001220,-1.1162846,-0.17033236,10.97657
69289831859981,1.140778,1.6074557,11.611096
69289851715853,-0.58771497,0.7387112,10.195534
69289871571725,-0.98804927,-0.0124834785,9.566521
69289891427597,0.11077861,-0.5320302,9.308338
69289911283341,1.7454513,-0.60747796,10.837112
69289931143350,3.2130442,-0.21748662,10.656261
69289950999222,3.1217039,-0.2633853,9.826943
69289970855094,2.368218,-0.67356616,9.846493
69289990710966,1.469866,-0.7674053,10.082112
69290010566838,0.23026052,-0.45046234,10.2689705
69290030426769,-0.22032924,-0.17920883,10.15122
69290050282641,0.14214376,-0.27557546,10.289023
69290070138513,0.5808333,-0.37231264,10.379076
69290089994385,0.6383279,-0.13137901,10.3344345
69290109850257,0.476857,0.36750546,10.551999
69290129709097,0.6198977,-0.40379485,10.667321
69290149564969,-0.20664279,0.07493687,10.673624
69290169420841,-0.6703593,0.15510733,10.424456
69290189276841,0.050950352,0.05411529,10.179228
69290209132713,0.7635457,-6.397208E-4,10.349192
69290228997470,0.76556563,-0.09292735,10.408197
69290248853598,0.3699265,0.061584078,10.362982
69290268709726,0.2848928,0.1327845,10.436555
69290288565854,0.5484269,0.031829346,10.356977
69290308421982,0.87613463,-0.114104524,10.360408
69290328289093,0.8690376,-0.27347916,10.008916
69290348145605,0.5811896,-0.34894308,10.030325
69290368001989,0.30719098,-0.19203985,10.646775
69290387858373,0.34561068,-0.075775206,10.621913
69290407714885,0.24276485,-0.1409519,10.229458
69290427581777,-0.0435578,-0.31096497,10.099877
69290447438417,0.04505628,-0.2815504,10.522644
69290467295057,0.42502826,-0.28261554,10.394222
69290487151697,0.42529032,-0.102947235,10.350258
69290507008465,0.2934181,-0.1503021,10.347865
69290526878556,0.37053853,-0.1446986,10.303645
69290546735580,0.5213405,-0.13056535,10.281174
69290566592604,0.62434006,-0.18206163,10.368735
69290586449628,0.57537156,-0.21285039,10.166645
69290606306780,0.39213353,-0.1377082,9.937372
69290626169387,0.23679864,0.07707389,10.276074
69290646026667,0.17809744,0.1012063,10.803361
69290665883947,0.36715713,-0.08126553,10.7890835
69290685741099,0.49837267,-0.34326455,10.427663
69290705598379,0.4376971,-0.5046296,10.3105955
69290725461254,0.31684574,-0.47226942,10.277806
69290745318662,0.34331486,-0.114326514,10.314436
69290765176070,0.41520166,0.20863366,10.396695
69290785033478,0.37953803,0.24828781,10.41123
69290804890758,0.39177555,0.049309842,10.356847
69290824742186,0.30122986,-0.30011535,10.422845
69290844599594,0.30351558,-0.46180266,10.421409
69290864457002,0.4823473,-0.323737,10.330345
69290884314282,0.5767102,-0.09984302,10.3105
69290904171690,0.3932195,-0.07275034,10.287257
69290924025787,0.24693456,-0.236123,10.255852
69290943883067,0.30308422,-0.32914314,10.398195
69290963740348,0.38649622,-0.2609251,10.428277
69290983597629,0.3995448,-0.17499855,10.338916
69291003454910,0.3026523,-0.22319327,10.337417
69291023307101,0.23419216,-0.2856712,10.384619
69291043164254,0.3431751,-0.30798787,10.425161
69291063021529,0.501734,-0.27041945,10.405178
69291082878809,0.4201748,-0.23671126,10.329467
69291102736089,0.32157093,-0.1788703,10.284667
69291122576851,0.33766362,-0.06809041,10.285647
69291142432448,0.44016176,0.015474714,10.337737
69291162289344,0.48192,-0.030914934,10.350671
69291182146240,0.3766479,-0.10113456,10.319054
69291202003008,0.34293944,-0.11454011,10.366608
69291221843587,0.4142756,-0.07613787,10.3812065
69291241699971,0.4414531,-0.040654607,10.324792
69291261556355,0.39824805,-0.057323273,10.350928
69291281412867,0.34527245,-0.07676634,10.371196
69291301269252,0.39908168,-0.047152285,10.368424
69291321119119,0.43729323,-0.056678686,10.33543
69291340975375,0.40186316,-0.08733289,10.285968
69291360831631,0.36102173,0.10171466,10.284891
69291380688015,0.32581818,0.18095778,10.356625
69291400544271,0.34861374,0.20557307,10.2915125
69291420400527,0.38621008,0.237973,10.313897
69291440253064,0.37309802,0.24568287,10.263224
69291460109192,0.33668792,0.22939113,10.237987
69291479965448,0.29154903,0.24317545,10.23643
69291499821577,0.35737947,0.2359462,10.239248
69291519677706,0.3897168,0.25489455,10.202137
69291539537603,0.41789955,0.2576193,10.189472
69291559393859,0.3838475,0.23438148,10.154872
69291579249987,0.35121983,0.22293405,10.160846
69291599106243,0.33859855,0.26587182,10.184311
69291618962499,0.35878414,0.30200788,10.142853
69291638770223,0.36225018,0.3384283,10.18187
69291658625583,0.3472604,0.3234372,10.181894
69291678480815,0.27990705,0.37215894,10.135355
69291698336047,0.27777162,0.3883445,10.099019
69291718191279,0.30264297,0.3273437,10.086884
69291738049796,0.3591634,0.28844985,10.089676
69291757905027,0.34889242,0.26551118,10.101207
69291777760131,0.30803174,0.29353064,10.079772
69291797615363,0.28132206,0.29885265,10.069386
69291817470467,0.2959918,0.32076922,10.07017
69291837337461,0.35231116,0.26739854,9.978378
69291857192693,0.37103802,0.23738244,10.035034
69291877048054,0.34279943,0.25260156,10.012363
69291896903285,0.30530912,0.2416929,9.999815
69291916758646,0.29123592,0.1603822,10.002056
69291936620113,0.31762686,0.14694096,10.017959
69291956475474,0.37612042,0.18666655,9.922356
69291976330832,0.39896,0.18143773,9.914515
69291996186192,0.37238163,0.1944603,9.970975
69292016041552,0.33869848,0.18650068,9.960107
69292035906565,0.33482814,0.20588173,9.904712
69292055762053,0.3755274,0.19752686,9.8637
69292075615622,0.38706654,0.167608,9.882152
69292095471239,0.36111245,0.092550166,9.897565
69292115326728,0.34125206,0.09397746,9.85433
69292135194485,0.3364308,0.16473298,9.823457
69292155050230,0.3376006,0.18903777,9.846276
69292174905975,0.3353994,0.13498901,9.917279
69292194761848,0.34974688,0.11899612,9.8345375
69292214617593,0.38356042,0.17934927,9.781594
69292234486100,0.35308462,0.22830378,9.795616
69292254342229,0.3455253,0.23291536,9.790086
69292274198230,0.35430345,0.1691757,9.794431
69292294054359,0.3661748,0.13308266,9.78752
69292313910360,0.38335344,0.10490053,9.788252
69292333773603,0.348073,0.11499136,9.829336
69292353629860,0.3444581,0.14326185,9.780055
69292373486245,0.36362445,0.1663512,9.780371
69292393342502,0.40107495,0.13763402,9.770578
69292413198887,0.4163552,0.12996572,9.767154
69292433058106,0.38308308,0.17701626,9.781339
69292452914491,0.33579978,0.16317666,9.793977
69292472770876,0.31362635,0.15671133,9.7597685
69292492627261,0.33317584,0.13553177,9.849195
69292512483646,0.37644267,0.13259274,9.817682
69292532352285,0.40547287,0.21377307,9.785534
69292552208904,0.39170012,0.24286552,9.747712
69292572065673,0.3048921,0.21934237,9.743029
69292591922442,0.29246092,0.17299595,9.762865
69292611779083,0.30736268,0.13348132,9.803937
69292631643068,0.3793884,0.1526945,9.785814
69292651499965,0.44393,0.19094425,9.720148
69292671356862,0.3908994,0.23121427,9.631209
69292691213887,0.356673,0.21024875,9.572341
69292711070784,0.3219455,0.1799567,9.644342
69292730930081,0.33902016,0.20647094,9.684605
69292750787106,0.38313472,0.1782387,9.725233
69292770644131,0.37627435,0.19650055,9.75088
69292790501156,0.35351795,0.23174551,9.808269
69292810358181,0.30472195,0.27880603,9.873761
69292830209402,0.29899386,0.25081006,9.870692
69292850066427,0.364458,0.20418912,9.814937
69292869923324,0.35153025,0.18047428,9.808683
69292889780349,0.33289617,0.1884546,9.793094
69292909637374,0.31211516,0.22826403,9.760304
69292929498581,0.3130636,0.24125133,9.752205
69292949355734,0.3697748,0.22508453,9.726549
69292969212759,0.3743269,0.2370971,9.698188
69292989069912,0.37113464,0.23896383,9.66469
69293008926937,0.31784824,0.23107697,9.67909
69293028781271,0.28969076,0.20560019,9.672477
69293048638296,0.3082415,0.23800446,9.701112
69293068495449,0.38775098,0.23818083,9.730532
69293088352602,0.40785667,0.1979238,9.746237
69293108209755,0.39826062,0.23469678,9.765126
69293128061586,0.36557257,0.2568984,9.780608
69293147918739,0.33395883,0.2399412,9.814869
69293167776020,0.35000244,0.17336166,9.876413
69293187633173,0.35166895,0.11168521,9.852783
69293207490326,0.39246055,0.1564401,9.772105
69293227318179,0.42579025,0.22278152,9.710294
69293247174436,0.3844643,0.25058654,9.713214
69293267030565,0.35848007,0.2277887,9.633251
69293286886822,0.3421403,0.21148448,9.655478
69293306742951,0.33547127,0.23618244,9.689339
69293326591516,0.37962002,0.2509985,9.740925
69293346447645,0.38262427,0.20686004,9.734241
69293366303646,0.36074492,0.1414819,9.721039
69293386159647,0.35612342,0.16386381,9.727349
69293406015648,0.35728502,0.24297832,9.721202
69293425871649,0.35412696,0.28789324,9.698663
69293445731418,0.3322254,0.2261739,9.764266
69293465587419,0.3070876,0.16743004,9.808765
69293485443548,0.34940904,0.17901766,9.825928
69293505299655,0.3868874,0.20167018,9.818481
69293525155656,0.41116512,0.18806793,9.829964
69293545013777,0.37468976,0.20713948,9.813784
69293564869906,0.3109988,0.22204329,9.774278
69293584725907,0.30924487,0.2225874,9.750159
69293604582036,0.33768535,0.21644713,9.708234
69293624438165,0.35855868,0.2125869,9.704488
69293644292112,0.35379606,0.21910244,9.698799
69293664148113,0.32458758,0.24598716,9.687497
69293684004114,0.32858518,0.28773004,9.680538
69293703860243,0.3453604,0.26098755,9.69132
69293723716244,0.36469656,0.23082191,9.706119
69293743573841,0.35646698,0.21601166,9.744436
69293763429970,0.32637772,0.2420028,9.7429285
69293783285971,0.32260317,0.2222299,9.728489
69293803141972,0.34299448,0.17786987,9.736231
69293822998101,0.39232045,0.21457647,9.780324
69293842854468,0.41267687,0.24765909,9.776974
69293862710597,0.3571909,0.1963763,9.810057
69293882566598,0.30608276,0.17219405,9.812037
69293902422727,0.31489322,0.1979911,9.806986
69293922278856,0.35029578,0.2287311,9.752069
69293942141239,0.38382527,0.24669893,9.727442
69293961997368,0.37335953,0.24907413,9.680453
69293981853476,0.35896668,0.2493145,9.682694
69294001709605,0.325412,0.2646324,9.672875
69294021565734,0.35863066,0.26284763,9.694441
69294041427483,0.34656513,0.20784947,9.725232
69294061283612,0.3403519,0.17518921,9.765616
69294081139869,0.33616373,0.20101298,9.784578
69294100996126,0.33795986,0.24584833,9.775947
69294120852383,0.36032972,0.23356675,9.734087
69294140714966,0.38041687,0.15492414,9.651417
69294160571351,0.35089302,0.18103059,9.625376
69294180427736,0.37081915,0.23818567,9.64995
69294200284121,0.34748033,0.25179136,9.726394
69294220140506,0.31013063,0.20450689,9.801294
69294240002449,0.32034647,0.20279452,9.887559
69294259859090,0.37139657,0.23407538,9.933069
69294279715603,0.37960118,0.22503038,9.932982
69294299572116,0.3491294,0.17479937,9.842502
69294319428757,0.3448745,0.1251795,9.787227
69294339287890,0.3141477,0.15793537,9.74763
69294359144531,0.32072788,0.2559464,9.738421
69294379001172,0.35193962,0.28499573,9.661892
69294398857813,0.36424592,0.2629972,9.6153145
69294418714454,0.4004247,0.21818294,9.642589
69294438567249,0.40279257,0.19767107,9.690709
69294458423741,0.36300132,0.16712606,9.707184
69294478280382,0.32577083,0.1331581,9.7276745
69294498136895,0.30415142,0.16031228,9.744605
69294517993536,0.32926267,0.18454807,9.790655
69294537857083,0.3406532,0.18195748,9.815453
69294557713852,0.3656012,0.18777706,9.783089
69294577570621,0.35921624,0.2548603,9.788635
69294597427518,0.35519624,0.2739174,9.801724
69294617284287,0.34339762,0.23978038,9.79872
69294637141488,0.3374879,0.1611913,9.764082
69294656998257,0.30241013,0.14421369,9.737709
69294676855154,0.30844113,0.18963075,9.738295
69294696712051,0.30195093,0.2374075,9.763153
69294716568820,0.30643114,0.19915935,9.74484
69294736425717,0.33323395,0.18557382,9.729028
69294756290148,0.36293197,0.20152053,9.685133
69294776147173,0.3477568,0.22849546,9.669246
69294796004198,0.33411926,0.2246343,9.70749
69294815861095,0.2953093,0.1761225,9.706601
69294835712348,0.29577875,0.17612422,9.750565
69294855569245,0.31980047,0.17150621,9.792712
69294875426142,0.32721198,0.15934978,9.77763
69294895283039,0.34686828,0.16812944,9.795424
69294915139936,0.34024686,0.15588282,9.784928
69294934996682,0.35634488,0.17518108,9.758268
69294954840123,0.34140065,0.16931625,9.749947
69294974696764,0.33266845,0.18545862,9.753562
69294994553277,0.3316275,0.193663,9.725523
69295014409918,0.32009578,0.1803871,9.688723
69295034266431,0.3476048,0.18278348,9.6603775
69295054123070,0.3607557,0.1713274,9.717905
69295073979711,0.32379058,0.14756785,9.75692
69295093836224,0.31839377,0.13122143,9.826391
69295113692865,0.30792943,0.15045813,9.872297
69295133540210,0.3240633,0.22345759,9.804277
69295153396595,0.35193548,0.18968758,9.746312
69295173253108,0.3260333,0.11585221,9.705624
69295193109493,0.32092184,0.15254393,9.694455
69295212965878,0.32051304,0.23630749,9.716115
69295232822263,0.31966978,0.24262658,9.704903
69295252672308,0.3284776,0.18376808,9.73195
69295272528565,0.32395077,0.13846987,9.794756
69295292384694,0.29440325,0.15137365,9.754624
69295312240951,0.3180715,0.19590592,9.730364
69295332097208,0.3181629,0.15785252,9.673609
69295351945517,0.29419348,0.10655184,9.648034
69295371801646,0.27194917,0.12382841,9.644095
69295391657647,0.29255047,0.18143097,9.685755
69295411513626,0.3326496,0.21042284,9.727729
69295431367365,0.33102927,0.1673609,9.831995
69295451223238,0.33366588,0.12122184,9.866674
69295471079239,0.33682644,0.16096227,9.857115
69295490935112,0.3138037,0.16913743,9.803084
69295510790985,0.28631848,0.11659393,9.77298
69295530646986,0.2778378,0.08558503,9.757675
69295550509569,0.3169945,0.15040933,9.743685
69295570365698,0.36309838,0.18410115,9.731581
69295590221699,0.34739754,0.17168479,9.739576
69295610077700,0.35586753,0.17284806,9.758013
69295629933829,0.313521,0.19454594,9.706406
69295649790490,0.31439275,0.17624663,9.647425
69295669646619,0.33098888,0.12642536,9.667211
69295689502620,0.32210302,0.08620329,9.714277
69295709358749,0.33062327,0.0779362,9.72893
69295729215562,0.34572563,0.12119172,9.754731
69295749071691,0.3290334,0.17089927,9.803444
69295768927692,0.3373729,0.18604192,9.806746
69295788783821,0.3406864,0.15100303,9.80619
69295808639950,0.3565949,0.117376976,9.791669
69295828495951,0.31745768,0.15873244,9.779037
69295848347960,0.30153215,0.17083442,9.788079
69295868203961,0.29464975,0.18654616,9.747315
69295888059941,0.31699914,0.18857622,9.731941
69295907915942,0.33857438,0.16253076,9.727407
69295927771943,0.32211035,0.1518845,9.743109
69295947629426,0.32381564,0.17142323,9.718691
69295967485427,0.3094164,0.17998512,9.712321
69295987341428,0.30358782,0.17084967,9.716821
69296007197429,0.31610096,0.16615854,9.7362585
69296027053430,0.32246363,0.15987523,9.736841
69296046909431,0.3448662,0.17998934,9.75826
69296066775582,0.33757862,0.18648791,9.779866
69296086631711,0.32889664,0.19320004,9.779698
69296106487840,0.32569647,0.19273548,9.789907
69296126343969,0.29514608,0.16391495,9.773405
69296146200280,0.3136874,0.17712657,9.752852
69296166056537,0.3471918,0.1712389,9.766457
69296185912666,0.35687885,0.15976241,9.763352
69296205768795,0.37083203,0.1644016,9.739848
69296225625052,0.3568535,0.19304805,9.728907
69296245486659,0.33717033,0.20690145,9.728985
69296265343044,0.31609282,0.2209685,9.70729
69296285199301,0.3194771,0.16218796,9.676465
69296305055558,0.35582685,0.13812119,9.738444
69296324911815,0.3567674,0.14877732,9.774053
69296344768072,0.33342567,0.13486868,9.809921
69296364631514,0.31244102,0.12774393,9.824367
69296384488027,0.31452277,0.1684763,9.807773
69296404344668,0.34316093,0.16045061,9.782678
69296424201181,0.3388964,0.15498753,9.750758
69296444061554,0.32660145,0.14348184,9.721663
69296463918195,0.30360487,0.19237387,9.722299
69296483774836,0.3216294,0.24252835,9.702142
69296503631477,0.33198076,0.20165373,9.719255
69296523488246,0.34258652,0.1411424,9.758025
69296543344851,0.34947065,0.13608311,9.746471
69296563201492,0.31463143,0.15194708,9.756497
69296583058133,0.3056636,0.16276231,9.76429
69296602914774,0.30894378,0.15867801,9.772996
69296622771415,0.33063072,0.14361742,9.757761
69296642628056,0.35305375,0.14941989,9.752694
69296662485135,0.3406078,0.16620496,9.734952
69296682341904,0.3168534,0.13454296,9.731684
69296702198673,0.35324234,0.12834181,9.720336
69296722055314,0.35053664,0.1517341,9.736282
69296741908677,0.34722313,0.18677299,9.736837
69296761765318,0.35761216,0.15311094,9.7329445
69296781621959,0.33388102,0.13465184,9.743767
69296801478600,0.34705698,0.14705124,9.763066
69296821335241,0.37409517,0.1387931,9.743076
69296841191859,0.36834216,0.086941764,9.778236
69296861045976,0.35444203,0.10038651,9.838532
69296880902489,0.36335766,0.14548984,9.814168
69296900759130,0.356637,0.16275668,9.758919
69296920615643,0.38900647,0.11226246,9.688119
69296940472284,0.4181015,0.120881416,9.689765
69296960316929,0.36661777,0.14950839,9.7041445
69296980173186,0.32525596,0.1236123,9.748426
69297000029571,0.3181616,0.090058446,9.798604
69297019885828,0.3339,0.10968762,9.769601
69297039740085,0.36785653,0.1394187,9.749013
69297059596342,0.40193257,0.12532483,9.746694
69297079452599,0.38875493,0.15941384,9.707038
69297099308856,0.33603486,0.22564493,9.717124
69297119165113,0.3053964,0.19904232,9.72541
69297139021370,0.3035437,0.17195864,9.729215
69297158871403,0.31591144,0.11323413,9.748396
69297178727532,0.34497067,0.06815174,9.791404
69297198583661,0.372682,0.10682985,9.768143
69297218439918,0.37830967,0.15368631,9.778781
69297238296047,0.35106093,0.18047257,9.764718
69297258147228,0.32060757,0.16862738,9.772611
69297278003229,0.30705783,0.16254877,9.786064
69297297859230,0.31408653,0.13752013,9.754547
69297317715339,0.35570905,0.13545762,9.740533
69297337564270,0.36545378,0.1802321,9.762478
69297357420143,0.3401476,0.18539603,9.740175
69297377276016,0.3294763,0.18732524,9.720065
69297397131889,0.31669956,0.13531941,9.70246
69297416987762,0.35807234,0.13391997,9.727721
69297436843635,0.3553559,0.12746689,9.746799
69297456693144,0.33158237,0.12076923,9.717696
69297476548761,0.3518103,0.12134279,9.719569
69297496404378,0.3257927,0.13570796,9.794085
69297516260123,0.35039034,0.16105087,9.808564
69297536115740,0.35404167,0.12313145,9.743944
69297555975917,0.3620284,0.06693322,9.680972
69297575831534,0.36097306,0.08112772,9.688029
69297595687279,0.34485897,0.11430789,9.729428
69297615542896,0.3419069,0.10252778,9.752685
69297635398641,0.32128164,0.09507223,9.769476
69297655254258,0.33671734,0.09728007,9.742956
69297675109899,0.37858465,0.11973772,9.773952
69297694965644,0.35958007,0.09820299,9.7591505
69297714821389,0.35123426,0.09138187,9.747236
69297734677134,0.33911029,0.10062369,9.752846
69297754534195,0.34397173,0.121735826,9.730613
69297774389940,0.37488815,0.14190438,9.758072
69297794245537,0.34606022,0.09700553,9.795305
69297814101282,0.3318623,0.06784652,9.7738
69297833956899,0.32103837,0.08741355,9.817362
69297853814346,0.31734803,0.10125892,9.810094
69297873670091,0.3444553,0.11574742,9.739479
69297893525708,0.34546188,0.121635884,9.683887
69297913381453,0.3445638,0.09921821,9.688204
69297933237198,0.3300389,0.10278523,9.72763
69297953092943,0.3223209,0.13335615,9.777162
69297972950962,0.31477886,0.15949193,9.77711
69297992806707,0.31963286,0.11492297,9.726045
69298012662452,0.36324984,0.09246059,9.647688
69298032518197,0.35364452,0.110040784,9.61739
69298052383200,0.3159477,0.10358532,9.634493
69298072239073,0.33234558,0.11899913,9.7099905
69298092095074,0.3656094,0.1329671,9.812057
69298111951075,0.34382397,0.120399654,9.855215
69298131806948,0.31805587,0.13410221,9.890456
69298151662949,0.32327697,0.15488377,9.870568
69298171520138,0.3349754,0.1445314,9.808599
69298191376267,0.319749,0.10693384,9.776276
69298211232268,0.3445525,0.13272263,9.763876
69298231088269,0.3347997,0.142758,9.712964
69298250944270,0.32056412,0.106386185,9.712467
69298270808985,0.3054691,0.12881202,9.715496
69298290665114,0.32858905,0.19475317,9.721249
69298310521371,0.3513483,0.18702216,9.704436
69298330377500,0.36778095,0.18213458,9.718352
69298350233757,0.31806058,0.16606031,9.733497
69298370089886,0.27739275,0.17278872,9.748022
69298389948629,0.28454205,0.1779381,9.754991
69298409805014,0.29016048,0.14846066,9.789115
69298429661271,0.30289856,0.119251065,9.8075075
69298449517656,0.30802524,0.15057185,9.803799
69298469376429,0.3005163,0.1457533,9.794484
69298489232814,0.31396982,0.2088593,9.776855
69298509089199,0.30339903,0.19192798,9.749179
69298528945584,0.28896573,0.15744148,9.73185
69298548802097,0.26163888,0.14228842,9.719227
69298568653526,0.25659665,0.14458567,9.730109
69298588509783,0.28992665,0.1537861,9.7409725
69298608366040,0.2865555,0.1325739,9.716481
69298628222425,0.2867705,0.15221256,9.73879
69298648078682,0.28410873,0.17449625,9.74234
69298667935067,0.26679066,0.14032358,9.749963
69298687791050,0.28160614,0.113679335,9.763505
69298707647307,0.29520604,0.11032768,9.746267
69298727503692,0.2782443,0.11165993,9.7882
69298747360055,0.22654533,0.12064823,9.780271
69298767214374,0.29731765,0.15594131,9.752377
69298787070631,0.34281564,0.15479095,9.745235
69298806927016,0.2874471,0.16331309,9.703554
69298826783273,0.27874655,0.13784832,9.750227
69298846639530,0.28858185,0.013425747,9.76787
69298866496977,0.30066815,-0.003028874,9.783268
69298886353362,0.31061321,0.12451587,9.789942
69298906209619,0.28960752,0.18884353,9.758198
69298926066004,0.28871295,0.13059026,9.73055
69298945922261,0.29007947,0.079007015,9.749977
69298965778518,0.31392193,0.10845109,9.728455
69298985623493,0.32457718,0.15900043,9.763306
69299005479622,0.3048472,0.14644836,9.735205
69299025335623,0.28705168,0.109942675,9.742572
69299045191752,0.27948168,0.084708646,9.740174
69299065037921,0.29157892,0.098099865,9.7524395
69299084893794,0.28928304,0.111731455,9.766946
69299104749667,0.28411397,0.09217222,9.730731
69299124605540,0.3005843,0.09449708,9.72364
69299144461285,0.30001265,0.10270318,9.739563
69299164317158,0.3001583,0.15673655,9.7398205
69299184175819,0.3006024,0.1900239,9.749339
69299204031820,0.2760975,0.14348906,9.771001
69299223887670,0.2752731,0.124843925,9.785622
69299243743543,0.29307055,0.11486106,9.798611
69299263599544,0.28274152,0.09493585,9.775367
69299283451583,0.26902393,0.095623925,9.794692
69299303307456,0.2896363,0.11972218,9.760679
69299323163201,0.32768473,0.18065679,9.716954
69299343018946,0.28948697,0.15866576,9.71971
69299362869791,0.260915,0.104782775,9.72628
69299382725408,0.26320753,0.12698667,9.743739
69299402581153,0.25673774,0.16045204,9.74211
69299422436770,0.28270993,0.13654289,9.73231
69299442292387,0.31318846,0.11510246,9.7588625
69299462148132,0.3054173,0.12758955,9.771601
69299482004163,0.2872355,0.11404738,9.7944975
69299501859780,0.2532852,0.07599488,9.823696
69299521715397,0.26029783,0.10344478,9.806919
69299541571014,0.27453065,0.112302385,9.766843
69299561426759,0.28171122,0.13298573,9.744194
69299581275550,0.29964495,0.15784357,9.708251
69299601131039,0.28660396,0.16963194,9.692343
69299620986400,0.29196602,0.20628011,9.684456
69299640841889,0.29023743,0.17353848,9.694782
69299660700960,0.267667,0.10305015,9.751911
69299680556449,0.23465455,0.048139464,9.776143
69299700411917,0.2689499,0.09185151,9.784386
69299720267534,0.28302833,0.16483536,9.787625
69299740123023,0.27431953,0.19418065,9.805331
69299759978640,0.2733135,0.12494227,9.788382
69299779836829,0.277357,0.11908775,9.789385
69299799692446,0.29235572,0.15368956,9.782177
69299819547935,0.28709236,0.14466943,9.76214
69299839403552,0.25598004,0.079897985,9.738207
69299859259041,0.25422603,0.08044221,9.714088
69299879116812,0.27422732,0.15202242,9.6966505
69299898972429,0.29024836,0.20338409,9.691649
69299918828174,0.3261427,0.17332573,9.674568
69299938683791,0.30612087,0.11605693,9.718492
69299958539408,0.26966286,0.09951166,9.780464
69299978395025,0.27193466,0.13602719,9.824407
69299998263664,0.25168967,0.113929555,9.817057
69300018119665,0.2663108,0.053335126,9.781807
69300037975538,0.32909253,0.043309387,9.756086
69300057831411,0.34772137,0.11765335,9.783283
69300077683994,0.31838107,0.14786437,9.809169
69300097539739,0.25424457,0.11882779,9.812464
69300117395612,0.23090136,0.088057905,9.755436
69300137251485,0.29199037,0.098991625,9.69868
69300157107358,0.28739917,0.06290501,9.655153
69300176963586,0.2673062,0.08651923,9.656672
69300196819459,0.27000508,0.1347979,9.704655
69300216675332,0.2596818,0.16990097,9.762562
69300236531077,0.27843392,0.16458435,9.776062
69300256386950,0.29587153,0.15493241,9.786706
69300276242823,0.27281898,0.10108507,9.782648
69300296108326,0.24140665,0.04640672,9.801774
69300315964327,0.22808616,0.05397679,9.802438
69300335820328,0.27240908,0.110846005,9.784087
69300355676457,0.2926543,0.13294365,9.791438
69300375529672,0.2909443,0.13237903,9.754925
69300395385673,0.3130895,0.14461567,9.71411
69300415241674,0.2893394,0.1511208,9.699099
69300435097803,0.27581036,0.13073067,9.686066
69300454953804,0.2601285,0.09334996,9.719897
69300474814517,0.25747147,0.09665953,9.784378
69300494670774,0.2798329,0.14539658,9.858767
69300514527031,0.29862258,0.14729252,9.851261
69300534383160,0.2947003,0.119974785,9.816206
69300554239417,0.2778953,0.1418361,9.782723
69300574095546,0.30225912,0.17250457,9.749061
69300593951395,0.26782408,0.12357899,9.6764965
69300613807524,0.26503384,0.11335349,9.685268
69300633663781,0.3018133,0.18570542,9.719188
69300653519889,0.34063575,0.21757454,9.737298
69300673375406,0.29977092,0.10569732,9.735129
69300693231663,0.25396702,0.061912276,9.704177
69300713087792,0.2781468,0.15182573,9.69113
69300732943921,0.2880721,0.17319082,9.724422
69300752800050,0.28430212,0.13444394,9.770913
69300772656179,0.28447932,0.14687005,9.814227
69300792520396,0.2747891,0.19418225,9.849296
69300812376781,0.2903658,0.21225645,9.834777
69300832233038,0.25276658,0.15942627,9.803736
69300852089423,0.2575012,0.101540685,9.807079
69300871945680,0.22691579,0.15016314,9.779484
69300891801907,0.23514976,0.2031403,9.729423
69300911658164,0.26342848,0.19544518,9.701983
69300931514549,0.26647654,0.15019812,9.682902
69300951370934,0.27712902,0.17323302,9.677177
69300971216221,0.27394602,0.19429255,9.692868
69300991072350,0.27622318,0.14848393,9.7252035
69301010928479,0.25099567,0.13844618,9.774139
69301030784608,0.23526795,0.14866275,9.80001
69301050640737,0.2462969,0.1928914,9.802107
69301070496866,0.25378868,0.17618611,9.805942
69301090348813,0.27677268,0.14393677,9.788084
69301110204942,0.30183408,0.114252895,9.765377
69301130060922,0.28198907,0.12655145,9.77994
69301149917051,0.28015462,0.19499457,9.809443
69301169773052,0.25443852,0.20991935,9.788581
69301189623713,0.25263327,0.14589109,9.748026
69301209479586,0.2529208,0.1524408,9.687745
69301229335459,0.26410064,0.1683787,9.678491
69301249191460,0.27086267,0.1224887,9.68077
69301269047443,0.24185383,0.10099959,9.706652
69301288903316,0.25693724,0.16921932,9.70662
69301308759189,0.28237477,0.22407886,9.764276
69301328615062,0.27793944,0.14072725,9.7703285
69301348470935,0.3158595,0.11201156,9.8045
69301368326808,0.31098825,0.13505656,9.850085
69301388182779,0.28052673,0.17802095,9.829011
69301408038652,0.28346813,0.1599557,9.8088875
69301427894525,0.27446947,0.09188715,9.77376
69301447750398,0.27814072,0.103006124,9.755192
69301467606271,0.27128163,0.13192078,9.728517
69301487459384,0.27476585,0.17477079,9.689989
69301507315257,0.29821736,0.18901157,9.695741
69301527171002,0.30886528,0.1738797,9.701759
69301547026747,0.31153774,0.18144162,9.695076
69301566882492,0.30634665,0.1655412,9.737666
69301586738237,0.27975148,0.13308407,9.746955
69301606599928,0.25037062,0.12856822,9.75327
69301626455929,0.25941858,0.11320412,9.764395
69301646311802,0.28254032,0.13265687,9.790503
69301666167803,0.29288813,0.12761809,9.83958
69301686025004,0.3085387,0.14946459,9.835368
69301705880877,0.3066969,0.1522264,9.83604
69301725736878,0.28053322,0.16969955,9.837623
69301745592751,0.24964811,0.16506532,9.780545
69301765448752,0.21680668,0.124693595,9.694264
69301785307367,0.24363443,0.13496368,9.640222
69301805163368,0.28960627,0.17198204,9.665302
69301825019241,0.27388483,0.1738772,9.699783
69301844875242,0.25877485,0.1282905,9.717692
69301864731115,0.27412862,0.124394625,9.724574
69301884587116,0.27042428,0.14422998,9.752402
69301904444689,0.26789925,0.1442129,9.779699
69301924300690,0.26837215,0.10837901,9.791698
69301944156819,0.24877536,0.10936177,9.819307
69301964012820,0.25354877,0.13269171,9.821865
69301983868219,0.26448065,0.15994528,9.799566
69302003724092,0.29002216,0.16010848,9.81769
69302023580093,0.27845928,0.1312986,9.810508
69302043436094,0.25413465,0.11849551,9.770844
69302063292095,0.22031279,0.17009333,9.722145
69302083145174,0.21130894,0.18434869,9.698626
69302103001175,0.2243137,0.1760007,9.683222
69302122857048,0.2263868,0.14039879,9.690116
69302142713049,0.27200234,0.14191236,9.680887
69302162568922,0.2881366,0.15777057,9.685541
69302182424923,0.3029326,0.21944048,9.74579
69302202276358,0.2751816,0.22003835,9.769702
69302222132103,0.21772519,0.13900842,9.808678
69302241987976,0.19873326,0.10083075,9.811101
69302261843849,0.23940745,0.085780814,9.805186
69302281697248,0.28959867,0.112509616,9.781686
69302301553121,0.28545117,0.17306025,9.820217
69302321408994,0.26789677,0.25405124,9.831883
69302341264739,0.2556269,0.26640093,9.76456
69302361120612,0.27007055,0.19338028,9.685994
69302380976357,0.27840903,0.13452019,9.669077
69302400837848,0.28200486,0.13121404,9.692523
69302420693849,0.24987434,0.15119967,9.727179
69302440549850,0.23400542,0.14554998,9.74105
69302460405851,0.25910738,0.15059274,9.737911
69302480261852,0.29223317,0.1700001,9.723333
69302500116487,0.2998158,0.17859133,9.742954
69302519972488,0.3012777,0.19047149,9.766422
69302539828489,0.27928162,0.1964324,9.775531
69302559684468,0.25499946,0.17186764,9.77579
69302579534179,0.2574555,0.14913808,9.79912
69302599389924,0.28726333,0.16541706,9.7968445
69302619245797,0.28320265,0.1497474,9.790363
69302639101670,0.25771776,0.1318323,9.777067
69302658957415,0.24888833,0.13099958,9.756287
69302678813288,0.27356768,0.16244632,9.737365
69302698667351,0.3053056,0.17374559,9.709626
69302718523096,0.28773594,0.18672407,9.736169
69302738378841,0.3071269,0.1852953,9.735439
69302758234586,0.2947943,0.16657694,9.727352
69302778090331,0.2660227,0.16106766,9.696737
69302797952764,0.22890379,0.13808458,9.706529
69302817808637,0.23437132,0.13689789,9.752006
69302837664510,0.25952032,0.16834612,9.777048
69302857520255,0.296303,0.20486256,9.779001
69302877374952,0.30114907,0.1579623,9.771646
69302897230697,0.2856995,0.16174446,9.833263
69302917086570,0.2846845,0.21066596,9.859887
69302936942443,0.2651036,0.21631154,9.800079
69302956798188,0.23359549,0.15531081,9.742489
69302976654061,0.27492148,0.1275058,9.739569
69302996507132,0.30844304,0.14314233,9.758651
69303016362877,0.27414867,0.17343302,9.770628
69303036218598,0.2568835,0.2144853,9.742367
69303056074343,0.2823559,0.24904309,9.738441
69303075930088,0.2966876,0.22838737,9.743117
69303095777729,0.30215847,0.19136508,9.756628
69303115633218,0.27052933,0.16353649,9.73309
69303135488835,0.24527355,0.15926994,9.707006
69303155344452,0.25934094,0.20240843,9.713377
69303175199941,0.2634422,0.252805,9.739425
69303195055558,0.27811015,0.21861602,9.732355
69303214915379,0.29187644,0.19784498,9.761565
69303234770996,0.28240454,0.22896014,9.786977
69303254626613,0.24894261,0.22308637,9.813298
69303274482358,0.23093691,0.14796756,9.85929
69303294340163,0.24561413,0.13297138,9.901406
69303314195780,0.2903328,0.18606965,9.916714
69303334051525,0.33861452,0.26060745,9.819516
69303353907270,0.2872456,0.25817513,9.646014
69303373762887,0.23364867,0.2243272,9.561389
69303393620010,0.23729017,0.23056503,9.520121
69303413475755,0.2498987,0.28933743,9.543599
69303433331500,0.2521378,0.2996663,9.669481
69303453187373,0.27608588,0.23413461,9.773997
69303473043118,0.28836212,0.2134634,9.849933
69303492898863,0.28973877,0.2550758,9.938767
69303512756093,0.26972762,0.2276525,9.979559
69303532611966,0.23454644,0.20202133,9.920178
69303552467711,0.21475707,0.17970648,9.846676
69303572323456,0.266283,0.19645922,9.799545
69303592174947,0.29741305,0.21940483,9.756417
69303612030692,0.29260185,0.24600333,9.702192
69303631886437,0.2890823,0.33773735,9.656951
69303651742182,0.26389393,0.34556475,9.632561
69303671597927,0.26209047,0.23504831,9.612361
69303691450332,0.26964527,0.19226971,9.629636
69303711306077,0.28276727,0.24993509,9.684683
69303731161694,0.25839818,0.30159065,9.729954
69303751017439,0.24577373,0.23815566,9.793891
69303770873056,0.2800902,0.21041483,9.848326
69303790728801,0.32744995,0.25554118,9.886568
69303810581262,0.32078242,0.2908917,9.868111
69303830436879,0.254074,0.2354328,9.870522
69303850292368,0.21907362,0.18639202,9.822492
69303870147985,0.2585557,0.20783736,9.799888
69303890002294,0.2820997,0.25802746,9.769104
69303909857783,0.28964782,0.28071165,9.705091
69303929713400,0.28195196,0.30762386,9.675817
69303949568889,0.2903623,0.2990244,9.6488495
69303969424378,0.2666986,0.29265913,9.661367
69303989279844,0.26541427,0.29320505,9.681213
69304009144763,0.26233178,0.29540408,9.689335
69304029000508,0.26513946,0.2700124,9.758718
69304048856253,0.24209289,0.2711936,9.835812
69304068711870,0.2448786,0.24325219,9.838784
69304088567615,0.27678928,0.22881077,9.866104
69304108415272,0.27497086,0.24477537,9.880866
69304128270761,0.2831169,0.2999702,9.855596
69304148126378,0.25140905,0.2873434,9.76082
69304167981867,0.23604491,0.1980439,9.68453
69304187839770,0.2891677,0.25086433,9.66426
69304207695259,0.27665722,0.28306976,9.685399
69304227550876,0.2503778,0.25139067,9.709427
69304247406365,0.26428545,0.24648601,9.750638
69304267261982,0.25470987,0.2689476,9.74304
69304287117471,0.24809454,0.24837957,9.741156
69304306981176,0.27674556,0.22371095,9.733282
69304326836921,0.25352788,0.2041446,9.775674
69304346692538,0.25566483,0.21647248,9.816228
69304366548283,0.2852499,0.21078116,9.835353
69304386404028,0.3046833,0.19759084,9.874548
69304406262761,0.31590742,0.21241964,9.8529005
69304426118506,0.28040725,0.2218458,9.810745
69304445974379,0.25556305,0.21847126,9.7309
69304465830230,0.24551347,0.20276423,9.691084
69304485692735,0.26676062,0.19258344,9.654586
69304505548736,0.3051766,0.19837765,9.642172
69304525404737,0.30910978,0.25554088,9.674093
69304545260610,0.263194,0.26412064,9.72638
69304565116611,0.25412455,0.21979377,9.72152
69304584972612,0.26788473,0.20734414,9.74212
69304604822707,0.27563095,0.17100178,9.7676115
69304624678580,0.26807812,0.16729172,9.770693
69304644534453,0.23712057,0.17574643,9.7962055
69304664390454,0.26315662,0.19976696,9.820063
69304684246327,0.29233328,0.21448952,9.788307
69304704102878,0.2846798,0.22964007,9.798956
69304723958751,0.26771155,0.23929384,9.832277
69304743814624,0.27716762,0.26065686,9.821609
69304763670369,0.27035934,0.21679148,9.718608
69304783526242,0.27519003,0.15901972,9.653453
69304803382115,0.28747848,0.17884706,9.673937
69304823246454,0.29092798,0.24199869,9.696991
69304843102455,0.26923025,0.22721356,9.715358
69304862958584,0.24874811,0.18913595,9.764504
69304882814585,0.2625505,0.2220659,9.752354
69304902667874,0.28444928,0.1991299,9.71885
69304922523875,0.28897002,0.1956085,9.720106
69304942379854,0.30555025,0.19826576,9.754636
69304962235855,0.26896635,0.23386663,9.789729
69304982091984,0.23129296,0.24061383,9.820924
69305001945791,0.24815254,0.24748917,9.838879
69305021801792,0.26898974,0.24706931,9.80382
69305041657793,0.26911724,0.20557575,9.7783785
69305061513794,0.24077912,0.20350833,9.760415
69305081369795,0.24087158,0.23945755,9.723881
69305101225796,0.26771486,0.26059914,9.727638
69305121075055,0.268905,0.2705924,9.723972
69305140931056,0.27420935,0.25098962,9.691035
69305160786929,0.27275681,0.25830188,9.716755
69305180642930,0.27213842,0.24010263,9.704498
69305200490129,0.26308265,0.25313556,9.737081
69305220345874,0.25418407,0.22955629,9.766926
69305240201619,0.22725302,0.21063253,9.787959
69305260057364,0.24119829,0.2129403,9.808163
69305279912981,0.27102962,0.24242185,9.819978
69305299766210,0.29283857,0.2681922,9.790909
69305319621827,0.28120813,0.22728826,9.782033
69305339477444,0.24852979,0.205333,9.774162
69305359333061,0.24960046,0.25915077,9.75223
69305379188678,0.2644326,0.3111721,9.698575
69305399044295,0.28492925,0.28611848,9.687006
69305418890461,0.2956169,0.23171037,9.692374
69305438745822,0.29558355,0.26266506,9.701637
69305458601311,0.2783564,0.25378865,9.725045
69305478456672,0.27941647,0.22062005,9.77892
69305498310601,0.29822788,0.22506596,9.837824
69305518165962,0.31621033,0.22984074,9.850417
69305538021323,0.30921012,0.24288915,9.811741
69305557876684,0.27946037,0.21951133,9.766524
69305577732045,0.2586922,0.24267782,9.750959
69305597587278,0.2534099,0.25862205,9.705088
69305617447575,0.26560757,0.25315264,9.709785
69305637303064,0.29026183,0.2607439,9.729093
69305657158425,0.31050703,0.2828414,9.736443
69305677013914,0.28658456,0.2579462,9.739049
69305696869403,0.29082578,0.25020638,9.756878
69305716721272,0.27461773,0.23057574,9.741917
69305736576633,0.2421876,0.19730468,9.747092
69305756431866,0.24037364,0.2514363,9.75011
69305776287099,0.2627258,0.28098056,9.775312
69305796145580,0.29096687,0.26607275,9.768879
69305816000941,0.30440503,0.26116624,9.766127
69305835856302,0.28937316,0.25751913,9.782597
69305855711663,0.27141616,0.21945848,9.804448
69305875567024,0.27862984,0.20918748,9.772535
69305895422234,0.27512193,0.21027581,9.7242985
69305915277255,0.25135148,0.23109247,9.735771
69305935132616,0.2679253,0.24207102,9.76169
69305954987977,0.29758856,0.27831948,9.779376
69305974843338,0.30645117,0.24819763,9.790895
69305994698699,0.2681105,0.25682843,9.761295
69306014558388,0.24296315,0.23603302,9.683933
69306034413749,0.2429666,0.2001973,9.651969
69306054269110,0.292208,0.20328574,9.6888895
69306074124599,0.2983302,0.21685816,9.777936
69306093985836,0.27688065,0.19075747,9.809347
69306113841453,0.27363828,0.14491323,9.85231
69306133696942,0.29038474,0.18729222,9.860611
69306153552559,0.32392487,0.23510543,9.832852
69306173408048,0.28405055,0.1815952,9.789832
69306193263665,0.27249518,0.15511674,9.738941
69306213118222,0.2878816,0.24075745,9.736426
69306232973711,0.2533972,0.27526498,9.687865
69306252829200,0.28372818,0.2462797,9.693806
69306272684689,0.2896405,0.21503033,9.676259
69306292540178,0.28477293,0.20223935,9.689881
69306312403593,0.27085564,0.19416027,9.744699
69306332259338,0.2572621,0.18919039,9.770547
69306352115083,0.27452192,0.23046225,9.810415
69306371970676,0.2677557,0.23818487,9.819882
69306391826421,0.26696452,0.18858528,9.825241
69306411682166,0.28502864,0.19946401,9.804433
69306431542445,0.27487856,0.20261738,9.772184
69306451398318,0.27936965,0.19421458,9.750739
69306471254191,0.2954066,0.19309759,9.730997
69306491110064,0.29709753,0.21862656,9.741677
69306510976731,0.28460312,0.19835345,9.748075
69306530832732,0.25609052,0.21137413,9.727372
69306550688861,0.25943536,0.19186945,9.697198
69306570544990,0.2760424,0.17189343,9.713852
69306590401119,0.31318042,0.1699123,9.729896
69306610256974,0.32713997,0.16622995,9.715003
69306630113103,0.3127939,0.1928759,9.745425
69306649969232,0.28553393,0.2531666,9.807036
69306669825361,0.25973964,0.22615191,9.787611
69306689681618,0.26984808,0.11426918,9.780069
69306709537747,0.30408773,0.055241607,9.783622
69306729390974,0.32401192,0.1588851,9.787842
69306749246975,0.32121974,0.19514804,9.776257
69306769103104,0.28324044,0.15695995,9.769358
69306788959233,0.28997356,0.18019144,9.769154
69306808818660,0.33805928,0.1529852,9.748157
69306828674789,0.32365283,0.09586588,9.712955
69306848530897,-0.21460983,0.2649143,9.704782
69306868387154,-0.27132088,0.22941907,9.701685
69306888243283,-0.28240028,0.22237633,9.725987
69306908100990,-0.26512438,0.22292738,9.729301
69306927957247,-0.25828528,0.2293458,9.732392
69306947813504,-0.21603628,0.266357,9.782916
69306967669761,-0.17852932,0.24226359,9.811208
69306987526018,-0.20661159,0.23834285,9.838812
69307007382147,-0.22374539,0.2308376,9.851485
69307027225002,-0.2754854,0.20793097,9.818663
69307047081003,-0.280113,0.22633365,9.773969
69307066936876,-0.23550092,0.22301365,9.734099
69307086792877,-0.25245887,0.19330919,9.746084
69307106638254,-0.254673,0.19257933,9.702376
69307126493999,-0.20147197,0.21910648,9.685458
69307146349616,-0.17649934,0.23525862,9.687598
69307166205361,-0.23140258,0.23059218,9.690719
69307186061106,-0.29063863,0.21283838,9.706484
69307205916851,-0.27342513,0.19258043,9.7308855
69307225767072,-0.24558075,0.21819955,9.7701235
69307245622689,-0.24035552,0.24553324,9.781608
69307265478306,-0.21029754,0.2515741,9.819487
69307285333923,-0.2043248,0.2219919,9.841725
69307305189540,-0.20350625,0.21270262,9.816509
69307325039290,-0.24708472,0.16678981,9.744762
69307344894779,-0.25686395,0.2260327,9.7088
69307364750268,-0.3195693,0.21752791,9.733214
69307384605757,-0.32608065,0.18067326,9.753226
69307404460332,-0.25676158,0.18847957,9.740856
69307424315821,-0.26615685,0.1916617,9.73334
69307444171310,-0.3090417,0.1927135,9.691227
69307464026671,-0.28864583,0.19349305,9.672928
69307483882160,-0.24795024,0.20844519,9.694788
69307503737649,-0.28025186,0.2249252,9.744439
69307523588762,-0.30822897,0.20197482,9.836101
69307543443995,-0.27091917,0.17765231,9.831823
69307563299356,-0.30117714,0.1781577,9.833228
69307583154589,-0.2815323,0.21127775,9.852459
69307603009950,-0.24296361,0.23528549,9.857915
69307622864915,-0.23805903,0.20665663,9.777837
69307642720276,-0.25258514,0.19032831,9.715809
69307662575509,-0.29952133,0.1756347,9.706441
69307682430742,-0.31955856,0.18742658,9.695267
69307702284671,-0.3368685,0.1893123,9.681068
69307722139776,-0.319106,0.17681605,9.692498
69307741995009,-0.29197964,0.17737122,9.688588
69307761850242,-0.2956891,0.17741969,9.723013
69307781705347,-0.27401727,0.17226824,9.767013
69307801560557,-0.3072006,-0.11800762,9.793915
69307821413712,-0.30362874,-0.08145264,9.807843
69307841268817,-0.33912796,-0.060792405,9.817086
69307861123922,-0.3441124,-0.08604941,9.805992
69307880979027,-0.34347478,-0.104421906,9.806685
69307900834132,-0.35097912,-0.13103083,9.819966
69307920689379,-0.31936336,-0.13657117,9.79304
69307940544484,-0.33261627,-0.14660223,9.704981
69307960399589,-0.3573733,-0.1271867,9.696203
69307980254694,-0.36084685,-0.14426054,9.693721
69308000109799,-0.33117127,-0.12420681,9.70143
69308019964904,-0.3004421,-0.100847594,9.69649
69308039823429,-0.31077453,-0.13179685,9.729711
69308059678534,-0.33430538,-0.15430051,9.767213
69308079533639,-0.3288932,-0.13092293,9.786013
69308099388744,-0.35713363,-0.12778968,9.803977
69308119245617,-0.3812952,-0.15964833,9.825833
69308139100850,-0.33071974,-0.16406812,9.8524685
69308158956083,-0.28070334,-0.13818353,9.847073
69308178811316,-0.28652218,-0.10243146,9.798799
69308198666549,-0.31454802,-0.12075301,9.744525
69308218523744,-0.31599817,-0.14731872,9.712073
69308238378977,-0.30160508,-0.1816758,9.690238
69308258234210,-0.30321398,-0.20933977,9.670182
69308278089421,-0.14105432,-0.16181135,9.698634
69308297944654,-0.17786606,-0.15040472,9.732764
69308317799887,-0.1646907,-0.14777361,9.741893
69308337661044,-0.17127308,-0.13353826,9.756087
69308357516405,-0.16360188,-0.11254123,9.774149
69308377371766,-0.140927,-0.11431134,9.812305
69308397227127,-0.14713979,-0.13039142,9.815854
69308417087006,-0.15783216,-0.14214464,9.832787
69308436942495,-0.17840347,-0.14809573,9.852251
69308456797984,-0.16215311,-0.1365388,9.816673
69308476653601,-0.17434835,-0.14355777,9.771581
69308496509090,-0.1456205,-0.13271417,9.777261
69308516370699,-0.1349117,-0.16631228,9.805416
69308536226444,-0.13312823,-0.18315338,9.746751
69308556082061,-0.13973822,-0.15576199,9.649125
69308575937806,-0.16339307,-0.14960366,9.646931
69308595793551,-0.16550554,-0.16860995,9.668652
69308615649296,-0.14644256,-0.12814058,9.75451
69308635506693,-0.12312042,-0.08931833,9.829042
69308655362438,-0.19717258,-0.16300851,9.858504
69308675218183,-0.19047573,-0.16631371,9.774396
69308695074056,-0.15279745,-0.14308836,9.686937
69308714932557,-0.17513557,-0.12978745,9.66445
69308734788302,-0.16825971,-0.119559795,9.713153
69308754644025,0.038109012,-0.24713497,9.789752
69308774499898,0.044523012,-0.22642633,9.868318
69308794355643,0.0243336,-0.23969676,9.900113
69308814211388,0.0046126796,-0.2689138,9.850139
69308834063321,-0.011652217,-0.22228442,9.764558
69308853919066,0.014339103,-0.2013344,9.690401
69308873774683,0.03368169,-0.20484947,9.642584
69308893630428,0.038313866,-0.22922158,9.673598
69308913486173,0.031075226,-0.24950169,9.724584
69308933339724,0.022441562,-0.22985241,9.7585125
69308953195469,0.011058213,-0.23890209,9.811913
69308973051086,0.012349497,-0.23380859,9.868801
69308992906703,0.029177207,-0.21733764,9.875717
69309012764296,0.009962334,-0.17945181,9.828092
69309032620041,-0.018605417,-0.14305112,9.776074
69309052475786,-0.0074708355,-0.18013379,9.760992
69309072331531,0.028431283,-0.25483525,9.716349
69309092187148,0.045061953,-0.28764832,9.705095
69309112042893,0.039029676,-0.26121575,9.754692
69309131892470,0.022818383,-0.22678891,9.771036
69309151748087,0.057213373,-0.23009579,9.743327
69309171603704,0.009503291,-0.21013558,9.720642
69309191459321,-0.046148054,-0.2044741,9.722305
69309211314938,-0.059065774,-0.19721211,9.744736
69309231173323,-0.138266,0.11220064,9.771239
69309251028940,-0.18469535,0.085473664,9.787946
69309270884685,-0.2413205,0.027689293,9.813842
69309290740302,-0.19724311,0.04775718,9.7545395
69309310591287,-0.1865979,0.13951568,9.774351
69309330446904,-0.21711764,0.096341655,9.747503
69309350302521,-0.23497495,0.022611892,9.741297
69309370158138,-0.12773173,0.053524278,9.751281
69309390013627,-0.076167986,0.123078525,9.772035
69309409869244,-0.19218194,0.095828384,9.7909155
69309429725605,-0.23366834,0.05476589,9.790872
69309449581222,-0.1985159,0.023875326,9.776658
69309469436711,-0.16037977,0.04207095,9.76686
69309489292328,-0.17544311,0.063887976,9.735866
69309509147945,-0.22629619,0.052842807,9.717642
69309529000888,-0.22369964,0.05317381,9.697921
69309548856377,-0.1559858,0.08895541,9.712962
69309568711866,-0.16064672,0.09950533,9.73783
69309588567355,-0.22860903,0.07578154,9.786365
69309608415594,-0.2246872,0.079617076,9.809923
69309628270955,-0.15599747,0.08941786,9.815641
69309648126444,-0.17619929,0.057409927,9.847346
69309667981805,-0.22682874,0.024903592,9.83112
69309687837166,-0.19950305,0.067045934,9.789759
69309707692505,-0.112757266,0.114801295,9.762026
69309727549500,-0.19919015,0.1104911,9.741371
69309747404733,-0.2614277,0.062168933,9.682528
69309767260094,-0.25136605,0.07233877,9.59442
69309787115455,-0.19159296,0.13865627,9.639825
69309806970816,-0.16399485,0.14176853,9.696981
69309826827055,-0.19656247,0.07773611,9.762759
69309846682416,-0.1735629,0.076833785,9.811116
69309866537777,-0.17237486,0.089370094,9.845185
69309886393138,-0.13637668,0.09404647,9.830761
69309906248499,-0.1349611,0.12741256,9.8017645
69309926103860,-0.22019798,0.109419346,9.820619
69309945962007,-0.22427109,0.06843435,9.802337
69309965817368,-0.23049448,0.057877194,9.777817
69309985672857,-0.21357167,0.07200569,9.735157
69310005528218,-0.21214011,0.052933663,9.717037
69310025384841,-0.17551224,0.07723063,9.718101
69310045240202,-0.124602325,0.06769029,9.703671
69310065095691,-0.18133105,0.042885184,9.710737
69310084951052,-0.20115626,0.057989966,9.75722
69310104806413,-0.19996811,0.07052633,9.791291
69310124660792,-0.18668102,0.049767192,9.775568
69310144516153,-0.1620625,0.05904757,9.772811
69310164371642,-0.15025347,0.086760156,9.800926
69310184226981,-0.17381476,0.0727679,9.812238
69310204082342,-0.20238352,0.059530832,9.811257
69310223937703,-0.18658745,0.05619569,9.840646
69310243799958,-0.20012653,0.06363908,9.842131
69310263655447,-0.2065799,0.06399557,9.773811
69310283511064,-0.15976998,0.08438361,9.696703
69310303366553,-0.1734771,0.07155367,9.690122
69310323220210,-0.23281564,0.01627018,9.696614
69310343075827,-0.23242296,0.011234958,9.682949
69310362931316,-0.19868568,0.05807562,9.693944
69310382786933,-0.22963853,0.08740061,9.755289
69310402642422,-0.24563189,0.124574065,9.83642
69310422498981,-0.1585938,0.12495899,9.840039
69310442354598,-0.12580462,0.11712804,9.803569
69310462210087,-0.18976037,0.09065526,9.789657
69310482065704,-0.19851775,0.08530921,9.725053
69310501921193,-0.21752492,0.095213614,9.753179
69310521776810,-0.2255355,0.058866628,9.792788
69310541640649,-0.15273201,-0.025635859,9.74836
69310561496394,-0.25415975,0.06337097,9.729438
69310581352139,-0.26572686,0.14852083,9.741805
69310601207756,-0.15768139,0.07517846,9.742551
69310621065721,-0.11129782,0.049123142,9.790007
69310640921594,-0.078345664,0.09907378,9.805289
69310660777317,-0.1854939,0.10339115,9.756039
69310680633190,-0.25250956,0.07375083,9.751317
69310700488935,-0.21536559,0.062902145,9.775737
69310720344808,-0.19701931,0.0901772,9.791188
69310740203345,-0.17226318,0.10295556,9.799377
69310760059090,-0.14619038,0.100714386,9.778689
69310779914963,-0.1610868,0.076217,9.757579
69310799770836,-0.15776256,0.034934796,9.736296
69310819626581,-0.1644951,0.040594578,9.738011
69310839485812,-0.19699338,0.06018106,9.753159
69310859341813,-0.21637915,0.10604995,9.759804
69310879197814,-0.17625256,0.14585571,9.759203
69310899053687,-0.18093131,0.11670658,9.806928
69310918904360,-0.18257084,0.061777536,9.791125
69310938760233,-0.15466581,0.07531435,9.725566
69310958616106,-0.115605794,0.11640694,9.719878
69310978471851,-0.16424431,0.12871471,9.769262
69310998327724,-0.17038462,0.110187076,9.792922
69311018183597,-0.15844868,0.111217774,9.789553
69311038037076,-0.20476142,0.10217152,9.801483
69311057892821,-0.19378269,0.06991501,9.743673
69311077748694,-0.13104858,0.10755107,9.715239
69311097604567,-0.10608378,0.13944115,9.714688
69311117460312,-0.1565023,0.116720356,9.758969
69311137309934,-0.21671131,0.11282479,9.773143
69311157165679,-0.20871943,0.15356302,9.798996
69311177021424,-0.16748099,0.16194573,9.828063
69311196877169,-0.1414618,0.12857902,9.790506
69311216727824,-0.11736339,0.12971792,9.768618
69311236583313,-0.10160388,0.13207768,9.720315
69311256438930,-0.10340653,0.114136375,9.71897
69311276294419,-0.15218562,0.108574644,9.773205
69311296150036,-0.19504069,0.117984876,9.777616
69311316005525,-0.22671948,0.12303928,9.786764
69311335857722,-0.18834297,0.11392926,9.745994
69311355713211,-0.1329714,0.09783671,9.673257
69311375568700,-0.10025428,0.07099683,9.680365
69311395424189,-0.06903726,0.066839755,9.749367
69311415279678,-0.09818268,0.096054256,9.79532
69311435128525,-0.15888695,0.12392161,9.841834
69311454983886,-0.18878752,0.13687207,9.837105
69311474839247,-0.20219642,0.111646704,9.850381
69311494694608,-0.16757753,0.07500985,9.798014
69311514549969,-0.1131693,0.05350166,9.709259
69311534405330,-0.0145445,0.05217617,9.671544
69311554264445,-0.030690387,0.10573015,9.699532
69311574119806,-0.15370075,0.14467509,9.754286
69311593975295,-0.16218787,0.15354346,9.758244
69311613830635,-0.1375323,0.11547899,9.782535
69311633681564,-0.20901632,0.11126193,9.792132
69311653536925,-0.21840304,0.10971232,9.793258
69311673392158,-0.10344054,0.13508761,9.788075
69311693247519,-0.041781098,0.126537,9.801292
69311713102880,-0.09330326,0.084076256,9.781997
69311732955925,-0.16068533,0.078103855,9.762211
69311752811158,-0.2273323,0.12972514,9.746309
69311772666391,-0.20619234,0.14355639,9.717396
69311792521624,-0.17177379,0.12646756,9.695501
69311812376857,-0.15345772,0.108004116,9.741325
69311832232090,-0.12616289,0.095389314,9.768144
69311852088195,-0.1314859,0.10167303,9.752775
69311871943556,-0.13711725,0.12472094,9.778332
69311891798789,-0.15818648,0.10844955,9.763675
69311911654022,-0.14987989,0.10903563,9.772606
69311931512107,-0.13707899,0.11513219,9.76544
69311951367340,-0.16205966,0.120986246,9.769022
69311971222573,-0.15840542,0.102840506,9.77452
69311991077806,-0.15861137,0.09403537,9.78107
69312010933039,-0.13384536,0.10448186,9.757354
69312030789204,-0.13018987,0.11661386,9.722977
69312050644437,-0.13084218,0.12169623,9.724535
69312070499542,-0.12641303,0.11290966,9.769794
69312090354755,-0.15870942,0.122404374,9.755017
69312110209988,-0.15116511,0.12663642,9.6826515
69312130065221,-0.13869901,0.1388923,9.664614
69312149928244,-0.17615013,0.13475524,9.734501
69312169783605,-0.12930192,0.13679825,9.798796
69312189638966,-0.058541186,0.15240605,9.880565
69312209494327,-0.06002492,0.14321682,9.87266
69312229351104,-0.11827888,0.1428077,9.818765
69312249206593,-0.13410789,0.13047044,9.768596
69312269062082,-0.100446194,0.1648504,9.720136
69312288917443,-0.12466614,0.15768224,9.711247
69312308772932,-0.15322231,0.12464172,9.702771
69312328628293,-0.18845661,0.1015143,9.717403
69312348488736,-0.18738724,0.10545458,9.753255
69312368344225,-0.14463387,0.12705457,9.777444
69312388199842,-0.10892831,0.12209654,9.758367
69312408055459,-0.06883509,0.11892125,9.758159
69312427911076,-0.0696779,0.12761825,9.766348
69312447769735,-0.09805895,0.13130425,9.782629
69312467625480,-0.1268536,0.12119981,9.791798
69312487481225,-0.14875183,0.1237693,9.778408
69312507336842,-0.15329328,0.12518458,9.763829
69312527195841,-0.16393,0.110827476,9.752767
69312547051586,-0.15556228,0.08281651,9.752554
69312566907308,-0.13742463,0.07831508,9.741652
69312586763181,-0.0755055,0.08289762,9.750594
69312606618926,-0.08673486,0.094478816,9.761475
69312626474671,-0.13322338,0.112455055,9.759205
69312646333652,-0.120374165,0.12192922,9.780836
69312666189525,-0.15799092,0.121741615,9.776481
69312686045398,-0.19555002,0.10091865,9.75408
69312705901271,-0.15426232,0.0909269,9.708738
69312725757144,-0.1423746,0.10837106,9.777834
69312745616827,-0.13223259,0.08367318,9.79403
69312765472700,-0.12655108,0.0717037,9.817907
69312785328701,-0.09394558,0.08326414,9.82291
69312805184574,-0.14765643,0.08415305,9.790253
69312825036961,-0.17357099,0.10184415,9.713039
69312844892962,-0.13415653,0.12060213,9.706338
69312864748835,-0.13633041,0.11447079,9.717474
69312884604708,-0.17003015,0.06675452,9.736646
69312904460709,-0.19247796,0.040192597,9.74597
69312924316582,-0.17274824,0.08230662,9.743649
69312944166859,-0.15435329,0.12855053,9.738189
69312964022604,-0.15439925,0.119564004,9.700785
69312983878477,-0.14879468,0.07921509,9.690996
69313003734222,-0.14187321,0.06142155,9.693882
69313023590095,-0.116875224,0.08167607,9.673343
69313043436575,-0.15035094,0.111535616,9.66999
69313063292192,-0.16185386,0.12659763,9.687489
69313083147809,-0.17636187,0.11531647,9.688317
69313103003426,-0.19863132,0.10244458,9.663122
69313122858915,-0.17781135,0.09444757,9.614199
69313142714532,-0.13703592,0.11494878,9.582708
69313162573323,-0.11211134,0.11379132,9.581077
69313182428940,-0.12870091,0.08791347,9.616704
69313202284685,-0.14817692,0.07458303,9.613408
69313222140302,-0.1540243,0.118153565,9.612708
69313241990525,-0.15519707,0.12442669,9.63604
69313261846014,-0.18618438,0.12684299,9.610968
69313281701631,-0.2034894,0.10051029,9.558665
69313301557120,-0.15308163,0.0786933,9.50044
69313321412609,-0.0975333,0.12279219,9.495062
69313341262314,-0.10372249,0.1253056,9.490142
69313361117675,-0.101191916,0.12028575,9.500715
69313380973164,-0.12594365,0.114144064,9.489076
69313400828525,-0.15979129,0.09534865,9.519716
69313420683886,-0.178312,0.09684399,9.513467
69313440539247,-0.15988886,0.123633094,9.494652
69313460391956,-0.12368733,0.12919724,9.456621
69313480247189,-0.1230338,0.105360754,9.4342985
69313500102422,-0.13862728,0.06499837,9.428632
69313519957762,-0.12824394,0.07821373,9.418853
69313539815141,-0.11820469,0.13609175,9.43852
69313559670374,-0.16638906,0.103401996,9.457822
69313579525735,-0.19641595,0.093015134,9.454426
69313599381096,-0.18325013,0.11253654,9.425256
69313619236457,-0.14492603,0.11201347,9.3666935
69313639089880,-0.10824555,0.08673919,9.315601
69313658945113,-0.089830965,0.07662322,9.296888
69313678800346,-0.12547983,0.0920907,9.29115
69313698655707,-0.16873312,0.078295544,9.335742
69313718510940,-0.18348004,0.07784413,9.3171835
69313738366173,-0.2211915,0.090702154,9.329218
69313758220802,-0.1984951,0.10915302,9.333915
69313778076035,-0.105710745,0.059587907,9.330627
69313797931268,-0.045751933,0.067700036,9.366853
69313817786501,-0.06551918,0.104779124,9.338698
69313837637858,-0.11681627,0.0934576,9.282996
69313857492963,-0.20241387,0.06148772,9.245779
69313877348196,-0.25256503,0.016627045,9.157529
69313897203301,-0.16739237,0.05700938,9.171083
69313917058534,-0.123891994,0.119884424,9.229254
69313936913639,-0.12927222,0.10350872,9.247525
69313956773290,-0.1406196,0.124250315,9.226985
69313976628523,-0.0693997,0.15039937,9.214884
69313996483734,0.1123438,-0.04889635,9.195688
69314016338967,0.1621054,0.012188256,9.171052
69314036194200,0.23070566,0.06615881,9.309317
69314056055865,0.19388457,0.06300129,9.327697
69314075911226,0.18183424,0.07383196,9.238012
69314095766459,0.1345475,0.091078304,9.126591
69314115621820,0.10638831,0.051906507,9.052218
69314135481319,0.14338107,-0.0019781105,9.053405
69314155336808,0.20141664,0.015755363,9.079088
69314175192169,0.25042337,0.11764659,9.166675
69314195047530,0.19721058,0.1281475,9.252867
69314214903019,0.14484286,0.035742354,9.328692
69314234758380,0.12842453,0.023243075,9.335784
69314254621707,0.13538302,0.036770638,9.288387
69314274477324,0.16137296,0.041622512,9.249536
69314294332941,0.15452182,0.009067154,9.178728
69314314188558,0.1469662,0.008930993,9.079312
69314334044175,0.16535719,0.113704376,9.0339775
69314353905388,0.1547213,0.17454033,9.121423
69314373761133,0.1572853,0.16370155,9.158401
69314393617006,0.14170831,0.08613029,9.205619
69314413472751,0.14708474,0.025180738,9.219026
69314433325222,0.13666657,0.058421213,9.235697
69314453180967,0.09473398,0.07633333,9.268053
69314473036692,0.082659416,0.099401765,9.206434
69314492892437,0.13104595,0.1034728,9.161058
69314512748182,0.1608514,0.19329575,9.150462
69314532603927,0.17051385,0.23101825,9.17856
69314552465596,0.13399242,0.10075572,9.189619
69314572321469,0.13107783,-0.0011390934,9.155121
69314592177342,0.15027721,0.13862893,9.140728
69314612033215,0.12608343,0.21090522,9.155924
69314631889088,0.089695774,0.15059315,9.133454
69314651745213,0.049255054,0.16261388,9.20063
69314671601086,0.06433389,0.16059512,9.156102
69314691456959,0.0304393,0.20452048,9.168397
69314711312832,0.0023126055,0.15871072,9.182204
69314731171069,0.018705282,0.11709532,9.229578
69314751027070,0.05452944,0.093294576,9.194095
69314770883071,0.08415101,0.1327252,9.152612
69314790738944,0.09843685,0.11583342,9.17303
69314810594945,0.12142688,0.11258646,9.173362
69314830450946,0.12667377,0.13419852,9.14234
69314850285735,0.14103192,0.112244464,9.142788
69314870141352,0.16440135,0.14271818,9.170189
69314889996841,0.14680085,0.105408825,9.212038
69314909852458,0.15422729,0.09723489,9.188
69314929708075,0.13404407,0.12023059,9.169172
69314949546677,0.043959558,0.16757406,9.141927
69314969401910,-0.0021100626,0.1989866,9.182286
69314989257143,-0.028805617,0.2176627,9.204362
69315009112376,0.0037790064,0.18355387,9.193629
69315028967609,0.05439011,0.12522219,9.172442
69315048822714,0.032377765,0.15372355,9.151852
69315068658149,0.044463903,0.23839395,9.125755
69315088512998,0.09869391,0.26587445,9.13145
69315108367847,0.12002428,0.20191203,9.201744
69315128222568,-0.01646159,0.18617246,9.300239
69315148080861,-0.09326764,0.22722247,9.119358
69315167935710,0.038693458,0.22111939,9.149243
69315187790559,0.14705987,0.03238788,9.197267
69315207645408,-0.0030011775,0.06602811,9.263294
69315227500257,-0.05835403,0.29946667,9.267281
69315247357770,-0.04921889,0.11748948,9.117611
69315267212619,0.025443682,0.12031397,9.1514635
69315287067468,0.08218722,0.21482018,9.091798
69315306922317,0.16814306,-0.008870059,9.105917
69315326777166,0.1675855,-0.025633974,9.199199
69315346631887,-0.017381907,0.23682049,9.287198
69315366480372,-0.052421235,0.48502058,9.106038
69315386334965,0.20208159,0.29697034,9.085694
69315406189686,0.3163455,-0.04005465,9.186797
69315426044258,0.007423344,0.112150356,9.244029
69315445901997,-0.23375067,0.18827473,9.2998705
69315465756590,-0.29720882,0.28481174,9.126662
69315485611183,-0.1301154,0.2831582,9.135325
69315505465776,0.06614458,0.09263868,9.2737
69315525320369,0.29942062,-0.027819194,9.327285
69315545188142,0.25008473,0.0992678,9.339724
69315565042991,-0.053125627,0.4288877,9.284478
69315584897840,-0.19764936,0.32914162,9.232324
69315604752689,-0.0044234493,0.23963815,9.261799
69315624607410,-0.22633843,-0.05172479,9.307749
69315644462259,-0.05874497,-0.13704795,9.16104
69315664322904,-0.06672112,0.14696227,9.262478
69315684177881,-0.10848108,0.6000418,9.504832
69315704032858,-0.20095018,0.4850722,9.405186
69315723887707,-0.20473069,0.4328645,9.3582325
69315743754698,-0.08573635,0.029142328,9.37168
69315763609931,-0.37023503,0.06781689,9.574661
69315783465036,-0.4963902,0.014395024,9.623329
69315803320269,-0.42331395,-0.35958123,9.762672
69315823175374,-0.20841117,-0.9711724,9.5240555
69315843030607,1.1899493,-1.2184923,9.044353
69315862891766,2.135791,-1.3860472,9.080958
69315882747127,2.0269346,-1.2339522,8.836556
69315902602339,2.3633344,-1.9885327,8.866785
69315922457700,1.7493889,-1.4469262,9.718555
69315942313061,1.7924509,-0.7998745,9.540852
69315962177174,1.0479401,-0.24539803,9.55591
69315982032663,0.018935697,0.8844994,9.598423
69316001888280,-1.3221713,1.8892199,9.573205
69316021743769,-1.3899003,1.3673146,9.414621
69316041599386,0.3469221,-0.2542412,9.346512
69316061463889,0.64034045,-1.6031654,9.598382
69316081319634,0.068004034,-1.504036,9.569897
69316101175379,0.092590496,-0.6847465,9.65537
69316121031124,0.44276837,-0.50545245,9.56527
69316140886869,0.7373788,-0.4216055,9.230276
69316160745338,0.9171995,-0.33561498,9.306194
69316180601339,0.906811,-0.3334627,9.606188
69316200457340,0.6193689,-0.36390206,9.61127
69316220313213,0.3112928,-0.2780293,9.589545
69316240169214,0.4809551,-0.26238978,9.483376
69316260028391,0.83006024,0.1471762,9.179117
69316279884648,0.23258641,-0.14097677,10.02202
69316299740777,0.6101891,-0.93451786,9.981344
69316319596906,1.1025896,-0.751786,9.233515
69316339453035,0.38559246,-0.16390288,10.037369
69316359311298,-0.2915719,-1.0385716,10.697702
69316379167535,-2.289718,-1.3950422,11.605645
69316399023920,-2.450424,-2.1196902,12.080385
69316418880305,-0.3475583,0.90071726,9.266938
69316438736690,4.3691525,4.868298,5.428669
69316458592947,4.4920464,4.6385417,5.843487
69316478443652,-1.5806998,1.2659009,11.596584
69316498299909,-4.7164707,-1.3515794,11.66581
69316518156038,-5.5270286,-0.5361074,10.199899
69316538012295,-2.347825,0.8634794,7.4743876
69316557868552,0.17922498,1.798182,8.835011
69316577725017,-2.9335625,1.8753543,9.586511
69316597581146,-7.889509,-0.17223503,10.072208
69316617437275,-5.9970345,-1.4524952,9.286176
69316637293404,-1.0383021,-3.1762505,10.731669
69316657149533,2.7932963,-2.8869183,12.885854
69316676994874,2.1456718,-1.3855851,10.998589
69316696850619,2.5732877,-1.8390586,9.881544
69316716706492,3.748736,1.0004396,8.206676
69316736562237,4.5859437,0.70670533,8.02088
69316756418110,5.597504,0.90682274,8.282885
69316776275277,3.8590677,1.4509066,8.392252
69316796131150,3.02124,1.548074,8.146445
69316815987023,2.6306856,1.2439535,8.335034
69316835842896,2.888834,0.94231224,9.178714
69316855698618,-1.2186515,-3.0303452,9.175523
69316875554759,-1.3369755,-1.4135438,9.358255
69316895410632,-1.3307124,-1.8062545,9.787519
69316915266505,-1.8776252,-4.5331655,8.48382
69316935122378,-4.402676,-6.355518,7.3079247
69316954978251,-0.18990234,-4.9676776,10.515045
69316974823258,-0.63933146,-4.589537,9.861908
69316994678875,-1.284238,-4.4483666,9.680763
69317014534364,-1.6861423,-3.652276,10.336475
69317034389981,-1.5566239,-3.511992,10.967607
69317054245470,-1.6656662,-3.6354682,11.669221
69317074100867,-1.6495103,-3.2000055,11.746824
69317093956484,-1.7440757,-3.343198,11.8131275
69317113811973,-1.4422067,-2.8075256,11.304331
69317133667462,-1.3948003,-2.8412192,11.177886
69317153523079,-0.999301,-2.8469725,11.196278
69317173370930,-0.61211234,-1.9493623,11.037838
69317193226291,-1.4959731,-1.4734343,10.686204
69317213081780,-0.7142217,-1.5749114,10.356306
69317232937141,-0.13045354,-1.2093669,9.809997
69317252792630,-0.039430253,-0.82295686,8.455613
69317272644689,-0.40524596,0.22972023,8.226491
69317292500050,0.97784305,0.40429989,9.021694
69317312355411,2.069527,-1.0899241,9.649822
69317332210751,0.34884205,-1.5050471,9.220289
69317352065984,1.5193694,-1.5995487,9.688876
69317371920785,1.4983011,-2.6188679,8.684835
69317391776146,1.0962617,-1.8301777,8.520603
69317411631507,2.3763578,0.39863008,9.585135
69317431486868,1.5607481,-0.2837853,9.895474
69317451342229,3.7704298,2.0383146,10.545055
69317471189890,3.2746544,2.6988013,11.8673315
69317491044995,1.991479,0.6003872,11.621981
69317510900228,0.68374425,0.8438149,11.969365
69317530755333,0.99493814,1.5254785,11.772284
69317550610438,0.39757833,1.0045898,11.781492
69317570468981,0.6427897,1.8259878,12.439436
69317590324214,1.0548779,2.6417716,12.187143
69317610179447,0.5275321,1.9774791,11.326795
69317630034680,0.8770185,1.8018897,10.838136
69317649889913,1.7926509,2.181407,10.41612
69317669744226,2.0343823,3.312895,9.735695
69317689599459,1.7936009,4.6463804,8.830542
69317709454692,1.5958719,4.841342,8.825928
69317729309925,1.2334596,3.8523867,9.612529
69317749165158,0.46981835,4.0466385,9.113621
69317769020257,1.0377281,3.1420553,8.103495
69317788875362,1.6600013,2.6347883,7.1407557
69317808730573,-1.9251803,-0.84417826,6.4600706
69317828585678,-1.4736834,-1.6482729,6.39359
69317848440911,-1.6146066,-2.241168,6.6242604
69317868291512,-2.519671,-1.9510244,6.7571125
69317888146617,-2.7834852,-2.0221305,6.64827
69317908001594,-2.4501321,-2.4169807,7.140349
69317927856699,-3.679621,-10.043706,14.019688
69317947711804,-3.8041346,-1.8091893,7.5340643
69317967562663,-1.1574544,4.1764374,6.744577
69317987417512,-0.21909726,-1.1460674,8.012568
69318007272361,1.9827242,-1.8880074,8.120055
69318027127338,3.090897,-1.1398693,7.640321
69318046982187,2.3467307,-2.262499,9.568758
69318066848480,1.5172403,-2.6260622,10.884525
69318086703585,1.4855366,-2.243188,10.8097925
69318106558690,1.0264021,-1.2232093,11.451091
69318126413795,1.287714,0.104088224,10.625916
69318146268900,0.4697098,0.67927396,10.686909
69318166124705,-3.6400898,2.504137,8.865537
69318185979938,-2.783597,2.383264,9.184839
69318205835043,1.0109717,0.6319769,11.35056
69318225690276,0.3367973,-0.40710366,10.088846
69318245545381,-0.25437635,-1.1296178,9.277328
69318265407776,-0.99064225,-1.1621011,8.465667
69318285262986,-3.3664947,4.784573,4.8425107
69318305118347,-1.1951724,1.9724115,6.624993
69318324973580,0.31094998,-0.47137254,9.162345
69318344828941,1.5015805,-3.042296,13.251575
69318364689222,-0.40718174,-4.1163216,12.608294
69318384544711,-0.48372123,1.794522,9.104761
69318404400200,0.70081633,2.9252865,10.254482
69318424255561,0.418442,0.27612957,11.051071
69318444111050,-0.30204907,1.4534223,9.579069
69318463977273,-1.341981,1.1776903,8.9501
69318483833018,-1.1155806,1.0437223,8.947368
69318503688763,-0.095805354,0.74512976,10.949185
69318523544508,0.10006329,-0.39764997,9.953174
69318543400125,-0.5959964,1.1357787,9.498743
69318563255870,-0.67364,0.850764,9.066269
69318583118959,-1.3846688,-0.43696952,9.999476
69318602974832,-1.5295321,-0.89572734,9.232507
69318622830705,-0.6000302,-0.62306374,9.651664
69318642686578,-0.1675084,-0.6005954,9.858627
69318662542451,-0.6690574,-0.2385115,10.160344
69318682395752,-1.3605802,0.3349258,9.91129
69318702251625,-1.3503147,0.24255818,9.891217
69318722107498,-1.0674239,-0.2750069,9.350138
69318741963371,-1.079948,-0.6467291,8.968753
69318761819349,-1.8055776,1.8003157,8.523226
69318781673546,-1.3078347,2.7686899,8.113113
69318801529291,-1.0337905,2.2865145,8.651205
69318821385164,-0.6092779,1.5625408,9.201565
69318841241037,-0.62349224,1.7288425,8.867767
69318861096910,-1.6885688,-0.23033881,9.685605
69318880951747,-1.2450593,0.41586196,9.162264
69318900807620,-0.7897474,1.4339582,8.861094
69318920663493,-0.4824105,1.1490189,10.347798
69318940519238,-1.0416378,2.0375748,10.190899
69318960375111,-1.300425,2.3490086,7.815981
69318980219128,-0.96191555,1.144188,9.7669325
69319000074873,-0.48133108,0.34901896,11.439882
69319019930490,-0.43224162,-0.32662413,11.148334
69319039786107,-0.37775165,-1.1988789,12.244231
69319059641724,0.38628903,0.27135396,12.479669
69319079485681,0.72509587,0.5134314,10.852554
69319099341042,-0.3882928,-0.06604321,8.872097
69319119196403,-1.9127481,-0.19118439,6.224378
69319139051892,-2.1215568,-0.69823253,6.9048834
69319158907253,-0.43498117,0.40962857,8.096448
69319178755684,0.26707458,-1.4953353,9.005637
69319198611045,1.0161659,-2.603977,9.297706
69319218466278,1.5345651,-3.5894933,9.8018675
69319238321489,1.2930734,1.5646323,10.686895
69319258176850,1.0467312,0.2654452,10.27852
69319278034179,0.8428624,0.14489426,8.94801
69319297889412,0.58541864,-0.7110716,7.561858
69319317744645,0.87836087,-1.8399124,7.3375425
69319337599878,1.1584736,-0.90347886,7.4086485
69319357455111,0.15189922,1.3832499,6.001677
69319377304822,0.52488154,0.13764182,8.219961
69319397159927,0.958734,-0.8036439,9.697957
69319417015032,2.0772247,0.040233962,10.61007
69319436870265,2.9819229,-0.15054853,12.968972
69319456725370,0.6745822,-2.1057274,9.631477
69319476580475,-0.13229541,-3.685634,11.602283
69319496431410,1.1610802,-1.3394518,11.886742
69319516286387,2.6613035,0.26995376,12.593611
69319536141364,3.029348,0.974334,14.711333
69319555996341,3.267151,0.31356826,14.2523
69319575851318,2.721595,-1.4207734,11.117798
69319595685797,0.7728964,-1.3122605,9.095736
69319615540262,-0.11991992,-1.144093,8.835686
69319635394855,0.7913629,-0.9777892,9.705689
69319655249320,1.3754331,-0.17174275,10.694883
69319675103893,-0.7278763,1.6002694,10.777865
69319694971669,-0.65308154,0.84843445,9.841251
69319714826517,-0.9020025,0.10239633,8.675977
69319734681237,-0.7992978,0.033731014,8.673627
69319754536085,-0.38448063,0.3310466,9.500317
69319774400510,-0.3124439,0.32310772,9.674116
69319794255487,-0.55430996,0.34797937,8.901657
69319814110334,-0.6496426,0.568798,8.779014
69319833965182,-0.5399691,0.72617835,9.258835
69319853820031,-0.50057524,0.8384533,9.674693
69319873683875,-0.582298,1.0374151,9.967086
69319893538851,-0.27670386,1.1028141,10.14724
69319913393956,-0.7168144,-0.46511275,10.29301
69319933248931,-0.49953043,-0.075357385,9.665364
69319953104035,-0.67938435,0.040140834,9.702173
69319972959012,-0.9631334,0.21121328,9.749272
69319992825416,-0.8661411,0.3719111,9.942849
69320012680648,-0.57601416,0.21672341,10.616006
69320032535881,-0.35267508,0.033237945,10.932111
69320052391240,-0.25712118,0.0406286,10.739284
69320072247163,-0.4333908,0.46252635,10.216872
69320092102524,-0.77903044,0.7884484,9.96811
69320111957883,-0.60441417,0.60674214,10.110313
69320131813115,-0.44434518,0.3880919,10.024352
69320151668476,-0.38924262,0.22598276,9.780517
69320171536803,-0.35172787,0.32329324,9.70308
69320191392547,-0.5964037,0.81017894,9.704724
69320211248164,-0.6539448,0.7650437,9.908915
69320231103907,-0.28381914,0.5188603,10.383523
69320250959523,-0.1039567,0.5934664,10.098348
69320270815268,-0.3577111,0.43124145,9.474683
69320290672073,-0.2088243,0.36878377,9.414902
69320310527817,-0.13580649,0.08166921,9.802385
69320330383434,-0.14430808,-0.4668733,9.413532
69320350239177,-0.35673082,-0.4029682,9.101781
69320370099694,-0.5622303,-0.25336364,8.364281
69320389955567,-0.37362626,-0.16993228,8.622579
69320409811566,0.10917935,0.3505506,9.804617
69320429667438,0.079979986,0.7399895,9.872262
69320449523311,-0.46724018,0.51416767,9.563505
69320469379310,-1.0324974,0.5531461,9.383468
69320489232470,-0.8655793,0.5000695,8.935629
69320509088343,-0.48656955,0.087693706,8.916309
69320528944342,-0.1808387,0.26913798,9.258732
69320548800342,-0.15613694,0.34026492,9.474722
69320568656215,-0.009845461,0.4931347,9.593994
69320588513104,-0.09906729,0.584925,9.7049265
69320608369104,-0.2911712,0.6037183,9.529471
69320628224977,-0.2089346,0.6289133,9.461251
69320648080976,-0.14120883,0.70083064,9.497261
69320667934178,-0.27238852,0.66785115,9.645385
69320687790051,-0.4218618,0.841773,9.6017065
69320707645922,-0.33709076,0.7650384,9.816245
69320727501794,-0.240155,0.43761516,10.113701
69320747357667,-0.26677144,0.26104882,10.002636
69320767213666,-0.4821516,0.35403007,9.914035
69320787071034,-0.13020708,0.26614684,9.889324
69320806927035,-0.15281802,0.61935383,9.925789
69320826782906,-0.39684445,0.8923123,10.027339
69320846638778,-0.33434397,0.56558335,9.973087
69320866494651,-0.25823787,0.34383237,10.022557
69320886351687,-0.4633118,0.47335026,9.983102
69320906207687,-0.52234316,0.5557396,10.119398
69320926063688,-0.4324258,0.54209214,10.126981
69320945919687,-0.4264294,0.51141775,9.902358
69320965759936,-0.40033978,0.37565863,9.745076
69320985615681,-0.47152457,0.40753162,9.706125
69321005471296,-0.35842854,0.4403539,9.814565
69321025326912,-0.27009913,0.521796,10.049812
69321045182657,-0.3023329,0.40964404,10.089462
69321065039783,-0.3541693,0.3552129,9.763904
69321084891184,-0.44506484,0.30495983,9.478984
69321104746801,-0.4520262,0.38003266,9.634531
69321124602416,-0.43378967,0.6603805,9.90047
69321144457904,-0.34675273,0.449888,9.771028
69321164313521,-0.31056806,0.18126401,9.712214
69321184151785,-0.31490895,0.12967983,9.569391
69321204006761,-0.2339611,0.1154808,9.524137
69321223861866,-0.194774,0.076301895,9.669636
69321243716841,-0.38671952,0.377401,9.595206
69321263574814,-0.57187337,0.5712359,9.564045
69321283429791,-0.5697372,0.53702,9.660476
69321303284894,-0.46117964,0.4660869,9.870237
69321323139870,-0.3161446,0.3424895,9.981953
69321342994975,-0.34131724,0.37703192,9.772563
69321362850078,-0.52759445,0.5169035,9.593751
69321382703440,-0.52092236,0.5375263,9.785598
69321402558417,-0.42506596,0.56049657,9.956489
69321422413520,-0.32603922,0.5412997,10.137538
69321442268496,-0.23158951,0.5322589,10.202276
69321462123601,-0.4489088,0.22839528,9.4998455
69321481983579,-0.72476584,0.44257656,9.280138
69321501838683,-0.60509586,0.5668819,9.562488
69321521693916,-0.42741382,0.4032635,9.83682
69321541549019,-0.35580367,0.28364447,9.76244
69321561404123,-0.5819196,0.5083856,9.454756
69321581259228,-0.38438067,0.3267279,9.423595
