UPTIMENANO,Ax,Ay,Az
82084343177174,0.3703794,-0.12810205,9.749002
82084363034454,0.4814095,0.19941308,10.279798
82084382891735,0.43822792,0.14093743,10.62292
82084402748886,0.5314627,0.44926977,10.056248
82084422593372,0.4450231,0.43605742,10.209082
82084442450141,0.4029354,0.13665469,11.0521755
82084462307036,0.33982277,-0.14355181,11.487189
82084482163804,0.25080386,-0.29893795,10.236821
82084502020573,0.7118384,0.6256327,8.809659
82084521877468,0.9589379,0.8094747,9.397392
82084541732878,0.5704741,0.07789529,9.915124
82084561589647,0.13204286,0.4758655,8.696098
82084581446414,-0.3757983,0.6026993,8.996229
82084601303182,0.38144988,0.427621,9.86077
82084621159951,0.7509847,0.5328001,9.700714
82084641011304,0.06894124,0.1317444,9.802434
82084660867944,-0.018771162,-0.17100945,10.210022
82084680724585,0.6670331,-0.37266725,10.367102
82084700581224,0.920505,-0.39325878,9.932487
82084720437864,0.7132629,0.18295293,9.729376
82084740294633,0.2526452,0.9316127,9.575642
82084760147371,0.0287956,0.6619069,9.507646
82084780003883,-0.30526778,0.5230808,9.231793
82084799860524,-0.49325556,0.5742453,9.071028
82084819717035,-0.29184863,0.4106702,9.409994
82084839564187,0.58277595,0.40422612,10.509998
82084859420444,0.66417927,0.41265514,10.415816
82084879276827,-1.0060738,-0.44873738,9.7058935
82084899133211,-0.6192572,-0.53375304,9.705183
82084918989596,0.4985792,-0.048906237,9.698439
82084938842071,0.46506253,-0.39650825,10.07445
82084958698199,-0.3689745,-1.203662,9.858412
82084978554456,0.23346032,-0.95848715,9.603097
82084998410711,2.4994495,1.3695953,8.098155
82085018266967,-2.173826,-0.5059581,7.970214
82085038123224,-2.702774,-2.5637755,11.132525
82085057986153,-0.1780196,-2.3953717,11.496324
82085077842409,0.50726575,-0.7977744,10.876471
82085097698794,-0.23479675,-0.35202697,9.279947
82085117555177,-0.59328383,-1.743538,9.666635
82085137409330,0.608957,-0.9830621,12.134771
82085157265715,1.5546516,1.2210615,10.633889
82085177121970,-0.16071828,1.4985533,7.811515
82085196978226,-0.4122656,0.80995786,7.885326
82085216834483,1.2350622,-0.5236745,9.3807125
82085236694206,0.68173814,-1.3017853,10.366182
82085256550590,0.80424863,0.102964364,12.0182295
82085276406975,1.0830159,0.94032097,11.7067175
82085296263230,-0.73328483,1.934249,8.327668
82085316119614,-0.5301653,1.668646,8.512877
82085335975999,0.6811217,1.7204556,10.414899
82085355835125,2.3398955,1.6068677,10.808138
82085375691637,4.9915595,2.7855182,9.573192
82085395548022,2.3939106,1.2892351,7.927864
82085415404405,1.1966918,0.93064946,5.9018517
82085435262008,-0.4360643,1.7293055,6.3234262
82085455118393,-3.6406338,1.8244585,7.021219
82085474974776,-3.3255115,2.1256263,7.7351704
82085494831160,0.8115818,2.553686,6.641174
82085514687545,0.6614368,0.5956959,6.0940876
82085534543928,-1.5672368,0.40433306,6.5770392
82085554398575,-0.6487828,1.8322672,8.34975
82085574254960,-0.47087258,2.3248084,11.321078
82085594111343,-0.5294753,1.9230044,11.239457
82085613967599,0.5560641,0.21950877,11.2796755
82085633823984,0.19727698,-1.1461314,11.860044
82085653684871,0.27555817,-1.399813,11.103225
82085673541255,-0.046258803,-2.298795,11.253768
82085693397768,-0.7403055,-2.8887756,11.914253
82085713254279,7.338076E-4,-3.5707903,10.7508135
82085733114587,0.51960516,-2.273177,9.933988
82085752971100,0.6723668,2.980565,8.376724
82085772827739,0.7400279,6.17203,8.234732
82085792684251,0.584239,2.9145672,7.8405447
82085812540892,-0.4197633,-0.2744338,8.410746
82085832397403,-0.24502404,-1.328509,9.431126
82085852249136,0.8469213,-1.0811082,9.916859
82085872105649,0.7682466,-4.1055512,13.674416
82085891962160,-1.8467135,-5.1354437,16.423098
82085911818672,-2.939479,-4.6412535,13.320817
82085931675057,0.03123728,-1.1775917,8.570423
82085951540150,2.0990102,2.8760443,7.060684
82085971396790,3.1815739,2.1427298,5.7948103
82085991253431,2.1777446,-1.7564955,7.186563
82086011110070,0.18880484,-3.434473,11.600945
82086030975859,-0.20890684,-3.9811728,15.4346485
82086050832756,1.0316133,-4.583555,8.041008
82086070689523,3.2927418,-3.8805404,8.362139
82086090546419,4.3703437,-3.3435423,10.996452
82086110403316,7.425949,-3.9738147,9.9944935
82086130260211,3.3636394,-4.1801367,11.893454
82086150116607,2.3394516,-6.0676117,12.682333
82086169973503,1.5462695,-6.9303145,9.918695
82086189830399,-4.2429094,-7.85623,6.2679577
82086209687423,-5.721301,-6.8447175,6.2058764
82086229544319,-7.6879134,-1.4106146,5.1133637
82086249403963,-13.183682,8.110375,10.495867
82086269262245,-12.267134,6.1410933,16.5394
82086289119269,-5.2852917,2.0268621,12.98492
82086308976165,-0.028570656,-1.7493261,10.822892
82086328833189,1.6534917,-3.0585105,9.862519
82086348687832,-0.57561535,-1.2311114,8.585795
82086368544856,-0.18485244,-3.3493512,6.437079
82086388401752,0.26741087,0.048134588,13.592222
82086408258776,3.8875666,4.102822,22.176271
82086428115800,4.8221464,2.8982854,15.138528
82086447965223,-0.2872566,5.2653413,11.646948
82086467821991,-5.121609,7.120109,1.4529707
82086487678759,15.11743,-16.474726,-30.98015
82086507535527,-3.9207027,8.330357,8.928036
82086527392295,-1.6284246,7.20425,4.1612864
82086547246558,3.7935767,3.879659,2.3214457
82086567103326,4.5570307,3.130388,3.540111
82086586959966,4.1718626,3.0600276,3.7860808
82086606816734,5.5236554,2.8307476,4.8571906
82086626673374,6.652336,-0.26999417,8.623514
82086646529868,6.7433662,-8.427821,23.358051
82086666386636,2.8741698,-13.9746685,25.491978
82086686243276,0.34881347,-7.619482,16.91137
82086706100044,-0.69760066,-6.581889,16.21428
82086725956812,-6.976407,-7.93742,21.078568
82086745810636,-13.091451,-8.081743,23.21595
82086765667276,-8.97281,3.111934,14.704444
82086785523916,-3.8924918,6.599065,8.583884
82086805380556,-2.3427866,7.5978537,9.873849
82086825237196,-0.33471632,4.594925,10.889328
82086845093836,-1.8412994,0.9035142,12.006128
82086864938462,0.62682414,1.2067846,8.295383
82086884794974,2.710747,2.723408,4.970859
82086904651358,3.3616195,1.9474956,4.9280276
82086924507742,3.4253073,0.9782228,5.1598625
82086944364254,3.0467026,0.0028719467,8.214957
82086964215055,1.8906447,1.6990814,10.468866
82086984071439,1.7751341,1.1342427,9.820103
82087003927695,1.3002057,-0.38324782,8.891758
82087023783951,1.7437625,-9.049406,9.72448
82087043640207,-0.53062207,-13.047994,8.05688
82087063496049,-3.8083606,-10.289283,6.2521353
82087083352305,-5.5723157,-1.9848036,6.3497157
82087103208561,-0.9049491,7.7073207,9.351741
82087123064945,-2.0835848,2.0916038,9.168099
82087142921201,-7.686078,-6.9256406,9.301521
82087162772251,-9.777985,-5.131059,12.034022
82087182628379,-4.710469,-2.7224772,16.330011
82087202484507,0.6054632,2.3468184,9.975404
82087222340635,0.6783084,5.1091027,5.750796
82087242196763,0.32643315,3.0338266,9.944104
82087262054654,4.0545278,7.579724,9.293073
82087281910782,7.2036276,5.031664,9.978159
82087301766910,9.688666,-4.3622293,13.36628
82087321623038,7.8251753,-13.09328,12.729331
82087341479166,6.7918816,-10.022491,7.6586084
82087361334648,0.54029673,-8.591416,15.655234
82087381190776,-7.0630565,-12.042012,19.600868
82087401046904,-22.677675,11.555561,21.607086
82087420903032,-10.369525,11.726517,8.24246
82087440759032,9.936322,3.0559826,-5.121801
82087460609106,12.648708,-4.7902255,-5.179707
82087480464978,5.6300697,-1.278476,6.2279754
82087500320850,-6.991509,4.858883,18.689892
82087520176722,-6.690286,2.298801,13.9613
82087540032594,-0.73519397,-11.7699,5.05546
82087559898767,12.653353,-19.004368,0.73264295
82087579754767,3.0450573,4.847476,8.446795
82087599610895,0.3097739,-0.05271531,6.6478925
82087619467023,1.4447136,-0.11802991,5.184077
82087639323023,7.9893622,0.5705025,2.5825486
82087659180388,3.0160103,1.1143185,3.936269
82087679036516,-2.8729765,1.0070242,6.592242
82087698892644,-2.99807,-5.7372975,2.6887567
82087718748900,-4.2427034,-3.7258186,1.312972
82087738605028,9.339479,2.946251,3.341052
82087758461607,29.82223,5.1475577,23.67069
82087778317735,-4.4291763,-9.550396,49.682842
82087798173863,-2.1991205,-1.1896243,14.895748
82087818029991,-6.614736,1.8889558,-0.041545395
82087837886119,-3.8009217,1.0244427,9.809929
82087857748957,0.2550181,0.41422155,10.768008
82087877605341,-1.9646008,-0.4370381,2.7630575
82087897461597,-0.094945714,-5.480654,8.861788
82087917317981,-1.360465,-2.969767,14.505013
82087937174365,-0.5287621,2.715533,11.550766
82087957033051,0.83889717,-0.4599688,9.431256
82087976889435,0.7334284,-0.7463042,9.501254
82087996745819,0.18192527,-0.16292232,10.265901
82088016602203,1.0336967,-1.6600472,10.402753
82088036458587,0.7005563,-2.3177671,9.923804
82088056327874,0.9374414,-0.75311506,10.286565
82088076184514,0.17579971,-0.1436179,9.993593
82088096041154,-1.2711114,-0.8306704,10.431818
82088115897794,-3.6585166,-2.152407,8.7094145
82088135754434,-4.0001593,-3.2113187,8.107523
82088155609555,-1.1035818,0.36437184,7.9948263
82088175466195,-0.868364,3.5291698,8.896655
82088195322963,-1.6681349,1.4020092,9.256152
82088215179603,-2.1361845,-1.8610011,10.427693
82088235036243,-0.99664766,-1.2618979,9.489426
82088254896924,0.9526665,-1.8297639,10.023686
82088274755174,-1.6379191,-1.303131,9.476286
82088294612070,-1.5695189,0.8776533,9.3959
82088314468838,-0.4433409,1.0982993,9.769462
82088334325606,-1.3647547,0.2831639,9.62984
82088354188288,-0.62872416,-1.1669219,9.77567
82088374045184,0.24871401,-1.583317,9.853822
82088393902208,0.2169182,-1.4460536,9.830255
82088413759104,0.053295337,-0.73599553,9.86333
82088433616128,-0.18628305,0.5762423,9.866173
82088453467184,0.13229953,0.538211,10.06722
82088473323952,-0.27706516,-0.013853446,9.893092
82088493180720,-1.2358158,-0.6866747,9.546106
82088513037616,-1.6198014,-0.7744633,9.666916
82088532894384,-1.378704,-0.4854244,9.417402
82088552754120,-0.9196641,0.22435819,9.378192
82088572611016,-0.24769977,1.385694,9.808235
82088592467912,-0.30476925,0.9653219,9.718488
82088612324808,-0.7733605,-0.31535628,9.72359
82088632181704,-0.8292985,-0.655376,9.716634
82088652034905,-0.69006515,-0.3353887,9.711685
82088671891673,-0.6118929,-0.019526653,9.854092
82088691748569,-0.7979241,0.020705517,9.805687
82088711605337,-0.745675,0.013569639,9.769012
82088731462105,-0.45405632,-0.010485925,9.8094015
82088751319464,-0.3780632,-0.15335515,9.7655735
82088771176232,-0.357701,-0.13258414,9.694978
82088791033128,-0.6475379,-0.20841144,9.651978
82088810889896,-0.90069485,-0.24974327,9.71491
82088830746664,-0.82788295,-0.16720822,9.7083025
82088850595489,-0.7453928,-0.17043217,9.645905
82088870452257,-0.49913105,-0.16020453,9.677763
82088890308898,-0.4343575,-0.22292563,9.907207
82088910165539,-0.39001107,-0.22792825,9.997894
82088930022305,-0.33907163,-0.20462932,9.827449
82088949872641,-0.40687138,-0.23910995,9.569645
82088969729281,-0.36032426,-0.32453197,9.64751
82088989585793,-0.2499504,-0.2889127,9.852056
82089009442305,-0.19558658,-0.017051583,10.004965
82089029298946,-0.14031808,0.08006347,9.92581
82089049155123,-0.24619386,0.0016737065,9.642513
82089069011636,-0.43977147,-0.123531766,9.629981
82089088868149,-0.53503096,-0.06290266,9.7335825
82089108724534,-0.47791356,0.16595395,9.877792
82089128581047,-0.50025827,0.14667922,9.806294
82089148443198,-0.59420395,-0.08449395,9.688822
82089168299839,-0.49993947,-0.170025,9.709776
82089188156480,-0.47423017,-0.20463863,9.641997
82089208013121,-0.5160867,-0.15052812,9.639448
82089227869890,-0.43037358,-0.079755545,9.806345
82089247726159,-0.5286333,-0.1758273,9.769729
82089267582672,-0.5234741,-0.18460922,9.822631
82089287439313,-0.41154063,0.003882911,9.940373
82089307295826,-0.4373062,-0.02240277,9.85948
82089327152467,-0.5546134,-0.11752814,9.647165
82089347002938,-0.5629951,-0.042725313,9.644461
82089366859323,-0.53258187,0.1509464,9.723305
82089386715836,-0.63226753,0.09536946,9.788856
82089406572221,-0.64955,0.00719968,9.791953
82089426428606,-0.58362114,-0.05281304,9.764502
82089446279535,-0.5266131,-0.12130971,9.7124405
82089466135792,-0.57664317,-0.15814658,9.64398
82089485992153,-0.56966573,-0.1789303,9.769032
82089505848410,-0.63097477,-0.05072367,9.998507
82089525704795,-0.60083133,-0.043656133,9.819185
82089545560052,-0.43740112,-0.11376713,9.888422
82089565416309,-0.4152766,-0.04476769,9.773594
82089585272438,-0.5506153,-0.06782008,9.604935
82089605128695,-0.5211699,0.0143145425,9.895895
82089624984952,-0.6561677,-0.010706679,9.778619
82089644847649,-0.76827335,-0.20403245,9.728419
82089664704162,-0.48163706,0.08721051,9.751295
82089684560547,-0.5034968,0.021299206,9.756282
82089704416932,-0.4950914,-3.5561352E-5,9.879208
82089724273445,-0.49162534,-0.04851029,9.7540865
82089744129830,-0.5769244,-0.10471452,9.669111
82089763970579,-0.6191612,-0.11711893,9.730648
82089783826580,-0.504945,-0.054976743,9.770113
82089803682695,-0.44036117,0.02165596,9.817941
82089823538823,-0.488692,-0.019519119,9.726955
82089843394823,-0.4579605,-0.01930738,9.792177
82089863254302,-0.5208306,0.047814548,9.771147
82089883110430,-0.6564566,-0.108954385,9.763958
82089902966558,-0.54038066,0.023058461,9.785116
82089922822686,-0.41026187,-0.043134443,9.759753
82089942678814,-0.4695832,-0.070841566,9.6569805
82089962540744,-0.5096876,-0.06415587,9.724788
82089982397000,-0.47837064,-0.09326653,9.702249
82090002253256,-0.44610083,-0.14038019,9.821165
82090022109512,-0.47923607,-0.15318128,9.836759
82090041965768,-0.466309,-0.06653108,9.850596
82090061829173,-0.42006865,-0.09035594,9.811464
82090081685557,-0.4076502,-0.04537558,9.731536
82090101541941,-0.42823094,-0.018682728,9.765103
82090121398325,-0.45836422,-0.03912429,9.756588
82090141254709,-0.5758668,-0.25587022,9.70602
82090161113371,-0.51747715,-0.24071641,9.727032
82090180969883,-0.4846502,-0.029811366,9.758967
82090200818856,-0.47157872,0.10122721,9.852415
82090220675241,-0.48970634,0.012224554,9.832998
82090240531754,-0.5664561,-0.2131902,9.785771
82090260394233,-0.45324597,-0.21329722,9.717201
82090280250871,-0.46052304,-0.13062611,9.685075
82090300107383,-0.46488523,-0.010117728,9.78492
82090319964023,-0.5060934,0.037046995,9.816069
82090339820535,-0.5669383,-0.0502754,9.809441
82090359686744,-0.56007123,-0.013526263,9.747379
82090379543512,-0.59004545,0.053032633,9.700059
82090399400281,-0.52618366,0.09686606,9.751485
82090419257178,-0.5757011,-0.047806785,9.78794
82090439113947,-0.4427569,-0.0010140592,9.79043
82090458964248,-0.37572455,0.095765635,9.792567
82090478821017,-0.4376256,0.09900235,9.719443
82090498677658,-0.5368143,0.049151056,9.838151
82090518534299,-0.57381564,-0.0920425,9.882755
82090538390940,-0.587311,-0.15887967,9.730723
82090558251921,-0.50834805,-0.089716546,9.753074
82090578108690,-0.43182695,0.08072673,9.688781
82090597965459,-0.5082951,0.032613754,9.695139
82090617822100,-0.45573258,0.030825552,9.815768
82090637678869,-0.55442643,-0.048413213,9.8245
82090657530756,-0.476825,0.016238686,9.852274
82090677387397,-0.5297423,0.014624658,9.722382
82090697244166,-0.5759917,0.042863067,9.698301
82090717100807,-0.50801694,0.04667937,9.766126
82090736957448,-0.46999532,0.007769339,9.766576
82090756817331,-0.41915512,-0.004898614,9.805814
82090776674100,-0.47115508,-0.08268093,9.76826
82090796530850,-0.3880658,0.0026475694,9.801599
82090816387618,-0.41845274,0.058909208,9.679723
82090836244386,-0.5284831,-0.026796948,9.6397
82090856096656,-0.5123775,-0.01696239,9.720784
82090875953296,-0.47602144,-0.0046058726,9.767982
82090895810064,-0.4545506,0.036165677,9.855301
82090915666832,-0.4378035,0.03277724,9.875247
82090935523600,-0.43583405,-0.013744711,9.753955
82090955376712,-0.39705214,0.002072784,9.795798
82090975233352,-0.48390716,-0.035036292,9.707474
82090995090120,-0.44002908,0.080015376,9.634405
82091014946760,-0.3636604,0.12984297,9.786112
82091034803400,-0.4703697,0.0088065965,9.806462
82091054659065,-0.49882016,-0.020866644,9.867368
82091074515705,-0.428277,0.039533496,9.846575
82091094372217,-0.5330853,0.014996618,9.708259
82091114228857,-0.41113442,0.15994668,9.728417
82091134085497,-0.53388095,0.057847966,9.69706
82091153945548,-0.45613036,-0.018818,9.720786
82091173802188,-0.40178162,-0.016544476,9.731031
82091193658956,-0.43326133,0.07962077,9.747827
82091213515596,-0.42678878,0.18231626,9.873556
82091233372365,-0.48837876,0.13872793,9.804412
82091253233968,-0.5401831,0.06836191,9.796858
82091273090735,-0.45546606,0.039744917,9.693281
82091292947631,-0.35772192,0.04022816,9.743597
82091312804399,-0.3302296,0.17393552,9.816058
82091332661167,-0.52427655,0.09536627,9.840989
82091352510228,-0.44665086,0.055768352,9.806669
82091372366868,-0.4790848,0.06853039,9.699018
82091392223381,-0.41574365,0.17230603,9.701511
82091412079894,-0.33685505,0.3047396,9.765752
82091431936535,-0.47317326,0.15722404,9.7636595
82091451790264,-0.5143711,0.062030513,9.849057
82091471646777,-0.45827347,0.13700911,9.812395
82091491503290,-0.47173905,0.22556059,9.682812
82091511359675,-0.42613438,0.17069493,9.823133
82091531216188,-0.4944651,0.09315936,9.800798
82091551079741,-0.46481025,0.13445777,9.746481
82091570936382,-0.43517494,0.1377616,9.721137
82091590793023,-0.58020186,0.049756296,9.690367
82091610649536,-0.45541805,0.12964866,9.772453
82091630506177,-0.46646062,0.14090389,9.791562
82091650362328,-0.4865149,0.14820251,9.813197
82091670218841,-0.5289784,0.06712996,9.764068
82091690075482,-0.45482206,0.041389506,9.752139
82091709932123,-0.39686754,0.10258746,9.823129
82091729788764,-0.47143635,0.03795644,9.74426
82091749642164,-0.47421995,0.08235202,9.763132
82091769498804,-0.42891294,0.14045726,9.741312
82091789355316,-0.37723988,0.12062726,9.827104
82091809211828,-0.3355174,0.22518304,9.898447
82091829068340,-0.5036347,0.20830552,9.797419
82091848926411,-0.4430197,0.10771506,9.785626
82091868782923,-0.43708545,0.083786435,9.721512
82091888639563,-0.51795214,0.014388015,9.674487
82091908496203,-0.38299596,0.16443385,9.711903
82091928352715,-0.4724246,0.09266252,9.770041
82091948210935,-0.43756536,0.06553394,9.816352
82091968067703,-0.4961253,0.019930702,9.791028
82091987924343,-0.4486683,0.027121684,9.741398
82092007780983,-0.4268494,0.064120464,9.802137
82092027637751,-0.4665495,0.073267736,9.824467
82092047498146,-0.47178605,0.063115306,9.716054
82092067354914,-0.3898697,0.055325042,9.75251
82092087211554,-0.47103813,0.117117986,9.652401
82092107068322,-0.4618206,0.13263693,9.819232
82092126925090,-0.365088,0.16833808,9.848501
82092146784778,-0.4866919,0.14172256,9.7861395
82092166641674,-0.4076666,0.16238001,9.7052555
82092186498570,-0.46178403,0.12970495,9.736988
82092206355338,-0.41842037,0.18861222,9.771788
82092226212234,-0.48277467,0.12241326,9.760718
82092246068222,-0.4009616,0.17925866,9.79058
82092265924990,-0.44076893,0.1856066,9.789041
82092285777958,-0.46595705,0.08234525,9.672376
82092305634855,-0.44104657,0.0215966,9.738291
82092325491624,-0.43377757,0.10108104,9.731783
82092345351787,-0.46505088,0.22416826,9.832239
82092365208684,-0.43312818,0.19384637,9.766385
82092385065709,-0.48773527,0.018414436,9.838546
82092404922606,-0.4097302,0.1154125,9.757399
82092424779503,-0.43105766,0.18485834,9.74618
82092444636400,-0.4077272,0.22641155,9.7059555
82092464484811,-0.50007874,0.14200783,9.796211
82092484341580,-0.4522512,0.08673332,9.660189
82092504198221,-0.39404726,0.15600516,9.765648
82092524054990,-0.3192635,0.21064666,9.913664
82092543911631,-0.49064827,0.16479363,9.826788
82092563767004,-0.41714382,0.16861953,9.7766905
82092583623645,-0.38526088,0.17836009,9.659793
82092603480286,-0.41726014,0.21892196,9.662886
82092623336799,-0.34544545,0.1656423,9.715523
82092643193440,-0.35828933,0.1684898,9.853185
82092663037639,-0.28278583,0.2758141,9.840718
82092682894024,-0.4568394,0.21838678,9.724081
82092702750409,-0.50201476,0.23042524,9.792452
82092722606794,-0.51639557,0.21571474,9.691911
82092742463673,-0.43530875,0.19321695,9.729819
82092762320035,-0.32822683,0.12904729,9.752303
82092782176419,-0.42202038,0.12289872,9.614475
82092802032803,-0.34435812,0.29624423,9.770937
82092821889188,-0.41378635,0.29773265,9.866327
82092841745650,-0.46429434,0.20795044,9.809159
82092861602162,-0.40692642,0.18255247,9.766806
82092881458547,-0.5602659,0.13991944,9.673184
82092901314930,-0.3001503,0.3386098,9.752904
82092921171442,-0.29401377,0.2716262,9.7895355
82092941027827,-0.35471624,0.17164785,9.838091
82092960882522,-0.37326026,0.2288069,9.868259
82092980738778,-0.4312618,0.28752697,9.684689
82093000595163,-0.47809774,0.24308288,9.619526
82093020451546,-0.4256582,0.083474584,9.862641
82093040303749,-0.44502473,0.106620125,9.857971
82093060160006,-0.32087815,0.17774585,9.873527
82093080016261,-0.35008076,0.22088367,9.694456
82093099872517,-0.47593787,0.22718686,9.778211
82093119728774,-0.3824736,0.15743065,9.702594
82093139580208,-0.49091244,0.07162343,9.706987
82093159436465,-0.39701763,0.1432787,9.827429
82093179292594,-0.41262704,0.25169453,9.695087
82093199148848,-0.4072083,0.24687286,9.75803
82093219004976,-0.45872965,0.14366893,9.8246765
82093238861233,-0.51154286,0.15100576,9.677438
82093258718115,-0.42117983,0.13375153,9.752901
82093278574243,-0.42124784,0.0882598,9.744591
82093298430372,-0.43325284,0.16971466,9.78285
82093318286499,-0.24273986,0.21681309,9.8177185
82093338135624,-0.36630294,0.19538708,9.838907
82093357991625,-0.3573766,0.2538968,9.840217
82093377847626,-0.3722973,0.2532498,9.725477
82093397703499,-0.41219518,0.1651925,9.748659
82093417559500,-0.35196754,0.13741909,9.759932
82093437415501,-0.35683906,0.21268474,9.772439
82093457268692,-0.35002896,0.23545124,9.838964
82093477124565,-0.44469482,0.14125028,9.791565
82093496980438,-0.4642228,0.15482983,9.747184
82093516836311,-0.4209806,0.17885007,9.702032
82093536692184,-0.36724436,0.22158992,9.8046875
82093556558825,-0.4031183,0.15533882,9.855519
82093576414954,-0.41094184,0.09437649,9.7547455
82093596270955,-0.37549394,0.20742111,9.841335
82093616126956,-0.43677774,0.22381766,9.776122
82093635983085,-0.4884298,0.10873305,9.711549
82093655839086,-0.30893686,0.045624383,9.7659025
82093675698841,-0.44365767,0.16302691,9.687523
82093695554970,-0.32517153,0.24203672,9.787002
82093715411099,-0.3620117,0.1635199,9.779188
82093735267208,-0.4344253,0.128055,9.794253
82093755134319,-0.38397703,0.2265494,9.87169
82093774990704,-0.46356368,0.1982262,9.817026
82093794846959,-0.5039908,0.11978536,9.673251
82093814703343,-0.4793881,0.08244796,9.664456
82093834559728,-0.39562765,0.21843635,9.77279
82093854423773,-0.40142542,0.22726363,9.820773
82093874280285,-0.39009875,0.083900966,9.843514
82093894136926,-0.47720653,0.0891208,9.784339
82093913993437,-0.4375524,0.25969902,9.806302
82093933849949,-0.41677824,0.20811473,9.760788
82093953706462,-0.45914713,0.10494561,9.8377075
82093973572129,-0.4148291,0.10790247,9.78306
82093993429025,-0.45669347,0.20538072,9.739213
82094013285794,-0.4087137,0.14757104,9.75853
82094033142561,-0.44399083,0.15459605,9.791832
82094052993750,-0.47476187,0.2330958,9.74692
82094072850391,-0.43638167,0.12050224,9.749444
82094092707158,-0.41360626,0.107858494,9.771366
82094112563798,-0.39202416,0.19810215,9.736952
82094132420567,-0.38060847,0.18986754,9.746059
82094152279772,-0.3433409,0.16528587,9.888751
82094172136668,-0.45823917,0.15529135,9.807388
82094191993437,-0.5152978,0.13635384,9.768113
82094211850332,-0.47582504,0.15340298,9.683202
82094231707100,-0.49453628,0.17262104,9.681475
82094251563869,-0.40520298,0.16270909,9.768609
82094271423318,-0.41806197,0.035923243,9.842365
82094291280086,-0.37991887,0.04748887,9.761823
82094311136983,-0.42871127,0.1438338,9.759774
82094330993752,-0.46873605,0.123278424,9.774354
82094350847587,-0.45931834,0.09898499,9.813169
82094370704356,-0.37614655,0.06327499,9.795613
82094390561125,-0.41947556,0.069980405,9.734511
82094410418022,-0.38846523,0.14369145,9.746521
82094430274791,-0.42401543,0.10358441,9.723395
82094450124604,-0.40572646,0.12930055,9.797268
82094469981373,-0.4459594,0.12894908,9.8374
82094489838142,-0.48325273,0.09343847,9.769545
82094509694783,-0.34978002,0.12639372,9.772861
82094529551552,-0.5213654,0.02386293,9.715148
82094549408193,-0.38703448,0.18062352,9.730126
82094569258282,-0.41172302,0.13275121,9.791573
82094589114795,-0.44058722,0.09163282,9.768851
82094608971436,-0.40265656,0.14314106,9.809471
82094628828077,-0.34933797,0.20771249,9.770299
82094648681450,-0.44524422,0.16442925,9.772538
82094668537963,-0.4098108,0.0895223,9.765383
82094688394476,-0.47992268,0.09342667,9.742867
82094708251117,-0.38534352,0.20949459,9.717639
82094728107630,-0.4690745,0.17158633,9.702259
82094747960796,-0.4284358,0.1556556,9.733138
82094767813296,-0.4758155,0.0971368,9.870504
82094787669681,-0.44464535,0.14324279,9.809866
82094807526064,-0.46726632,0.152695,9.748503
82094827382576,-0.38477233,0.1815993,9.762905
82094847238961,-0.43851438,0.16596346,9.804929
82094867096284,-0.44077745,0.10422218,9.725544
82094886952668,-0.40471977,0.0934316,9.70913
82094906809053,-0.3271095,0.19111174,9.816548
82094926665564,-0.37928268,0.18954653,9.81886
82094946514497,-0.41676354,0.12511317,9.83316
82094966370626,-0.46068922,0.14504004,9.869436
82094986226881,-0.43863282,0.22639753,9.736686
82095006083009,-0.34447098,0.18160766,9.662991
82095025939138,-0.39203283,0.01389279,9.749441
82095045795393,-0.35750455,0.1769448,9.812992
82095065648678,-0.3833315,0.15982902,9.831956
82095085504679,-0.4392732,0.17345116,9.761271
82095105360806,-0.5241957,0.22349465,9.720317
82095125216806,-0.4300608,0.16932209,9.704188
82095145072807,-0.44013983,0.07874935,9.6734085
82095164930947,-0.36898687,0.032718852,9.771052
82095184787075,-0.40387905,0.11363905,9.795484
82095204643076,-0.42545992,0.19734493,9.779904
82095224499203,-0.4305607,0.09705462,9.808124
82095244358664,-0.5005033,0.03128014,9.808438
82095264214793,-0.46518356,0.0313905,9.815006
82095284070920,-0.41930017,0.13531457,9.712057
82095303927049,-0.44707283,0.11833512,9.699099
82095323783178,-0.37307033,0.094927415,9.711489
82095343639179,-0.42555687,0.09172693,9.78745
82095363501696,-0.34619698,0.19859722,9.879712
82095383357953,-0.4720461,0.15073326,9.816413
82095403214204,-0.45379323,0.13540815,9.776124
82095423070460,-0.44710043,0.047901213,9.6993065
82095442926845,-0.43005264,0.10251665,9.71271
82095462784453,-0.38982528,0.17333235,9.799551
82095482640709,-0.40228298,0.1342462,9.849252
82095502497094,-0.42403853,0.076385155,9.802268
82095522353349,-0.48384312,0.022482261,9.7769375
82095542209733,-0.45931664,0.15506682,9.774458
82095562066118,-0.4065804,0.13564493,9.724425
82095581918844,-0.33552572,0.05563269,9.7397785
82095601775228,-0.42699927,0.01625325,9.76492
82095621631485,-0.42664346,0.065106615,9.788006
82095641487868,-0.44106817,0.17102882,9.803121
82095661343265,-0.41087484,0.21787521,9.801413
82095681199522,-0.45208472,0.14969991,9.799481
82095701055777,-0.4643017,0.12696466,9.752326
82095720912033,-0.42758188,0.090474,9.7093935
82095740768290,-0.36327326,0.16910644,9.749333
82095760628019,-0.35403967,0.15971823,9.853627
82095780484403,-0.38717195,0.06266603,9.888666
82095800340660,-0.4422253,0.052510485,9.739642
82095820197043,-0.37137416,0.08918419,9.731088
82095840053299,-0.42436865,0.09460684,9.667061
82095859909684,-0.41529664,0.101665825,9.724639
82095879770385,-0.39255235,0.045236982,9.784262
82095899626895,-0.37321693,0.09157066,9.8256445
82095919483408,-0.3750226,0.116324745,9.787129
82095939339919,-0.3894694,0.12811032,9.794264
82095959201077,-0.38011876,0.112944625,9.82889
82095979057718,-0.4434396,0.069886684,9.867716
82095998914229,-0.41259155,0.09859022,9.776366
82096018770869,-0.43327644,0.040333863,9.69797
82096038627510,-0.38664192,0.12430831,9.69503
82096058485009,-0.4563795,0.15968898,9.727735
82096078341649,-0.34019044,0.11618246,9.826934
82096098198290,-0.39689595,0.08824103,9.797962
82096118054801,-0.3872748,0.10864255,9.7800045
82096137911441,-0.40516084,0.15906502,9.732799
82096157768082,-0.38596877,0.1920378,9.78119
82096177619059,-0.36353692,0.18503715,9.81753
82096197475443,-0.4252621,0.1645775,9.831076
82096217331956,-0.31625274,0.13973473,9.73242
82096237188339,-0.38713259,0.062844686,9.739169
82096257048120,-0.40654397,0.10911333,9.771822
82096276904633,-0.48749107,-9.837293E-4,9.758807
82096296761144,-0.41607106,0.045829676,9.688149
82096316617657,-0.35575274,0.06200613,9.790159
82096336474170,-0.39580005,0.1493156,9.782788
82096356329914,-0.47311395,0.12971967,9.840209
82096376186426,-0.45450893,0.06694131,9.795928
82096396042939,-0.44000304,0.121756144,9.823499
82096415899450,-0.35581398,0.25971195,9.744642
82096435756749,-0.46621397,0.10523175,9.716108
82096455613262,-0.40157723,0.09359259,9.804367
82096475465245,-0.5006505,0.009174024,9.795926
82096495321758,-0.41163546,0.08017076,9.737954
82096515178143,-0.4039549,0.050628528,9.71901
82096535034656,-0.44003126,0.034072716,9.831634
82096554884829,-0.41314566,0.12907767,9.836691
82096574741214,-0.43301967,0.037138153,9.906908
82096594597471,-0.37991658,0.08389473,9.850983
82096614453728,-0.46956754,0.04876124,9.705918
82096634310113,-0.3807912,-0.027414905,9.621498
82096654166370,-0.48764026,-0.09994829,9.639815
82096674019411,-0.33346516,0.08383581,9.768473
82096693875668,-0.41584268,0.08594955,9.855921
82096713731925,-0.41265947,0.1457665,9.897159
82096733588182,-0.44466525,0.073971674,9.841721
82096753444439,-0.45655817,0.11550007,9.710065
82096773302118,-0.4668515,0.057207316,9.676277
82096793158374,-0.41511354,0.07382554,9.716597
82096813014631,-0.34305322,0.062376894,9.79827
82096832870886,-0.28080446,0.09197945,9.766202
82096852726350,-0.385286,0.04003636,9.863181
82096872582607,-0.40060583,0.00203648,9.839069
82096892438862,-0.46262375,0.03883362,9.766212
82096912295118,-0.39558735,0.096438706,9.690061
82096932151375,-0.42293397,0.02534981,9.626758
82096952007630,-0.2924954,0.15524767,9.797143
82096971864428,-0.4046089,0.11136124,9.902278
82096991720685,-0.44624946,0.0709799,9.8577
82097011576940,-0.3665483,0.113740236,9.847176
82097031433196,-0.47720274,0.084611654,9.754731
82097051289453,-0.47463778,0.14365233,9.716175
82097071139414,-0.41520387,0.05794671,9.740479
82097090995542,-0.34822983,0.055691123,9.708213
82097110851671,-0.3393555,0.049331535,9.821649
82097130707798,-0.3888289,-0.038927857,9.772537
82097150558928,-0.42260316,-0.0074427337,9.74225
82097170414801,-0.3921201,0.012226556,9.720097
82097190270802,-0.4134758,-0.008057529,9.711541
82097210126803,-0.4166058,0.044200424,9.827426
82097229982676,-0.3286917,0.09365918,9.84472
82097249838677,-0.38244227,0.08531729,9.797532
82097269701657,-0.39370486,-9.2557224E-4,9.790033
82097289557786,-0.37974793,-0.049008004,9.684192
82097309413785,-0.38478976,0.11283042,9.7496195
82097329269913,-0.45660636,0.05718663,9.646533
82097349125914,-0.358504,0.014868883,9.679021
82097368985820,-0.3092569,0.052551486,9.801192
82097388841949,-0.37239745,0.10595552,9.874847
82097408698078,-0.3692628,0.16216359,9.908505
82097428554207,-0.40928838,0.03139387,9.782103
82097448410336,-0.37807265,0.024444502,9.74973
82097468266465,-0.40093228,0.037442606,9.701862
82097488124976,-0.37079978,0.09863126,9.662145
82097507981233,-0.36191133,0.07215052,9.836932
82097527837362,-0.40968508,-0.037715055,9.718946
82097547693491,-0.34946886,0.006049973,9.779487
82097567551674,-0.3313928,0.09485045,9.882926
82097587407931,-0.40491128,0.1389246,9.886385
82097607264060,-0.39863956,0.13417828,9.88282
82097627120317,-0.3891089,0.021390636,9.719898
82097646976574,-0.44491565,-0.095540196,9.587533
82097666843211,-0.38660824,-0.0026914831,9.696825
82097686699724,-0.4204167,0.01189299,9.769179
82097706556237,-0.37648648,0.10505573,9.862415
82097726412622,-0.40035364,0.07200899,9.820979
82097746269135,-0.43420464,-0.0358406,9.7891655
82097766125648,-0.39341232,-0.07754784,9.779689
82097785981824,-0.3535747,-0.041735157,9.776335
82097805838208,-0.37562585,-0.0055344687,9.823869
82097825694721,-0.40998384,-0.021818873,9.664028
82097845551232,-0.45427915,-0.14312725,9.7058115
82097865417216,-0.3954695,-0.060977295,9.779968
82097885273857,-0.46307614,-0.12370831,9.827033
82097905130624,-0.38998708,-0.026940865,9.88103
82097924987392,-0.43249127,-0.120265596,9.818588
82097944844033,-0.37315193,-0.093504615,9.704874
82097964704256,-0.36179027,-0.0654924,9.731887
82097984561024,-0.40993103,-0.115611,9.718669
82098004417921,-0.38811404,-0.05008086,9.84602
82098024274688,-0.36120948,-0.14461906,9.76926
82098044131584,-0.34892258,-0.20008752,9.726092
82098063988481,-0.35424128,-0.15339682,9.856835
82098083846492,-0.4154205,-0.18650836,9.747001
82098103703388,-0.33782396,-0.14731328,9.747116
82098123560285,-0.3030343,-0.15037437,9.732672
82098143417052,-0.40139645,-0.21689793,9.724806
82098163272372,-0.30201223,-0.15079695,9.859123
82098183129141,-0.30503815,-0.16567965,9.848204
82098202986038,-0.33607754,-0.049802706,9.908991
82098222842804,-0.38851967,-0.1478417,9.684192
82098242699701,-0.4417527,-0.28806153,9.665749
82098262556596,-0.27092016,-0.124314845,9.740328
82098282411704,-0.36983535,-0.11898265,9.754099
82098302268473,-0.3268717,-0.012952443,9.926561
82098322125368,-0.2807625,-0.20463468,9.798166
82098341982137,-0.28951326,-0.31815884,9.743716
82098361838906,-0.29960078,-0.16336374,9.755918
82098381700459,-0.34403184,-0.30107906,9.677996
82098401557356,-0.2787524,-0.18271556,9.80429
82098421414381,-0.2616167,-0.29644278,9.800144
82098441271278,-0.26953784,-0.2367459,9.828863
82098461117069,-0.31566927,-0.13751763,9.814804
82098480973838,-0.32361868,-0.31592283,9.760021
82098500830607,-0.27501884,-0.22807719,9.849278
82098520687376,-0.3234813,-0.21653785,9.775174
82098540544145,-0.32766214,-0.27748746,9.564763
82098560400786,-0.28551686,-0.20439216,9.722051
82098580247967,-0.3020143,-0.2740128,9.828664
82098600104608,-0.3671391,-0.113732934,9.897372
82098619961121,-0.3416741,-0.14233284,9.91551
82098639817634,-0.33489567,-0.30277315,9.77192
82098659674275,-0.31551835,-0.23259456,9.753223
82098679521206,-0.32248634,-0.24933314,9.673047
82098699377591,-0.2973524,-0.15746735,9.697542
82098719233848,-0.26295134,-0.19104967,9.795214
82098739090087,-0.26882654,-0.28893253,9.8009205
82098758937034,-0.28599867,-0.24325193,9.778053
82098778793163,-0.34173173,-0.19708751,9.790716
82098798649290,-0.35996675,-0.2194463,9.823707
82098818505290,-0.29074827,-0.23448439,9.746854
82098838361419,-0.2612954,-0.28977895,9.679251
82098858217546,-0.2885512,-0.22555757,9.80364
82098878077502,-0.34437096,-0.33192748,9.783631
82098897933631,-0.34745827,-0.23798972,9.78995
82098917789886,-0.28879988,-0.16180038,9.731972
82098937646014,-0.3081641,-0.32119864,9.725878
82098957502143,-0.32562876,-0.18034522,9.761168
82098977356837,-0.3094129,-0.23976393,9.785859
82098997212837,-0.28921673,-0.18519829,9.864679
82099017068966,-0.29554975,-0.19708271,9.908082
82099036925093,-0.29558244,-0.2738384,9.687756
82099056770928,-0.28622636,-0.2718648,9.738127
82099076626801,-0.27820188,-0.2853548,9.708593
82099096482672,-0.313688,-0.26508853,9.75515
82099116338544,-0.25433058,-0.1414366,9.85506
82099136194417,-0.32300094,-0.31102395,9.746459
82099156050288,-0.29527575,-0.23337927,9.794062
82099175909196,-0.3456136,-0.26420724,9.805984
82099195764941,-0.3750527,-0.27319652,9.782175
82099215620812,-0.34360936,-0.2002541,9.765201
82099235476685,-0.2861788,-0.34275237,9.783909
82099255332558,-0.2648084,-0.22426344,9.759863
82099275195573,-0.2952782,-0.23379567,9.692492
82099295051574,-0.31068894,-0.18401225,9.75474
82099314907575,-0.2997851,-0.27942806,9.83338
82099334763576,-0.3236076,-0.21815929,9.7477045
82099354619577,-0.3180647,-0.2334849,9.698581
82099374475578,-0.29224917,-0.2672833,9.799731
82099394332157,-0.35323754,-0.27217147,9.802547
82099414188158,-0.33920497,-0.18156235,9.827825
82099434044031,-0.24029604,-0.3019214,9.781136
82099453900032,-0.25837842,-0.32552037,9.6826515
82099473768131,-0.2579658,-0.22374752,9.7317505
82099493624260,-0.368523,-0.2532905,9.728376
82099513480517,-0.3420544,-0.23788401,9.882207
82099533336774,-0.25729486,-0.2876789,9.779911
82099553193031,-0.28182685,-0.23103113,9.837822
82099573051586,-0.32636434,-0.15796423,9.820978
82099592907843,-0.4011939,-0.32523277,9.696456
82099612764228,-0.26060295,-0.16330442,9.773432
82099632620485,-0.24289401,-0.30632925,9.751858
82099652476742,-0.28559774,-0.11465695,9.819656
82099672333127,-0.29664972,-0.28448904,9.829357
82099692197531,-0.19415006,-0.3590266,9.794598
82099712054044,-0.20545176,-0.22041504,9.784371
82099731910429,-0.22046435,-0.27914676,9.713877
82099751766939,-0.23890382,-0.2671639,9.726492
82099771632499,-0.18924528,-0.36611983,9.7389
82099791489140,-0.20081688,-0.26458973,9.818498
82099811345907,-0.27323374,-0.23851895,9.88703
82099831202547,-0.25754547,-0.39384693,9.7572565
82099851059316,-0.23359355,-0.34111828,9.681357
82099870913248,-0.20478822,-0.31365508,9.7318325
82099890769888,-0.23782043,-0.34656096,9.742211
82099910626657,-0.2857807,-0.20888218,9.840041
82099930483296,-0.2521816,-0.37232444,9.782862
82099950340064,-0.31146914,-0.25655207,9.808575
82099970196705,-0.25633648,-0.32982352,9.753014
82099990059051,-0.2616934,-0.3140704,9.801687
82100009915947,-0.3000089,-0.26516694,9.819346
82100029772844,-0.26878425,-0.3148646,9.702863
82100049629739,-0.2662009,-0.29364994,9.720742
82100069479303,-0.21199778,-0.29218072,9.874059
82100089336072,-0.25761065,-0.30948988,9.758203
82100109192839,-0.20681496,-0.22315387,9.912949
82100129049607,-0.22657725,-0.2988977,9.733164
82100148906376,-0.26944038,-0.37409183,9.754042
82100168763143,-0.17493324,-0.27819577,9.674454
82100188619943,-0.20229168,-0.3377406,9.752119
82100208476712,-0.22942992,-0.16818091,9.873592
82100228333479,-0.28425336,-0.35170028,9.780332
82100248190247,-0.24418943,-0.28635693,9.819691
82100268047016,-0.25119874,-0.3243532,9.778993
82100287903446,-0.26799595,-0.2937861,9.737562
82100307760214,-0.33650276,-0.18519035,9.767403
82100327616855,-0.30549392,-0.33398342,9.710739
82100347473622,-0.34728453,-0.272576,9.743301
82100367325977,-0.3019792,-0.29953107,9.7996025
82100387182618,-0.28762537,-0.35082316,9.77572
82100407039257,-0.31854263,-0.20619485,9.805082
82100426895897,-0.30615354,-0.34038875,9.727118
82100446752538,-0.30686066,-0.24364187,9.772254
82100466609177,-0.25664115,-0.2455972,9.788727
82100486459368,-0.29874977,-0.29506704,9.762715
82100506315881,-0.36487216,-0.2185969,9.881682
82100526172392,-0.31278402,-0.28347844,9.78054
82100546029032,-0.4093717,-0.28308758,9.697126
82100565885545,-0.35302344,-0.2291872,9.8505945
82100585731780,-0.3246945,-0.28801557,9.760877
82100605588036,-0.33464357,-0.22264948,9.828381
82100625444421,-0.30420396,-0.17520456,9.859611
82100645300804,-0.3017853,-0.49420598,9.688258
82100665129589,-0.226848,-0.34631142,9.712957
82100684985334,-0.25125444,-0.25267342,9.6870985
82100704840951,-0.43419325,-0.16904932,9.82007
82100724696693,-0.4882472,-0.14496188,9.867567
82100744552310,-0.33744147,-0.33070385,9.731034
82100764405905,-0.19104642,-0.28700086,9.713247
82100784271214,-0.21784298,-0.3029439,9.790026
82100804126959,-0.39729804,-0.07301923,9.840064
82100823982830,-0.40326467,-0.12049087,9.723984
82100843838702,-0.3348222,-0.25216296,9.734999
82100863694447,-0.28979903,-0.19221073,9.905718
82100883554191,-0.33129945,-0.09290792,9.787272
82100903410063,-0.32654312,0.07411441,9.783401
82100923265936,-0.23543763,0.053466525,9.761891
82100943121807,-0.26390186,-0.2774862,9.718677
82100962977679,-0.21779011,-0.22847371,9.791296
82100982833552,-0.19182245,-0.15570045,9.720524
82101002693788,-0.25042477,-0.19909278,9.77374
82101022549660,-0.28006238,-0.29542243,9.827882
82101042405533,-0.27939117,-0.21434383,9.73856
82101062261404,-0.1881826,-0.1535778,9.836019
82101082119868,-0.18008338,-0.24515665,9.761431
82101101975869,-0.3151044,-0.25110692,9.758389
82101121831740,-0.36032543,-0.16494322,9.8161
82101141687741,-0.27117372,-0.1438131,9.733774
82101161543742,-0.24699032,-0.20264477,9.74542
82101181408097,-0.22211969,-0.38478878,9.613424
82101201264225,-0.26816386,-0.29692173,9.732276
82101221120354,-0.37358618,-0.15964454,9.779461
82101240976353,-0.36013913,-0.21221446,9.764278
82101260832481,-0.29571405,-0.11868429,9.928611
82101280688482,-0.29904917,-0.21347848,9.918589
82101300556951,-0.27297965,-0.19048251,9.753068
82101320413336,-0.2496057,-0.23657098,9.648357
82101340269593,-0.29728383,-0.2785419,9.759011
82101360125978,-0.40803507,-0.13251083,9.700691
82101379989037,-0.31354707,-0.25989392,9.609783
82101399845550,-0.19579557,-0.19273114,9.807606
82101419702191,-0.38238832,-0.15489504,9.897593
82101439558704,-0.4596773,-0.12843397,9.884799
82101459415217,-0.36084828,-0.17771341,9.8126335
82101479271974,-0.30097616,-0.38631892,9.689325
82101499128487,-0.3263673,-0.15628706,9.687205
82101518985128,-0.3068162,-0.05781544,9.72344
82101538841641,-0.34626085,-0.12888151,9.684725
82101558698154,-0.33743346,-0.17138602,9.907544
82101578554795,-0.28457546,-0.20294134,9.800938
82101598408896,-0.3359741,-0.1815591,9.903693
82101618265409,-0.39116034,0.008044894,9.830271
82101638122050,-0.44794208,-0.19234736,9.644056
82101657978563,-0.23249501,-0.15063034,9.801645
82101677833602,-0.20061332,-0.13391355,9.802336
82101697690115,-0.4055971,-0.14875159,9.765356
82101717546756,-0.32028398,-0.08504285,9.849813
82101737403246,-0.27199912,-0.2789189,9.745988
82101757259759,-0.35006413,-0.21014121,9.749308
82101777116270,-0.32495978,-0.14819585,9.759142
82101796978559,-0.3308384,-0.13969697,9.701317
82101816835328,-0.2804634,-0.11455242,9.840072
82101836691967,-0.2605367,-0.23260798,9.874181
82101856548735,-0.29149124,-0.26414776,9.849359
82101876405376,-0.30975288,-0.285339,9.6808605
82101896270067,-0.35107332,-0.21137333,9.683622
82101916126963,-0.29621148,-0.19586651,9.821073
82101935983860,-0.29463226,-0.2903732,9.766853
82101955840883,-0.27568743,-0.25890556,9.717509
82101975697535,-0.23552853,-0.25864223,9.824488
82101995554432,-0.30615875,-0.32083854,9.80898
82102015411455,-0.26689887,-0.21698295,9.707965
82102035268479,-0.32797474,-0.3338625,9.620906
82102055125504,-0.3507408,-0.24937144,9.769052
82102074982527,-0.30738962,-0.035641238,9.85155
82102094836851,-0.30094805,-0.024133965,9.786396
82102114693876,-0.30592778,-0.12288129,9.839126
82102134550771,-0.26462585,-0.097021855,9.898816
82102154407795,-0.31198794,0.011575473,9.881518
82102174264692,-0.30687183,0.035491113,9.841679
82102194113366,-0.4072575,-0.19650078,9.659743
82102213970262,-0.31795824,-0.16075927,9.708087
82102233827031,-0.24154069,0.07783264,9.779368
82102253683798,-0.24126835,0.02461256,10.01913
82102273530493,-0.3807379,-0.018496467,9.875451
82102293386878,-0.3743535,-0.16507538,9.68052
82102313243263,-0.26046994,-0.050325856,9.75057
82102333099520,-0.33162242,-0.08745037,9.775246
82102352955905,-0.42583385,-0.1717314,9.717799
82102372812290,-0.25900385,-0.13054024,9.654565
82102392672051,-0.19187102,-0.21502785,9.763581
82102412528436,-0.2788437,-0.19112664,9.750528
82102432384949,-0.27286282,-0.24500424,9.662996
82102452241462,-0.13949402,-0.17333563,9.874134
82102472097847,-0.18857123,-0.087237075,9.847273
82102491947302,-0.3468687,-0.101267345,9.774189
82102511803559,-0.40223593,-0.04630215,9.794634
82102531659944,-0.3614503,-0.19729345,9.747368
82102551516201,-0.32680035,-0.23473087,9.742373
82102571372586,-0.31820193,-0.07097061,9.708088
82102591228843,-0.3994056,-0.10024927,9.813222
82102611073462,-0.34243837,-0.045805465,9.962244
82102630929591,-0.27122992,-0.0672953,9.883481
82102650785592,-0.24490806,-0.06598185,9.942533
82102670641721,-0.26193237,-0.07233606,9.744622
82102690493670,-0.23391369,-0.1531824,9.974153
82102710349671,-0.24309708,-0.073266074,10.2071705
82102730200294,-0.37529665,-0.02899435,10.026433
82102750056294,-0.26621345,0.06494588,10.065236
82102769912167,-0.20742139,0.01244698,10.059406
82102789777108,-0.37495506,-0.1792818,9.868707
82102809633236,-0.3023961,0.010379039,9.975327
82102829489365,-0.29821315,0.05523312,9.834932
82102849345492,-0.29219517,-0.070217766,10.106421
82102869201492,-0.2582189,0.01628877,10.206074
82102889057621,-0.3788654,0.0020980071,9.865329
82102908902710,-0.23163456,0.107661925,9.974614
82102928758710,-0.21840625,-0.07697354,9.8475065
82102948614711,-0.21747938,-0.054468136,9.981554
82102968470582,-0.2873473,0.09218968,9.618431
82102988330386,-0.22635163,-0.07064633,9.912191
82103008186387,-0.06860829,0.09290891,10.55774
82103028042386,-0.45432612,0.051626354,9.779742
82103047898386,-0.4399178,0.10419565,9.9032
82103067754387,-0.18177338,0.25961447,10.227915
82103087610357,-0.37224635,-0.11050072,9.836932
82103107466357,-0.16093527,0.08799926,9.88043
82103127322358,-0.18629473,0.06698921,9.73649
82103147178357,-0.41774958,-0.04183658,10.132594
82103167034357,-0.3747087,0.19078024,10.262992
82103186890358,-0.35776743,0.023234189,9.975209
82103206744023,-0.054681864,0.04160244,10.053904
82103226599895,-0.0053775,-0.05634859,9.659443
82103246455768,0.0012800571,-0.059551753,9.986433
82103266311767,-0.058910992,-0.05361719,10.131948
82103286172944,-0.11767478,-0.07477042,9.806046
82103306028945,-0.09019561,-0.078453824,10.007099
82103325884944,-0.076590806,-0.22233625,10.218974
82103345740816,0.15706944,0.16800372,10.036338
82103365596817,0.06977036,0.21779335,9.816358
82103385447204,-0.086046234,0.22662032,9.88804
82103405303077,-0.104336835,0.21192276,10.083993
82103425158950,-0.08875599,0.20903473,9.851107
82103445014823,-0.18140018,0.23248301,9.868016
82103464870696,-0.33811072,0.25241134,10.192137
82103484726569,-0.5002541,0.14541373,9.848379
82103504594010,-0.57438874,-0.0107455775,9.840579
82103524450139,-0.66429627,0.0013701194,9.902441
82103544306268,-0.72637796,-0.17205964,10.247853
82103564162269,-0.6685387,-1.8371618E-5,10.3058195
82103584025688,-0.37646925,-0.19756806,9.661235
82103603881945,0.12701285,0.122031786,9.88928
82103623738202,0.15154034,0.14407852,9.842815
82103643594459,-0.24366112,-0.2957797,9.713628
82103663450716,-0.16422155,0.3799384,10.198643
82103683306973,-0.3069326,0.70448136,10.190636
82103703168856,-0.6241301,0.59976274,10.09091
82103723025241,-0.6631697,0.34055614,9.9932375
82103742881610,-0.6070299,0.3916554,9.967739
82103762737994,-0.6680443,0.50662225,9.656802
82103782594379,-0.609719,0.40402398,9.631702
82103802455663,-0.13165377,0.6236724,10.15631
82103822312175,0.0021524287,0.6441928,9.599451
82103842168688,-0.27016714,0.8959593,9.429635
82103862025071,-0.78031266,1.1335567,9.794017
82103881885900,-0.79623955,1.2638866,9.751523
82103901742541,-0.57675403,1.551343,10.122057
82103921599180,0.27387333,2.0294476,10.377753
82103941455820,0.58005935,3.42188,10.674315
82103961312461,0.5018319,4.6902537,10.895589
82103981169102,0.086059235,5.30452,10.346068
82104001038059,-0.7894496,5.002582,9.775995
82104020894955,-1.6372402,4.0030556,10.480375
82104040751979,-2.0985668,2.141119,14.070631
82104060608875,-2.294592,-0.005749138,14.110292
82104080465899,-0.6668091,-1.9037116,12.065397
82104100321252,1.9255482,-2.1373932,11.276487
82104120178276,5.7753286,0.8477444,13.372706
82104140035173,7.119943,3.418029,14.720646
82104159892196,3.7801032,-0.9985303,13.788059
82104179749220,0.6097176,-5.6948886,11.077365
82104199606002,-0.5435192,-4.060616,9.868974
82104219462898,-0.07872252,-1.1936367,9.839018
82104239319922,1.308038,0.05441387,8.176663
82104259172075,0.9226276,-2.856994,6.884084
82104279028972,-0.484942,-3.6969934,5.9697995
82104298891085,-1.5025507,-5.016723,4.7366095
82104318748238,-1.3649269,-4.6989107,4.518419
82104338605263,0.16091198,0.43191814,4.9968724
82104358462288,2.0073469,4.1835,4.7859406
82104378319313,3.1865673,2.4769726,5.501817
82104398182676,2.2984097,0.1901748,7.033517
82104418039957,0.73657,-0.9498385,7.6502852
82104437897238,0.34910962,-0.49388927,6.719005
82104457754519,0.91003114,1.8136162,6.3881583
82104477611800,1.03521,3.7326207,7.687347
82104497452173,1.0527655,4.8866935,10.237744
82104517309070,1.2973068,6.3151035,13.9137945
82104537165967,1.2488347,7.1338673,17.222271
82104557022736,1.3756484,3.8116407,15.564698
82104576879633,0.5828023,-0.49201226,10.048247
82104596727136,-0.90986305,0.03618733,7.1313877
82104616583905,-0.96871275,1.6340953,12.236351
82104636440674,-1.2543547,-9.713376,13.898295
82104656297443,1.4644389,-20.969177,14.02567
82104676154084,4.7556543,-0.5843835,13.045751
82104696010853,9.433084,6.4382915,2.7386374
82104715859986,5.551129,0.46789956,3.4282134
82104735716477,2.4177,-5.4730835,7.1762643
82104755573118,-0.40207914,-10.816577,8.303133
82104775429631,-4.659183,-13.375851,7.6980515
82104795286269,-3.989303,-7.7406535,10.496176
82104815120162,-1.0424964,-3.1555908,10.153016
82104834976290,-0.381366,2.789485,10.280751
82104854832418,-0.26050052,6.1474023,10.115254
82104874688418,-1.6432562,-6.1398406,9.878798
82104894544546,-0.79494786,-4.8899994,7.3955555
82104914401479,1.1371334,1.0222695,6.8052897
82104934257607,0.2701105,2.052068,9.364812
82104954113735,-0.8821735,0.036148403,9.69322
82104973969863,0.5554319,0.5721842,8.196577
82104993825863,2.831765,3.3653393,8.761072
82105013676190,1.4111183,1.8045642,9.725754
82105033531934,1.2307287,1.6652094,9.489351
82105053387806,0.83260274,2.0006342,9.601392
82105073243678,-0.02074478,1.7918022,11.28755
82105093099550,-0.46402794,3.101689,11.8647785
82105112955770,-0.72343135,2.4392989,11.46108
82105132811514,0.15770012,2.3041608,10.739681
82105152667386,1.6023861,2.7179487,11.003028
82105172523258,3.2964134,0.46047217,12.956696
82105192379002,4.422455,-2.12735,14.411393
82105212235106,3.5416095,-3.072178,13.8142185
82105232090850,1.4299532,-5.576057,13.0467
82105251946722,3.4361975,-6.4737606,14.482845
82105271802466,8.444878,-5.7409782,15.359993
82105291658210,7.1141067,-2.6969006,13.753986
82105311520547,1.917745,-1.9091945,12.101053
82105331376419,-4.934595,-1.8053565,9.69523
82105351232292,-5.159374,-0.8163447,7.226572
82105371088165,-4.9137945,-1.3377093,5.798103
82105390944038,-5.4553223,-1.4393766,4.308416
82105410799849,-2.5715256,-1.7273448,4.4936514
82105430655594,-0.17423536,-0.9103541,4.0013638
82105450511467,0.3989762,-0.7409968,3.4421299
82105470367340,1.4575368,-1.7207425,3.9231212
82105490223213,3.4602277,-2.2440636,4.5503063
82105510087668,3.9719417,-0.64930105,5.7932878
82105529943541,3.1195145,1.0501212,6.629844
82105549799542,2.2804024,1.3404465,6.262067
82105569655543,2.2061574,1.004031,6.928574
82105589511544,3.607354,0.5812197,10.791097
82105609377985,5.133811,1.6081301,18.565613
82105629234242,2.6241364,3.5092838,22.171627
82105649090499,0.6053592,4.3982215,13.967381
82105668946628,3.9049304,-0.7156035,7.047373
82105688802885,6.7513533,-2.179632,5.131774
82105708660844,2.7965763,-3.1323054,8.301247
82105728517101,-3.7655761,-6.08191,15.152399
82105748373358,-8.026488,-16.832323,20.153704
82105768229615,-4.4815745,-11.887655,14.394495
82105788085851,4.2772236,2.8036423,2.619742
82105807950488,0.23626128,-3.0180957,0.18090694
82105827806872,-2.2267852,-2.6311417,4.7072196
82105847663384,-2.3676932,-4.5141068,9.53097
82105867519896,-5.156665,-7.579618,11.434749
82105887376408,-7.181353,-3.1615164,10.6346
82105907240832,-6.5894766,0.6450244,9.725275
82105927097600,-2.6893926,0.4980885,9.643908
82105946954368,7.54529,2.1863074,9.227958
82105966811008,3.5956566,-0.9095978,10.524129
82105986667776,-2.8911588,-2.5924919,9.747828
82106006535656,-5.226283,-0.34078413,8.245469
82106026392808,-1.5224638,0.7227682,8.887227
82106046249832,5.112182,0.8600387,9.279072
82106066106984,1.4851094,0.14983317,8.84586
82106085964008,-1.6837884,-0.1937021,8.753453
82106105811280,4.140292,0.96317464,9.2774725
82106125668176,4.2012777,0.25214875,9.719988
82106145525200,0.74623257,-0.3041267,9.277408
82106165382096,0.960787,0.4490779,9.206363
82106185238992,2.4889638,0.35402745,9.588211
82106205097956,3.5211608,0.20924468,10.3809395
82106224954853,3.2019918,0.26951206,10.704663
82106244811878,2.808622,0.761295,10.1982155
82106264668903,2.8380291,1.6784225,10.36969
82106284525796,3.6774843,2.7876654,10.449815
82106304384390,3.6027873,2.9427588,10.489342
82106324241414,0.8228765,2.8704584,11.258783
82106344098438,0.6911893,1.261614,13.113499
82106363955590,1.5346113,-0.26857132,13.592556
82106383812614,-4.8140373,-2.833391,11.768529
82106403655485,-5.082252,-3.3795671,9.327674
82106423512126,-5.8047996,-4.389655,10.412086
82106443368767,-4.752206,-6.063485,12.658884
82106463225536,-2.2168334,-6.395444,11.460741
82106483082177,-1.3128976,-4.3523993,10.258997
82106502936214,-0.8565845,-4.0765653,10.092222
82106522792855,-1.6934297,-3.4389753,9.996545
82106542649368,-1.112532,-2.9692147,9.835042
82106562506009,-1.6157887,-3.1358316,9.314076
82106582362650,-1.901872,-0.9919664,7.8542385
82106602211885,-1.8227025,0.22909264,6.607889
82106622068398,-2.3486574,0.3610458,6.328504
82106641924783,-3.277432,0.15996401,6.4183345
82106661781296,-1.981943,-0.94991875,6.649879
82106681637681,0.9189408,-2.6002395,6.439497
82106701485154,3.2442212,-3.179226,6.1029487
82106721341411,3.4248126,-2.0296502,6.3651114
82106741197668,2.1028142,-0.81636834,6.9402037
82106761053925,0.554954,-0.30519897,7.4440584
82106780910164,0.10873023,-0.17116666,7.8548126
82106800764009,1.0748694,-0.58947396,8.381127
82106820620137,1.8110938,-0.56723183,8.697357
82106840476393,1.8669864,-0.2178549,9.085081
82106860332521,1.2127883,-0.25955608,9.678085
82106880188777,1.737298,-0.54862046,11.090238
82106900043223,3.036455,-0.48352247,11.041287
82106919899479,3.6583962,-0.9321833,10.381461
82106939755607,3.3877535,-1.6514884,10.00978
82106959611735,3.1477575,-1.9235876,9.48212
82106979467863,3.5354502,-2.6028867,10.130125
82106999323010,4.587361,-3.1707244,12.336558
82107019179138,1.5701758,-2.153565,15.8767805
82107039035138,-8.158551,-1.3157542,18.157246
82107058891266,-9.484739,-3.772869,13.896402
82107078747266,-2.1684244,-2.8381038,6.841683
82107098605162,0.8540388,-1.3531699,4.7818017
82107118461290,2.0393922,-0.5414522,5.651512
82107138317418,-2.587185,0.87135303,8.943692
82107158173419,-5.7343316,0.9908897,10.840125
82107178029548,-4.4441814,0.03524584,11.513979
82107197885674,0.074977346,-0.5273298,10.755393
82107217738127,5.664656,-1.0437309,10.099232
82107237594255,-0.005648065,-0.55503565,10.218085
82107257450255,-2.4235084,0.9173948,8.400559
82107277306255,-0.47339636,0.2643604,9.408642
82107297162383,0.060622744,-0.10481407,10.494579
82107317019412,-0.53888583,0.23022117,9.865075
82107336875540,-0.60961205,-0.6165464,9.414307
82107356731540,-0.23055445,-1.3247963,9.43259
82107376587540,1.1050515,-2.1574786,9.639714
82107396443540,1.1297793,-1.9857773,9.826258
82107416298996,0.13542062,-0.89820397,9.776136
82107436155124,0.063746326,-0.21724306,9.750386
82107456011124,-0.19422327,-0.023607912,9.960834
82107475867124,-0.4664743,-0.07077255,9.733167
82107495723124,-0.01583005,-0.3645879,9.334953
82107515582701,0.5781374,-0.90612376,9.447465
82107535438830,1.0676748,-0.9738214,9.642676
82107555294957,0.9881689,-0.6163455,9.689505
82107575150958,-0.17663436,0.06960838,9.903626
82107595007085,-1.5289314,0.8770805,10.065685
82107614865174,-1.9082358,1.61799,9.47941
82107634721302,-1.280317,0.46014753,9.332811
82107654577558,0.20971252,-1.0142202,9.326405
82107674433686,0.26202178,-1.1022905,9.028642
82107694289942,0.11861979,-0.86502117,9.319249
82107714150099,0.34467712,-0.7835948,9.72154
82107734006355,0.5011989,-0.56168014,9.718478
82107753862483,0.33037248,-0.20051853,9.679665
82107773718611,-0.08526682,0.031086529,9.752312
82107793574867,-0.1211521,-0.037757356,9.716654
82107813435993,0.25897408,-0.17564929,9.617281
82107833292377,0.48304376,-0.37600496,9.611648
82107853148761,0.808367,-0.5907032,9.758722
82107873005017,1.0878034,-0.76415163,9.930451
82107892861401,1.0519663,-0.7029392,9.896684
82107912721814,0.65205044,-0.35768345,9.800527
82107932578198,0.37490973,-0.17735909,9.723805
82107952434710,0.3915404,-0.08379293,9.483096
82107972291222,0.28701296,-0.060951862,9.412865
82107992147606,0.33980876,-0.2872847,9.390684
82108012009477,0.46997595,-0.4089735,9.373629
82108031866117,0.5294188,-0.44514748,9.488891
82108051722629,0.47092465,-0.5681389,9.565294
82108071579269,0.2514019,-0.47155523,9.6451235
82108091435781,0.2653952,-0.30314666,9.611264
82108111290294,0.38959593,-0.32231262,9.637718
82108131146934,0.41022742,-0.35556862,9.672781
82108151003446,0.5382075,-0.3268739,9.599551
82108170860086,0.45698616,-0.2867013,9.635243
82108190716599,0.4068065,-0.3171642,9.572185
82108210571424,0.3303875,-0.19791596,9.527451
82108230427937,0.4081542,-0.2321741,9.548065
82108250284446,0.50637925,-0.27529266,9.558104
82108270140958,0.31155193,-0.18884872,9.711871
82108289997470,0.36436832,-0.25385368,9.799055
82108309856078,0.46465448,-0.30329087,9.678386
82108329712590,0.46636626,-0.44288605,9.597839
82108349569102,0.50414246,-0.43382114,9.6170225
82108369425743,0.50803363,-0.30337223,9.652282
82108389282256,0.5292852,-0.18042332,9.624874
82108409137579,0.4772267,-0.10394044,9.560933
82108428994092,0.34462464,-0.24597098,9.557673
82108448850733,0.33750823,-0.3850511,9.642552
82108468707246,0.31894317,-0.32003772,9.645006
82108488563759,0.33726278,-0.24878833,9.656107
82108508417034,0.39911583,-0.28957942,9.58952
82108528273547,0.3735682,-0.23234022,9.6446085
82108548129932,0.31358296,-0.25194472,9.630704
82108567986445,0.28199464,-0.40990537,9.633261
82108587842958,0.31429324,-0.5344911,9.601925
82108607689937,0.38792866,-0.44231847,9.608088
82108627546322,0.32910696,-0.3836306,9.595113
82108647402579,0.3570109,-0.365762,9.536174
82108667258964,0.37816375,-0.24057919,9.598447
82108687115349,0.4493291,-0.21171673,9.626972
82108706973544,0.49090508,-0.22075108,9.638565
82108726829929,0.529283,-0.2567569,9.667327
82108746686314,0.5326533,-0.2250993,9.625479
82108766542680,0.56517977,-0.1316429,9.721208
82108786399064,0.5258623,-0.1983452,9.742067
82108806256872,0.43557534,-0.3546059,9.718174
82108826113128,0.3767873,-0.4242093,9.765387
82108845969512,0.45236367,-0.45670253,9.887599
82108865825896,0.6281207,-0.31279042,9.813756
82108885682280,0.5771253,-0.30441472,9.652996
82108905535885,0.4522481,-0.43736002,9.550222
82108925392269,0.38234583,-0.33605638,9.5518055
82108945248525,0.38777667,-0.28044325,9.616908
82108965104909,0.3530829,-0.32847932,9.749573
82108984961165,0.56103253,-0.36142206,9.853078
82109004813886,0.78855616,-0.394914,9.788737
82109024670142,0.63470244,-0.18764614,9.779486
82109044526270,0.62176836,-0.25416175,9.87863
82109064382526,0.6656555,-0.21254258,9.69551
82109084238654,0.506836,-0.19881968,9.718127
82109104094782,0.35053948,-0.29175377,9.70387
82109123951038,0.4816525,-0.3028746,9.736395
82109143807166,0.4853548,-0.16148004,9.688078
82109163663422,0.370533,-0.08080621,9.688765
82109183519550,0.51789075,-0.07626845,9.737901
82109203369619,0.39613602,-0.067957245,9.713643
82109223225620,0.33689383,-0.15006275,9.679949
82109243081749,0.41382048,-0.33753428,9.620013
82109262937747,0.42653322,-0.5090107,9.637532
82109282793747,0.46917486,-0.39653566,9.771606
82109302656828,0.4709391,-0.17185836,9.879355
82109322512956,0.55032885,-0.086777076,9.845642
82109342369212,0.59336764,-0.15012728,9.755608
82109362225341,0.47839996,-0.28785476,9.717449
82109382081470,0.43384597,-0.28368682,9.804627
82109401941871,0.59101826,-0.2942904,9.836112
82109421798128,0.7977848,-0.3717097,9.784806
82109441654385,0.78494596,-0.25153783,9.745259
82109461510642,0.6241109,-0.18957368,9.693063
82109481366899,0.51809955,-0.19997074,9.784071
82109501228738,0.5637898,-0.18618625,10.0408745
82109521085123,0.750582,-0.23296529,9.890449
82109540941508,0.79995525,-0.22090615,9.825489
82109560797893,0.6791157,-0.15258081,9.666502
82109580654150,0.4590932,-0.19163218,9.649291
82109600509241,0.43747458,-0.16036747,9.759726
82109620365626,0.48553717,-0.21894675,9.788471
82109640222011,0.58741605,-0.24363327,9.705911
82109660078396,0.48445934,-0.19253917,9.735334
82109679934781,0.43614525,-0.23613584,9.82465
82109699793746,0.41172338,-0.23313159,9.83808
82109719650131,0.43954644,-0.15701084,9.771282
82109739506516,0.48008895,-0.17450143,9.744279
82109759363009,0.38670385,-0.22392459,9.718738
82109779219393,0.3163193,-0.32641122,9.762718
82109799076119,0.39091018,-0.40815303,9.771515
82109818932631,0.37147146,-0.3471078,9.801714
82109838789015,0.31633028,-0.2670904,9.678772
82109858645527,0.3598071,-0.25432652,9.729565
82109878501911,0.2890027,-0.18161106,9.80685
82109898348421,0.18707216,-0.10459746,9.789731
82109918204677,0.31845275,-0.20676185,9.681692
82109938061061,0.3757227,-0.28063694,9.750554
82109957917445,0.43505225,-0.34043583,9.759766
82109977773701,0.3146423,-0.24217048,9.734626
82109997630085,0.3152169,-0.18019612,9.704324
82110017491505,0.23931997,-0.17202498,9.781282
82110037347889,0.28769737,-0.2882397,9.930814
82110057204273,0.4685939,-0.33785298,9.964186
82110077060657,0.6578893,-0.36784634,9.874281
82110096917169,0.58695775,-0.31530383,9.705552
82110116771420,0.4045181,-0.110243365,9.71524
82110136627805,0.29317975,0.003293295,9.725303
82110156484190,0.39001977,-0.016667869,9.785591
82110176340572,0.4376163,-0.022951514,9.772889
82110196196956,0.39610794,-0.11082936,9.748779
82110216047050,0.36313054,-0.16299903,9.881165
82110235903178,0.47754052,-0.22085401,10.032512
82110255759434,0.63424224,-0.3139192,9.876915
82110275615562,0.5129321,-0.2591291,9.813638
82110295471690,0.42861572,-0.10256742,9.781501
82110315338751,0.38655338,-0.10205279,9.791234
82110335195136,0.44205704,-0.08280007,9.760162
82110355051521,0.53784406,-0.11274712,9.738995
82110374907906,0.52183664,-0.18928756,9.719833
82110394764291,0.42015168,-0.094544366,9.816396
82110414618524,0.39879444,-0.031296328,9.774977
82110434474909,0.4461069,-0.09472103,9.811883
82110454331294,0.54167944,-0.11411591,9.775088
82110474187679,0.47945666,-0.12028772,9.767004
82110494044064,0.36095655,-0.072684035,9.824628
82110513895237,0.39268827,-0.08537804,9.839847
82110533751494,0.42871898,-0.16050047,9.7284355
82110553607879,0.42762068,-0.15128528,9.749723
82110573464136,0.42775685,-0.14943196,9.820341
82110593320393,0.40937078,-0.20462659,9.772683
82110613167980,0.41082412,-0.29800245,9.700808
82110633023981,0.44862124,-0.36511678,9.725077
82110652880110,0.47567987,-0.19906725,9.748365
82110672736239,0.46031004,-0.099586055,9.809872
82110692592368,0.43715057,-0.16088672,9.748981
82110712448959,0.4570101,-0.24738178,9.824641
82110732305088,0.5066237,-0.23067403,9.843683
82110752161089,0.46794143,-0.21616055,9.746473
82110772017197,0.45802867,-0.29545552,9.748492
82110791873325,0.5061427,-0.2956884,9.711791
82110811733797,0.53036565,-0.229744,9.8035345
82110831589925,0.49143043,-0.17708533,9.8007345
82110851446053,0.40125173,-0.24473207,9.769965
82110871302053,0.43602282,-0.27417156,9.789203
82110891158181,0.40510812,-0.24245796,9.776914
82110911016912,0.43246216,-0.17149962,9.791998
82110930873040,0.49247062,-0.19408007,9.791383
82110950729296,0.48654038,-0.3389255,9.748685
82110970585424,0.5328964,-0.24276914,9.650112
82110990441552,0.50432914,-0.15208943,9.758118
82111010294591,0.49133217,-0.14650431,9.781838
82111030150719,0.49676502,-0.101409875,9.766573
82111050006847,0.45943004,-0.0878041,9.791753
82111069862975,0.44742134,-0.11395326,9.7383175
82111089719103,0.48913845,-0.16093259,9.807277
82111109571690,0.5453853,-0.16763763,9.826756
82111129427818,0.51288736,-0.1261328,9.781718
82111149283946,0.4659662,-0.14907546,9.7777815
82111169140074,0.4758575,-0.22655557,9.750614
82111188996202,0.50721633,-0.17035316,9.778529
82111208852179,0.501676,-0.1218727,9.759535
82111228708308,0.38950768,-0.18075357,9.743437
82111248564309,0.42355135,-0.19222203,9.743796
82111268420434,0.470879,-0.16449578,9.713569
82111288276434,0.46567947,-0.14349777,9.726544
82111308138521,0.42930242,-0.16263238,9.815174
82111327994777,0.44036117,-0.19418219,9.853149
82111347851033,0.50539666,-0.30267748,9.814713
82111367707289,0.46263498,-0.36086887,9.810911
82111387563417,0.44899067,-0.2796793,9.752282
82111407425512,0.4555038,-0.15263885,9.734871
82111427281897,0.44895247,-0.16979434,9.754939
82111447138154,0.3846765,-0.21402676,9.751023
82111466994539,0.4201926,-0.22632208,9.746389
82111486850924,0.49359396,-0.24937826,9.751214
82111506705104,0.47114667,-0.23016395,9.762907
82111526561232,0.4368478,-0.20997107,9.815999
82111546417488,0.432302,-0.19060491,9.803473
82111566273744,0.43204874,-0.09139781,9.789376
82111586129872,0.41057637,-0.13649583,9.771248
82111605989314,0.40801713,-0.23368171,9.786995
82111625845570,0.42943946,-0.16557279,9.753544
82111645701954,0.38372675,-0.11656174,9.745774
82111665558210,0.4460906,-0.2109114,9.726251
82111685414594,0.4626631,-0.11357117,9.724737
82111705271107,0.4656517,-0.041934177,9.813924
82111725127491,0.45620745,-0.07931087,9.816992
82111744983748,0.50418895,-0.14312242,9.801513
82111764840131,0.56540114,-0.15920432,9.809892
82111784705292,0.4892971,-0.07544795,9.7689295
82111804561805,0.48249075,-0.044779234,9.87409
82111824418316,0.46594906,-0.1402511,9.825551
82111844274828,0.44388884,-0.12446471,9.680597
82111864131341,0.44548917,-0.19408867,9.727006
82111883987852,0.4926378,-0.18917698,9.798575
82111903845219,0.46291596,-0.12798846,9.763978
82111923701860,0.445973,-0.19403741,9.759543
82111943558499,0.4420702,-0.19115156,9.724689
82111963415139,0.4621968,-0.06329813,9.7798
82111983271780,0.5005911,-0.1343039,9.8476715
82112003130766,0.49060777,-0.1696856,9.806367
82112022987406,0.45242065,-0.11440639,9.771593
82112042844175,0.43880197,-0.13362588,9.775924
82112062700814,0.40114102,-0.16305622,9.777146
82112082559679,0.44612187,-0.22442088,9.723233
82112102416320,0.5299281,-0.22330198,9.731985
82112122273087,0.42769936,-0.088900134,9.745685
82112142129856,0.39656007,-0.056863915,9.785548
82112161986497,0.44202846,-0.13711603,9.783394
82112181843266,0.44685835,-0.16838539,9.825391
82112201695275,0.44995552,-0.2095817,9.822499
82112221551916,0.47164866,-0.19690941,9.776306
82112241408429,0.4395402,-0.15515135,9.795658
82112261265070,0.45416415,-0.21777533,9.769202
82112281121583,0.47422192,-0.1885264,9.699346
82112300978800,0.40971345,-0.14409906,9.776859
82112320835313,0.37147713,-0.1657521,9.79245
82112340691954,0.44546914,-0.16936305,9.752569
82112360548595,0.45836845,-0.23037332,9.762753
82112380408270,0.50292164,-0.21524046,9.707978
82112400265039,0.5235608,-0.14277174,9.808461
82112420121808,0.47225508,-0.14474314,9.789537
82112439978577,0.4720895,-0.1614564,9.769601
82112459835218,0.4521773,-0.18126652,9.794428
82112479691987,0.49264705,-0.15304345,9.858183
82112499541520,0.52089995,-0.09073767,9.800251
82112519398161,0.43549046,-0.10409484,9.714626
82112539254802,0.44556642,-0.16307035,9.722551
82112559111443,0.54294014,-0.12261293,9.700773
82112578968084,0.5125963,-0.088130824,9.762171
82112598816578,0.47793642,-0.06019263,9.855583
82112618672963,0.4342395,-0.015570512,9.798101
82112638529476,0.45891708,-0.06036478,9.775504
82112658385861,0.49655077,-0.09517609,9.793717
82112678242374,0.48587736,-0.07494117,9.741697
82112698098759,0.45565465,-0.14182313,9.868429
82112717950858,0.47883302,-0.15906091,9.725859
82112737807109,0.51427984,-0.12042731,9.711339
82112757663494,0.4833836,-0.06888011,9.775442
82112777519749,0.43183124,-0.07370277,9.77497
82112797371933,0.49010336,-0.12160309,9.798632
82112817228062,0.49364173,-0.1953096,9.806831
82112837084241,0.48646128,-0.1319626,9.782548
82112856940497,0.49567053,-0.03841399,9.731326
82112876796626,0.48986995,-0.09103442,9.760306
82112896653160,0.48523322,-0.09816721,9.748983
82112916509416,0.49530056,-0.118067205,9.854217
82112936365545,0.5586788,-0.14221539,9.799598
82112956221672,0.4979684,-0.121364556,9.750829
82112976077800,0.42559785,-0.1724954,9.7637205
82112995934057,0.46786794,-0.1461451,9.7620945
82113015794757,0.5274666,-0.090867534,9.775259
82113035651013,0.4560782,-0.164199,9.754117
82113055507270,0.4410264,-0.19212344,9.793511
82113075363525,0.46058768,-0.15607451,9.772928
82113095220962,0.50397104,-0.09366388,9.773785
82113115077219,0.44243526,-0.04962576,9.745371
82113134933474,0.43738526,-0.10751587,9.751571
82113154789730,0.4673149,-0.11494283,9.841973
82113174646115,0.5006447,-0.08147663,9.777704
82113194500870,0.4174533,-0.10940757,9.787949
82113214357126,0.4332673,-0.13808765,9.793232
82113234213383,0.43013376,-0.098460816,9.781862
82113254069510,0.41597396,-0.11516296,9.730719
82113273925766,0.42074907,-0.20918262,9.7308
82113293782023,0.50606775,-0.18543069,9.884597
82113313640716,0.44246918,-0.10919244,9.776746
82113333496844,0.40749726,-0.10771112,9.816868
82113353353101,0.45907235,-0.19169255,9.78576
82113373209356,0.57370865,-0.19468333,9.799275
82113393071786,0.5724373,-0.0743631,9.758262
82113412928171,0.44748473,-0.08972249,9.812452
82113432784554,0.4766251,-0.13917771,9.771513
82113452640938,0.5350687,-0.075835116,9.705543
82113472497451,0.52113366,-0.07059297,9.767413
82113492349665,0.47862232,-0.16995434,9.803758
82113512205921,0.51790005,-0.16688487,9.812095
82113532062178,0.46967727,-0.087925605,9.724236
82113551918561,0.43849832,-0.09909681,9.708187
82113571774817,0.5067625,-0.06844079,9.74673
82113591631074,0.4322262,-0.022825921,9.755601
82113611489115,0.42479795,-0.10767726,9.814418
82113631345499,0.5135268,-0.12599312,9.746764
82113651201884,0.48083824,-0.060944665,9.741377
82113671058139,0.51099104,-0.087642826,9.82248
82113690920576,0.5652259,-0.10378778,9.802807
82113710777089,0.51829433,-0.023693638,9.790213
82113730633600,0.44256756,-0.010997654,9.704859
82113750490112,0.36543733,-0.08868431,9.712694
82113770346625,0.36244914,-0.08792823,9.746931
82113790203136,0.4866628,-0.13078135,9.802157
82113810064287,0.5502117,-0.12144051,9.78984
82113829920928,0.48306885,-0.06667563,9.779904
82113849777439,0.48251787,-0.05830239,9.793477
82113869634079,0.45338482,-0.029234052,9.786616
82113889490720,0.42357564,-0.0067870263,9.790207
82113909345788,0.4914535,-0.09285613,9.730893
82113929202428,0.55541295,-0.101085216,9.724093
82113949059069,0.52617675,-0.08675555,9.767283
82113968915708,0.48109856,-0.05861616,9.762023
82113988773659,0.40720975,-0.03518136,9.759387
82114008630300,0.449689,-0.092267714,9.755762
82114028486939,0.50746006,-0.11190774,9.748845
82114048343707,0.5007681,-0.08017822,9.702702
82114068200348,0.47010916,-0.14118762,9.846328
82114088057115,0.5269736,-0.108259365,9.832516
82114107903802,0.581994,-0.06470051,9.821162
82114127760315,0.5189615,-0.10397228,9.811146
82114147616700,0.50693685,-0.10025159,9.739362
82114167473213,0.47977695,-0.1349691,9.785259
82114187329726,0.5348542,-0.19101508,9.794704
82114207186845,0.6275311,-0.19624527,9.738236
82114227043230,0.6064481,-0.11190843,9.806548
82114246899743,0.55405784,-0.018771857,9.826625
82114266756128,0.45911834,0.034786325,9.712978
82114286616297,0.43522307,-0.008696249,9.740058
82114306472810,0.44642222,-0.08813709,9.80582
82114326329323,0.53062737,-0.10220173,9.865378
82114346185836,0.5262287,-0.10938392,9.920079
82114366042349,0.56354517,-0.19906406,9.804345
82114385898862,0.50464433,-0.12391257,9.722857
82114405753131,0.4179109,-0.016820997,9.750287
82114425609644,0.37111458,-0.0423618,9.7635145
82114445466029,0.35284966,-0.0644427,9.7560005
82114465322542,0.34527624,-0.07140105,9.767376
82114485179055,0.37721175,-0.122183315,9.732866
82114505023554,0.36091,-0.083931185,9.672296
82114524879811,0.27521256,-0.09118991,9.717197
82114544736068,0.3586917,-0.15276131,9.811254
82114564592176,0.48624367,-0.1454797,9.772369
82114584448433,0.4611341,-0.14786601,9.783103
82114604304690,0.42519042,-0.13007541,9.807714
82114624160757,0.44014588,-0.0965072,9.799931
82114644017014,0.52478564,-0.11876715,9.832656
82114663873143,0.48784083,-0.098681435,9.757653
82114683729400,0.40353522,-0.05401529,9.732292
82114703576495,0.38839492,-0.08959137,9.793699
82114723432496,0.47629347,-0.098155215,9.817322
82114743288497,0.43052235,-0.07471886,9.730968
82114763144626,0.37997943,-0.12218734,9.759289
82114783000627,0.44269145,-0.185494,9.874269
82114802852534,0.5465219,-0.071834676,9.806311
82114822708406,0.45284465,-0.0070718187,9.758486
82114842564407,0.4090008,-0.104745045,9.788754
82114862417401,0.4174198,-0.093325235,9.774491
82114882273273,0.4809391,-0.07677819,9.851964
82114902129274,0.5134204,-0.09487833,9.801104
82114921980373,0.40203702,-0.08274852,9.771352
82114941836245,0.3851687,-0.071613535,9.737729
82114961692118,0.42210963,-0.09132205,9.708068
82114981547861,0.37866354,-0.12540708,9.734298
82115001411195,0.36803898,-0.13391253,9.749968
82115021267068,0.39543334,-0.10698871,9.806837
82115041123067,0.37485144,-0.09558199,9.830272
82115060978939,0.4146063,-0.14631295,9.827438
82115080834940,0.40437347,-0.14954442,9.7684355
82115100690811,0.35860842,-0.113263875,9.741963
82115120540356,0.38178867,-0.16894707,9.781214
82115140396229,0.3941998,-0.22457083,9.828619
82115160251972,0.41692838,-0.1205462,9.728531
82115180107716,0.37820575,-0.102372505,9.758003
82115199963461,0.37815678,-0.10008588,9.830611
82115219819253,0.41294372,-0.111194134,9.822137
82115239674997,0.42284718,-0.17441265,9.771504
82115259530742,0.37522024,-0.17171992,9.702534
82115279386485,0.33513954,-0.115705825,9.811187
82115299240860,0.36152327,-0.17454444,9.863787
82115319096605,0.37471128,-0.17619514,9.706785
82115338952348,0.3743973,-0.13231887,9.659049
82115358807964,0.3660181,-0.12749735,9.761005
82115378663709,0.37293348,-0.12275208,9.791181
82115398519454,0.34482074,-0.108269714,9.786601
82115418379441,0.35967022,-0.18406495,9.817739
82115438235186,0.4525633,-0.20860791,9.787383
82115458091059,0.46437502,-0.12575431,9.805293
82115477946932,0.37667713,-0.11550196,9.794886
82115497802677,0.39112723,-0.1408977,9.797468
82115517664882,0.44082934,-0.15638554,9.837938
82115537520755,0.43973276,-0.19899501,9.773795
82115557376628,0.35449106,-0.15832552,9.7555685
82115577232629,0.34890786,-0.13658336,9.749626
82115597095012,0.4093368,-0.16195579,9.750604
82115616951013,0.50232166,-0.2030278,9.772631
82115636807142,0.3903716,-0.11041388,9.690576
82115656663143,0.34612846,-0.12303681,9.809533
82115676519144,0.46614513,-0.2528363,9.818409
82115696375273,0.50219375,-0.19198601,9.76199
82115716232774,0.44022155,-0.1285437,9.7530985
82115736088903,0.4086767,-0.16541158,9.860222
82115755944904,0.44372064,-0.18524198,9.866716
82115775800887,0.49157527,-0.1917716,9.817633
82115795657016,0.42616066,-0.18365464,9.719247
82115815514198,0.3864906,-0.15771282,9.712593
82115835370326,0.4197168,-0.20035885,9.716774
82115855226455,0.45492062,-0.19766612,9.760129
82115875082582,0.41119415,-0.10604738,9.82606
82115894938710,0.35605764,-0.17598684,9.766687
82115914794839,0.4254222,-0.23777856,9.762166
82115934666107,0.45840412,-0.19118774,9.780171
82115954522619,0.40137193,-0.14481366,9.806124
82115974379004,0.32568496,-0.2005525,9.670942
82115994235515,0.44435385,-0.22488728,9.770553
82116014100373,0.48367247,-0.19701707,9.7821045
82116033957142,0.43352932,-0.039924018,9.841373
82116053813781,0.35125655,-0.14510217,9.803563
82116073670549,0.41739637,-0.23721531,9.76281
82116093527318,0.43678847,-0.18164574,9.760293
82116113379363,0.37501982,-0.10931681,9.753178
82116133236002,0.29037055,-0.19139607,9.800556
82116153092643,0.40027776,-0.26274654,9.769092
82116172949282,0.43731627,-0.17915024,9.794074
82116192805922,0.30691552,-0.14454365,9.741536
82116212662563,0.34123245,-0.23948197,9.806881
82116232526590,0.41600853,-0.22047876,9.747513
82116252383359,0.43772635,-0.1461622,9.770098
82116272240256,0.38804355,-0.12499854,9.773124
82116292097025,0.30946794,-0.12626773,9.794188
82116311950214,0.41404694,-0.21679857,9.80332
82116331806983,0.50314736,-0.21995986,9.851474
82116351663752,0.43121982,-0.107162416,9.758253
82116371520521,0.3008715,-0.12330407,9.76121
82116391377162,0.35290822,-0.26442102,9.760012
82116411235031,0.46203575,-0.24021037,9.752178
82116431091800,0.42567533,-0.14458549,9.788689
82116450948569,0.286634,-0.15104358,9.729033
82116470805338,0.28203976,-0.23344883,9.775007
82116490662107,0.447619,-0.28068,9.832661
82116510518876,0.46770912,-0.16175345,9.83498
82116530368459,0.31892845,-0.10550825,9.703833
82116550225100,0.25870177,-0.2525346,9.716757
82116570081741,0.4933335,-0.31343192,9.758312
82116589938382,0.49712238,-0.12113378,9.851837
82116609794031,0.30376965,-0.093193956,9.797255
82116629650672,0.27754545,-0.2698917,9.793081
82116649507313,0.4588764,-0.25640672,9.732065
82116669364082,0.4308079,-0.16350977,9.779736
82116689220723,0.36021626,-0.22127095,9.811384
82116709077343,0.30583313,-0.2451088,9.752295
82116728925968,0.36260486,-0.28054237,9.734657
82116748782481,0.42343482,-0.22109629,9.762572
82116768638992,0.31418163,-0.12292993,9.785434
82116788495504,0.29832911,-0.20189154,9.781475
82116808352017,0.42428583,-0.27130422,9.746585
82116828199056,0.42793822,-0.18304572,9.848667
82116848052315,0.31809208,-0.15529957,9.804083
82116867908700,0.26758364,-0.2367584,9.74718
82116887764955,0.37850043,-0.2438071,9.715545
82116907618493,0.4002285,-0.14221555,9.70436
82116927474622,0.3906453,-0.17566861,9.764134
82116947330749,0.3541496,-0.2050378,9.810944
82116967187005,0.37694943,-0.25365043,9.8510475
82116987043134,0.42303544,-0.20144185,9.801467
82117006899261,0.33752468,-0.13257043,9.774488
82117026758035,0.3428255,-0.17497024,9.769906
82117046614164,0.42048892,-0.23329934,9.795067
82117066470419,0.39053577,-0.18024895,9.675776
82117086326547,0.34086755,-0.20008002,9.713589
82117106182676,0.37045723,-0.23948306,9.719785
82117126038512,0.42060533,-0.17114252,9.816288
82117145894640,0.4365963,-0.17475076,9.8279
82117165750769,0.33479896,-0.18485366,9.795006
82117185607026,0.34255895,-0.22327986,9.7796545
82117205463256,0.38656494,-0.25413695,9.758448
82117225319513,0.4361305,-0.22531117,9.773375
82117245175640,0.37645307,-0.20555207,9.751631
82117265031768,0.33018252,-0.24286464,9.7001095
82117284887897,0.38722214,-0.23367395,9.756638
82117304744152,0.44029403,-0.16603427,9.802919
82117324598827,0.3981422,-0.12477514,9.825062
82117344454956,0.3379218,-0.19911629,9.858789
82117364311085,0.3372025,-0.24814403,9.724436
82117384167214,0.35813436,-0.27361456,9.7816925
82117404023215,0.3958216,-0.24669987,9.674796
82117423877316,0.26293766,-0.15372095,9.807616
82117443733317,0.3706379,-0.21241422,9.847925
82117463589318,0.41187572,-0.15399985,9.810847
82117483445319,0.3064169,-0.18970935,9.746057
82117503305586,0.29881907,-0.24478377,9.7684145
82117523161715,0.32092553,-0.23508194,9.788794
82117543017844,0.38531846,-0.21000692,9.7413435
82117562873973,0.3655143,-0.1964014,9.735802
82117582730102,0.34836456,-0.18541661,9.756774
82117602586231,0.37557638,-0.15245323,9.774614
82117622442124,0.40455168,-0.15849686,9.800104
82117642298253,0.3725224,-0.17094207,9.82501
82117662154382,0.3969541,-0.15314965,9.7886305
82117682010511,0.36937547,-0.19676013,9.8080635
82117701866640,0.41705516,-0.23518841,9.84557
82117721723377,0.38104376,-0.17670023,9.744197
82117741579487,0.29025307,-0.19249958,9.685745
82117761435616,0.3525758,-0.24986438,9.737234
82117781291743,0.40263808,-0.20474327,9.814087
82117801147871,0.4181523,-0.1352888,9.818843
82117821004000,0.35871834,-0.17608297,9.755247
82117840851905,0.3916096,-0.22893447,9.749748
82117860707905,0.45360872,-0.19255064,9.745506
82117880563906,0.4116618,-0.14924206,9.784439
82117900420033,0.36360762,-0.17955413,9.764488
82117920284628,0.36858827,-0.20336281,9.773033
82117940140885,0.406286,-0.19812764,9.786682
82117959997012,0.41600895,-0.18393579,9.759582
82117979853268,0.35688704,-0.13601851,9.76685
82117999709397,0.32182935,-0.23660201,9.789316
82118019577783,0.40033546,-0.26701492,9.754268
82118039434167,0.4494773,-0.21666458,9.796859
82118059290680,0.34926322,-0.20514514,9.727857
82118079147063,0.33564943,-0.19872345,9.664337
82118099003575,0.390283,-0.18361066,9.822915
82118118860088,0.3662792,-0.21029967,9.864837
82118138714515,0.3345721,-0.22787583,9.793445
82118158571027,0.33450487,-0.2507218,9.783315
82118178427412,0.39507952,-0.24070998,9.807721
82118198283923,0.42367262,-0.17142686,9.73596
82118218140584,0.33263043,-0.1491169,9.769598
82118237996969,0.26104993,-0.21810132,9.724655
82118257853480,0.3964291,-0.20214565,9.75517
82118277709864,0.45761272,-0.24193221,9.883342
82118297566377,0.37554866,-0.21373525,9.866519
82118317418529,0.37181175,-0.17393492,9.799487
82118337274914,0.37716705,-0.22431354,9.695571
82118357131299,0.38199145,-0.29132086,9.772741
82118376987684,0.42070013,-0.25702482,9.78858
82118396844069,0.3620879,-0.16339135,9.761306
82118416700326,0.28753367,-0.2308456,9.767976
82118436553143,0.3443017,-0.24212132,9.728621
82118456409400,0.3598583,-0.14252636,9.721213
82118476265657,0.28240147,-0.1613286,9.778114
82118496121786,0.32133704,-0.26202062,9.76518
82118515977629,0.35306066,-0.23926352,9.751366
82118535833886,0.29871827,-0.23083359,9.814859
82118555690143,0.29323962,-0.23813727,9.825957
82118575546400,0.3719931,-0.20794421,9.850594
82118595402529,0.4251611,-0.2215514,9.826535
82118615258786,0.3282521,-0.17680499,9.721299
82118635116499,0.21756706,-0.14539635,9.709034
82118654972756,0.24959391,-0.29656228,9.783528
82118674829013,0.4084581,-0.33393213,9.718476
82118694685398,0.29429817,-0.14423518,9.75802
82118714541655,0.19054437,-0.23264663,9.756123
82118734400770,0.3156364,-0.27145594,9.7789
82118754257155,0.4136429,-0.20316616,9.853625
82118774113540,0.29384637,-0.22598143,9.824952
82118793969777,0.21873079,-0.23632592,9.75905
82118813825279,0.31016517,-0.2108063,9.753183
82118833681664,0.3830501,-0.2016822,9.736523
82118853537919,0.38383627,-0.16675761,9.709183
82118873395567,0.29666868,-0.17394638,9.800773
82118893251952,0.2976844,-0.20851797,9.829757
82118913108207,0.36946902,-0.26277977,9.854159
82118932958862,0.4287065,-0.19278283,9.772527
82118952815119,0.24633065,-0.14548448,9.829076
82118972671374,0.25636658,-0.22727218,9.806292
82118992527630,0.32611218,-0.24425374,9.731033
82119012383887,0.33892608,-0.23601986,9.769767
82119032246122,0.2814033,-0.1714729,9.728293
82119052102506,0.21230036,-0.118553,9.686984
82119071958891,0.34177044,-0.25318536,9.860797
82119091815274,0.40540567,-0.23866147,9.809643
82119111669392,0.2691067,-0.11372856,9.742738
82119131525649,0.23272322,-0.23683849,9.824626
82119151382032,0.35136315,-0.28960028,9.76699
82119171238288,0.39933792,-0.13375364,9.760267
82119191094673,0.25678486,-0.19675298,9.784619
82119210950930,0.24926312,-0.24103937,9.708458
82119230804466,0.36423042,-0.2067989,9.775405
82119250660723,0.37735382,-0.23355772,9.843067
82119270516978,0.30122194,-0.15992178,9.789809
82119290373234,0.25087816,-0.16780984,9.812791
82119310229491,0.3165632,-0.31432024,9.779979
82119330079869,0.3750015,-0.21049261,9.732501
82119349935997,0.27701965,-0.12373931,9.747639
82119369792254,0.23721251,-0.24400286,9.734898
82119389648381,0.3913477,-0.30357245,9.837112
82119409501616,0.37490216,-0.18670297,9.811017
82119429357489,0.24750549,-0.23722965,9.795588
82119449213490,0.32012075,-0.29308432,9.741032
82119469069491,0.39676604,-0.21467213,9.76298
82119488925364,0.38104552,-0.21079165,9.750699
82119508781365,0.28216448,-0.239948,9.739148
82119528647154,0.28145638,-0.27587888,9.823989
82119548503411,0.33596054,-0.30003327,9.8166485
82119568359540,0.38911164,-0.25201297,9.746966
82119588215669,0.32607105,-0.20351474,9.742099
82119608071926,0.24797319,-0.21837138,9.806552
82119627929083,0.349916,-0.26284432,9.804931
82119647785340,0.35275316,-0.17365982,9.748204
82119667641597,0.19563212,-0.19427712,9.774672
82119687497854,0.23791197,-0.2729211,9.74334
82119707354111,0.34912267,-0.21198529,9.690295
82119727210368,0.31555516,-0.22991374,9.769639
82119747069679,0.26734135,-0.2253559,9.779552
82119766925921,0.27912536,-0.18216446,9.792127
82119786782306,0.31112635,-0.21124114,9.764394
82119806638561,0.33072054,-0.2274837,9.851643
82119826497380,0.31875265,-0.15698875,9.807915
82119846353765,0.2611507,-0.20192301,9.822199
82119866210148,0.314254,-0.2666512,9.769701
82119886066532,0.3152124,-0.16204213,9.731987
82119905922917,0.24049422,-0.12498336,9.780853
82119925782313,0.22409646,-0.18907478,9.807762
82119945638697,0.27001664,-0.23186,9.7228
82119965495082,0.25378105,-0.2211266,9.761343
82119985351593,0.19740571,-0.24522159,9.753023
82120005207977,0.22606668,-0.19736862,9.743726
82120025064490,0.26933753,-0.22622386,9.801278
82120044916662,0.28856567,-0.253265,9.859277
82120064773046,0.28196234,-0.17049235,9.766643
82120084629431,0.25291517,-0.16768755,9.737162
82120104485814,0.2574381,-0.23338246,9.788041
82120124342418,0.37725657,-0.22786203,9.818162
82120144198803,0.3332804,-0.12299384,9.713502
82120164055186,0.22493659,-0.1587949,9.687063
82120183911571,0.31446403,-0.23138794,9.759746
82120203767956,0.41881967,-0.21904618,9.912725
82120223622775,0.3768139,-0.1531018,9.830585
82120243479029,0.22900239,-0.1276083,9.732664
82120263335414,0.23132484,-0.2212871,9.766633
82120283191797,0.36106065,-0.24954061,9.800488
82120303048053,0.32455748,-0.15261309,9.70847
82120322904438,0.18419625,-0.15638304,9.723219
82120342765244,0.2285378,-0.25650164,9.719064
82120362621757,0.38343817,-0.18805033,9.725005
82120382478270,0.32878408,-0.15336627,9.760732
82120402334655,0.24713749,-0.15114582,9.812211
82120422194922,0.33998242,-0.17994197,9.760474
82120442051435,0.42011258,-0.25598934,9.866328
82120461908076,0.37520757,-0.28180617,9.865084
82120481764582,0.42891142,-0.18991214,9.800549
82120501621095,0.38661972,-0.2163743,9.80136
82120521469024,0.37901953,-0.27411637,9.796235
82120541325408,0.38585678,-0.16251758,9.715436
82120561181665,0.3240453,-0.13552701,9.774536
82120581038048,0.28800148,-0.24706526,9.822791
82120600894432,0.3313227,-0.28203052,9.753149
82120620750689,0.33574942,-0.2662313,9.724906
82120640608425,0.2604006,-0.23134148,9.6985445
82120660464809,0.26353028,-0.17849413,9.741297
82120680321322,0.34511277,-0.23741834,9.778043
82120700177705,0.38631585,-0.23914962,9.861601
82120720027599,0.3273428,-0.1810447,9.765157
82120739883856,0.26646498,-0.20900635,9.785843
82120759740111,0.33490172,-0.27219424,9.832966
82120779596367,0.40466627,-0.15241674,9.744987
82120799452624,0.3170314,-0.10230773,9.687686
82120819308879,0.27129576,-0.17268138,9.71604
82120839164763,0.34599766,-0.22494064,9.850794
82120859021020,0.39719725,-0.13937734,9.811244
82120878877275,0.35141054,-0.14823757,9.780919
82120898733531,0.30257937,-0.15882549,9.823764
82120918589788,0.34103373,-0.16475852,9.823135
82120938445409,0.39659825,-0.21389256,9.852137
82120958301410,0.32893822,-0.29525208,9.73167
82120978157539,0.29644638,-0.22897962,9.77611
82120998013668,0.27194107,-0.1990783,9.734252
82121017876679,0.33577973,-0.17728095,9.825094
82121037732808,0.23812169,-0.15322872,9.794753
82121057589059,0.123846784,-0.114768445,9.757993
82121077445315,0.14369492,-0.15492308,9.744576
82121097301444,0.22979724,-0.21187633,9.837059
82121117157699,0.20787074,-0.18485716,9.771786
82121137015199,0.14533703,-0.10442492,9.679484
82121156871584,0.19588579,-0.17133899,9.690962
82121176727841,0.35203356,-0.2146121,9.789504
82121196584098,0.3751695,-0.10620731,9.812846
82121216440483,0.24209104,-0.09232746,9.800178
82121236292932,0.29468226,-0.271333,9.816358
82121256149061,0.43384317,-0.26217598,9.826593
82121276005318,0.35685295,-0.1823513,9.776942
82121295861447,0.25435805,-0.15845846,9.746927
82121315714386,0.28361902,-0.19909711,9.788947
82121335570515,0.3688782,-0.17601667,9.701936
82121355426644,0.3539748,-0.16406049,9.754319
82121375282773,0.28511387,-0.09024559,9.8567295
82121395138902,0.21966982,-0.22758844,9.878
82121414995031,0.3773932,-0.3258738,9.836789
82121434854676,0.3756911,-0.18645588,9.738014
82121454710933,0.22290958,-0.04125147,9.717141
82121474567062,0.22798645,-0.16328056,9.823967
82121494423319,0.33605036,-0.2248969,9.74646
82121514279448,0.29989582,-0.14765452,9.727304
82121534143969,0.20082344,-0.14496985,9.787968
82121554000354,0.2523804,-0.19758268,9.795919
82121573856739,0.3700958,-0.19617529,9.773462
82121593713124,0.26772583,-0.156718,9.749676
82121613569489,0.14851803,-0.13518576,9.726404
82121633425874,0.23360461,-0.19668072,9.764243
82121653274755,0.36149293,-0.24051253,9.843233
82121673131012,0.32804996,-0.093156,9.78257
82121692987269,0.18684715,-0.0599831,9.7813835
82121712843526,0.2722966,-0.2569165,9.789301
82121732697578,0.39847913,-0.2127723,9.7754345
82121752553707,0.3551183,-0.056067593,9.754389
82121772409962,0.2062615,-0.13801333,9.749166
82121792266090,0.2583897,-0.21242343,9.719663
82121812122219,0.32868508,-0.178435,9.746132
82121831977371,0.3104189,-0.18312716,9.777637
82121851833499,0.27049384,-0.12800825,9.759876
82121871689756,0.24915205,-0.106796846,9.742088
82121891545883,0.27569553,-0.19479956,9.770745
82121911402011,0.29847273,-0.22608283,9.771892
82121931258140,0.31144726,-0.10267537,9.698749
82121951116090,0.23934788,-0.15589088,9.805038
82121970972218,0.35078228,-0.21930136,9.798533
82121990828475,0.39799947,-0.1321912,9.868338
82122010684730,0.3867257,-0.09740462,9.826253
82122030542528,0.2722628,-0.112190224,9.757708
82122050398913,0.32105806,-0.18557142,9.736263
82122070255168,0.38588428,-0.24269135,9.745406
82122090111424,0.3542786,-0.10852863,9.729062
82122109967681,0.28455627,-0.058954015,9.762169
82122129824064,0.36504316,-0.21022697,9.779525
82122149680923,0.45635155,-0.20764521,9.865615
82122169537180,0.36131877,-0.05351418,9.888337
82122189393437,0.2527299,-0.071561605,9.862816
82122209249694,0.28088441,-0.18491665,9.734403
82122229105951,0.3617083,-0.23215282,9.737001
82122248967328,0.3325535,-0.161037,9.813007
82122268823713,0.2749182,-0.07248289,9.712195
82122288679970,0.24587204,-0.1730362,9.750233
82122308536355,0.3392094,-0.27883965,9.808884
82122328394660,0.3795417,-0.14949135,9.810796
82122348251045,0.25140524,-0.10789124,9.795473
82122368107430,0.22821695,-0.2564262,9.787902
82122387963687,0.3272632,-0.22994035,9.755905
82122407820072,0.34540522,-0.15676261,9.78677
82122427676457,0.2681241,-0.14730485,9.784125
82122447527660,0.27248642,-0.21425943,9.742562
82122467383917,0.34403756,-0.21189967,9.822591
82122487240174,0.33267096,-0.1787565,9.785257
82122507096431,0.32178912,-0.105700046,9.800573
82122526952688,0.30567774,-0.1292909,9.729375
82122546806161,0.3419327,-0.22495972,9.787514
82122566662418,0.42672014,-0.18949679,9.7639885
82122586518675,0.27453008,-0.048491072,9.681374
82122606374804,0.2199124,-0.1690435,9.709748
82122626226668,0.3439991,-0.24368556,9.816871
82122646082925,0.4398799,-0.13414909,9.841833
82122665939054,0.30721942,-0.04190763,9.875158
82122685795311,0.23008305,-0.20603535,9.784511
82122705651440,0.35022613,-0.2800083,9.693132
82122725507697,0.3957571,-0.17178242,9.7318
82122745355726,0.33738932,-0.04158139,9.723603
82122765211727,0.25571233,-0.008714221,9.680315
82122785067721,0.34580737,-0.13201854,9.763879
82122804923721,0.41294962,-0.16432755,9.775097
82122824779722,0.31238347,-0.07901031,9.80009
82122844631790,0.2720342,-0.16422345,9.817078
82122864487662,0.34918422,-0.2532947,9.81222
82122884343535,0.40578875,-0.131924,9.787873
82122904199534,0.21943131,-0.11043355,9.875452
82122924055406,0.27319533,-0.20075433,9.706925
82122943911407,0.3125892,-0.15621507,9.758826
82122963759495,0.49764448,-0.16739479,9.814371
82122983615239,0.22669199,-0.07633481,9.681308
82123003470984,0.25950325,-0.11753388,9.675738
82123023326727,0.3815266,-0.21815689,9.837087
82123043191389,0.4550795,-0.15407187,9.88222
82123063047262,0.344459,0.023344943,9.773511
82123082903133,0.16308586,-0.109235436,9.716011
82123102759005,0.27273533,-0.2699523,9.7361555
82123122614878,0.4823268,-0.14683998,9.83982
82123142478416,0.31899258,-0.055943467,9.789626
82123162334544,0.1536542,-0.16492164,9.766663
82123182190545,0.3293474,-0.16923715,9.749999
82123202046544,0.373897,-0.13968115,9.797693
82123221902672,0.34109426,-0.1084299,9.730297
82123241758673,0.22043341,-0.07235265,9.750186
82123261614191,0.24891764,-0.19381057,9.818874
82123281470191,0.4396859,-0.14970839,9.852578
82123301326192,0.36511952,-0.0062135616,9.78894
82123321182193,0.17768337,-0.032118697,9.7343645
82123341040314,0.24611914,-0.20293152,9.743317
82123360896315,0.42043054,-0.15913069,9.732209
82123380752316,0.35015002,-0.105829544,9.8614645
82123400608317,0.19168366,-0.084874354,9.8131695
82123420464318,0.26796833,-0.059885193,9.762554
82123440328041,0.42609292,-0.12116685,9.817398
82123460184170,0.35337764,-0.08299843,9.829664
82123480040299,0.27106765,-0.052701466,9.720227
82123499896428,0.28126767,-0.14202657,9.793495
82123519752557,0.3679306,-0.14156827,9.746524
82123539608686,0.32377058,-0.0058065876,9.786659
82123559475237,0.1882198,0.007821497,9.796935
82123579331494,0.21059582,-0.124178566,9.732398
82123599187879,0.4065097,-0.20472382,9.900983
82123619044264,0.37538463,-0.09102965,9.85932
82123638899455,0.18919693,-0.07347428,9.739573
82123658755712,0.13698815,-0.14218159,9.672863
82123678611969,0.2618009,-0.1785577,9.777739
82123698468354,0.32381493,-0.079069965,9.757696
82123718324611,0.17053303,-0.053806067,9.75198
82123738180996,0.16516127,-0.16300994,9.809756
82123758047544,0.28008774,-0.19423755,9.823171
82123777904057,0.3218527,-0.109708175,9.785282
82123797760696,0.18742572,-0.0894103,9.795039
82123817617208,0.22221448,-0.13629572,9.773928
82123837473721,0.30574805,-0.10532537,9.804253
82123857329044,0.2670822,-0.118682675,9.753327
82123877185684,0.17727993,-0.16213413,9.679367
82123897042325,0.23906559,-0.14580347,9.713659
82123916898964,0.34260163,-0.13848232,9.8918495
82123936761920,0.37991694,-0.11631355,9.875465
82123956618817,0.24916099,-0.08315235,9.651037
82123976475712,0.22237912,-0.1505125,9.789475
82123996332608,0.3547089,-0.14467558,9.874037
82124016189377,0.39766088,-0.022466423,9.774256
82124036046272,0.21537979,-0.07046499,9.743844
82124055904863,0.25226316,-0.22046027,9.628987
82124075761888,0.35889405,-0.09236486,9.81614
82124095618783,0.45575315,0.024115836,9.88674
82124115475679,0.25535798,-0.084106214,9.810136
82124135332576,0.3169151,-0.1609222,9.767512
82124155190721,0.34862295,-0.14085941,9.812243
82124175047745,0.38853583,-0.07090978,9.719926
82124194904642,0.28333387,-0.022762937,9.7512865
82124214761665,0.24678685,-0.09548139,9.784338
82124234615082,0.3730033,-0.15455924,9.867919
82124254471979,0.4679415,-0.040157314,9.8543625
82124274328874,0.21458279,-0.020754589,9.833069
82124294185898,0.17763257,-0.16601457,9.781948
82124314042795,0.306768,-0.14784667,9.713859
82124333899690,0.30459595,-0.08867962,9.730282
82124353750075,0.26520795,-0.10476778,9.721845
82124373606716,0.2216415,-0.01609983,9.723524
82124393463485,0.26093656,-0.05744919,9.862307
82124413320254,0.42091408,-0.08062864,9.825933
82124433177023,0.3529563,0.024396941,9.847741
82124453021236,0.22022091,3.80455E-4,9.88908
82124472877749,0.21472025,-0.18006326,9.80877
82124492734262,0.43212244,-0.11831811,9.705431
82124512590775,0.30741632,-0.0373332,9.736144
82124532436330,0.23117284,-0.08131401,9.74219
82124552292459,0.32149634,-0.09522682,9.797117
82124572148588,0.41543725,-0.027870035,9.866472
82124592004845,0.28343323,0.0112145785,9.805841
82124611860974,0.29345262,0.007209049,9.853723
82124631717231,0.32322025,-0.05408934,9.903702
82124651564760,0.37924805,-0.08463764,9.796941
82124671420761,0.35882327,-0.020675272,9.811116
82124691276762,0.29512623,-0.03903373,9.934079
82124711132763,0.30004743,-0.08230652,9.955546
82124730988764,0.47248313,-0.019803287,9.970933
82124750843787,0.37786418,0.077131525,9.984625
82124770699787,0.2954861,0.009703931,9.955259
82124790555788,0.36996812,-0.054937687,9.906269
82124810411659,0.45442393,-0.029563364,10.042419
82124830267659,0.35853288,0.0019340299,9.881728
82124850123660,0.33177772,0.0030300347,9.789902
82124869959338,0.34851214,-0.07355302,10.095744
82124889814826,0.4108285,0.015873345,9.950168
82124909670315,0.4230084,0.03628465,9.728225
82124929525930,0.3435346,-0.047358967,9.981829
82124949382529,0.20320243,-0.09905946,10.090979
82124969238018,0.48773766,-0.015719362,9.7533245
82124989093505,0.51443225,0.024366405,9.851467
82125008948865,0.28424558,-0.038262594,9.991471
82125028804354,0.2529635,0.02198937,9.882887
82125048670366,0.5570004,0.006058304,10.06101
82125068525982,0.5589243,0.005043634,9.932577
82125088381599,0.35938588,0.027511243,9.67311
82125108237214,0.40892202,0.001685142,10.113018
82125128092830,0.4135491,-0.021007933,10.171193
82125147948447,0.493943,0.09356103,9.630077
82125167810426,0.42028844,0.05166972,9.899626
82125187666170,0.3451282,-0.046587083,10.108643
82125207521915,0.3616923,0.09796972,9.81494
82125227377658,0.47771886,0.06270843,9.910457
82125247232772,0.471493,-0.073320046,9.952685
82125267088517,0.49580407,0.045068216,9.981479
82125286944260,0.634613,0.18803255,10.1773815
82125306799876,0.68885946,0.01011453,9.979661
82125326655621,0.6757321,-0.00770213,9.861925
82125346521927,0.7256306,0.1134148,10.238411
82125366377799,-1.0410306,-1.14428,10.024149
82125386233800,-1.0542911,-1.065621,9.607493
82125406089673,-0.9553242,-1.1467907,9.766683
82125425945674,-0.9047038,-1.1806506,9.977314
82125445801675,-0.718688,-1.0196002,9.828842
82125465663540,-0.57718056,-0.94209653,9.919439
82125485519541,-0.6238773,-0.98756,10.122317
82125505375542,-0.49114797,-1.0027398,10.041574
82125525231543,-0.22154538,-0.9667477,10.132729
82125545095858,0.13212992,-0.91058046,10.208966
82125564951987,0.59850645,-0.64982116,10.263065
82125584808244,-0.12604131,-0.63785696,10.731573
82125604664373,-0.81187963,-1.0309669,11.765117
82125624520630,-0.87901556,-0.71828496,11.365941
82125644376759,0.12461519,-0.5016102,10.972645
82125664241086,0.62317145,-0.60243416,10.274669
82125684097599,-0.43813956,-0.40831956,9.580056
82125703953984,0.14239402,-0.69683427,9.590047
82125723810369,0.11712485,-0.5270078,9.818789
82125743666735,0.35262716,0.09873299,9.729803
82125763530086,1.2956315,-0.4166898,9.712663
82125783386726,0.60170394,-0.892607,10.106292
82125803243238,-0.04384021,-0.5714401,9.965436
82125823099878,0.055932008,-0.38149083,9.58125
82125842956518,0.49000436,-1.1260225,9.598778
82125862815054,0.6771109,-1.5721197,9.606026
82125882671822,0.021219153,-1.0651921,9.540146
82125902528462,0.49477398,-0.8452692,9.397873
82125922385230,0.6578818,-1.0396075,9.092623
82125942241998,0.8304076,-1.2527452,9.406474
82125962102765,1.055693,-0.8273932,9.293608
82125981959789,1.0487297,-0.8728544,9.10724
82126001816685,0.8652313,-0.77331305,9.015023
82126021673581,1.3528748,-0.46532685,9.39384
82126041530477,1.620639,-0.07828792,9.929852
82126061385485,1.6017053,-0.13619743,9.883161
82126081242381,1.5648234,-0.23938589,9.826793
82126101099277,1.7786069,-0.5395519,9.596736
82126120956045,2.0226874,-1.0201248,9.60647
82126140812941,1.75508,-1.1694024,9.853356
82126160672355,1.6446847,-1.1450571,9.878157
82126180529379,2.461794,-1.5393745,10.095444
82126200386275,4.5399423,-4.1890306,8.824723
82126220243300,3.6735656,-4.6965165,8.922631
82126240100197,2.8350012,-4.837875,9.446037
82126259958440,2.4215298,-4.6220922,11.228502
82126279815337,3.4105139,-3.4441042,13.923118
82126299672362,2.193152,0.4749962,11.519366
82126319529387,-0.9627061,-1.1002909,7.302617
82126339386284,-2.2165515,-3.2915146,6.7796593
82126359243197,0.5297262,-3.285185,7.552033
82126379100222,-0.5984402,-2.3949926,8.1612835
82126398957247,-1.9731473,-0.4736152,9.521012
82126418814272,-3.4597278,0.9161769,9.525776
82126438671297,-3.0171552,2.1813674,10.113844
82126458510848,-2.4004858,2.2156568,10.154778
82126478367361,-3.2663949,1.07379,10.492166
82126498223874,-3.043365,0.74511254,10.739308
82126518080515,-2.326726,0.506703,9.531773
82126537937028,-4.0371904,0.84176886,7.9596267
82126557787987,-4.42366,1.8535448,7.0941296
82126577644500,-1.4245789,0.9912545,8.769296
82126597500885,-1.6704826,0.010889462,9.3084755
82126617357270,-1.2733454,0.018097583,9.0919895
82126637213783,-1.057824,0.7681582,9.502766
82126657059466,-1.867156,1.1131831,9.416145
82126676915702,-2.966357,1.0225189,8.20556
82126696771959,-2.1441383,0.863654,7.6967278
82126716628216,-0.58707315,0.25394025,8.887889
82126736484342,2.4182274,1.1181797,9.276673
82126756338191,1.2337816,1.5304942,9.31675
82126776194447,1.4565251,1.6213275,9.301724
82126796050575,0.9715194,2.1213577,9.962681
82126815906703,-0.6686483,3.0015998,11.171693
82126835762831,-1.0124958,3.9241052,11.419624
82126855609475,-0.14469713,3.4478445,11.76457
82126875465347,0.6671607,2.2660434,13.721949
82126895321219,1.096461,0.7216538,15.368092
82126915177091,3.029543,0.38566658,13.793202
82126935032963,4.588966,-1.3860393,12.0456295
82126954890402,2.1001406,-3.7247427,12.304714
82126974746274,0.1647614,-5.2436237,13.612153
82126994602146,5.4249043,-7.021069,14.436956
82127014458018,8.512807,-1.8319948,12.213894
82127034313890,5.257882,0.9688969,9.775077
82127054169148,-1.0151614,-1.6624651,9.59642
82127074023065,-3.1619205,2.524898,6.9391203
82127093878809,-3.0649254,7.480467,4.206358
82127113734681,-0.91825145,6.660954,5.102221
82127133590553,0.44181123,1.9769194,6.698592
82127153446425,0.2045149,0.12119838,5.688239
82127173304054,-1.4519457,-0.8061159,4.628456
82127193159925,-3.1684513,0.38779658,4.082611
82127213015797,-4.407601,0.18183905,4.935014
82127232871669,-3.2917283,-0.27836296,6.53971
82127252727541,-1.6643643,-0.5783053,7.2543135
82127272589172,-0.7693439,-0.5363419,7.5329285
82127292445172,-0.24558611,-1.080167,9.088768
82127312301173,0.13589853,-3.3104653,13.731049
82127332157046,2.1252902,-4.887151,19.24439
82127352013047,5.603039,-3.290814,16.84193
82127371867846,2.544958,-2.8863778,11.397555
82127391723714,-2.9963253,-4.177064,8.037383
82127411579714,-3.687318,-2.7265418,6.504545
82127431435586,-2.1728346,2.0578735,10.313635
82127451291586,9.445875,7.927901,15.650343
82127471149646,14.829119,16.880487,15.865248
82127491005518,-2.1167784,3.275752,7.2638054
82127510861518,-1.6706973,3.663008,3.351771
82127530717390,3.721554,4.031284,6.684778
82127550573390,4.564773,2.0616043,10.547578
82127570437935,6.380339,-1.3065053,11.52061
82127590293935,4.4123626,-6.2793384,9.376362
82127610150063,2.2278857,-6.72145,8.701603
82127630006191,-0.8418718,-1.2025629,7.738101
82127649862319,-1.758991,4.5460258,7.7757545
82127669716618,0.3011641,-0.3428772,9.41146
82127689572618,0.70499307,0.35531795,10.625926
82127709428618,0.33845773,-0.23955728,9.13619
82127729284746,-0.62632453,0.09166031,9.46892
82127749140746,-1.9545729,2.479772,10.474736
82127769006584,-1.4485819,-0.48531395,9.740392
82127788862840,-0.74887455,1.258349,8.406912
82127808719097,0.27632034,4.075544,8.417867
82127828575354,0.26045635,2.5238702,9.880093
82127848431736,0.38242173,2.462495,9.971069
82127868280093,0.4471521,3.5596304,10.25806
82127888136349,-0.47628888,3.5496678,11.128723
82127907992605,-1.1443514,4.330573,11.571966
82127927848861,-2.163442,4.674907,11.044869
82127947704989,-2.5306551,2.5720124,11.417499
82127967565963,-2.5435724,1.3569193,12.575991
82127987422347,-0.9835823,0.5010535,14.645764
82128007278731,0.6677403,0.3273584,13.601446
82128027135115,-1.3066471,3.8491974,10.699459
82128046991499,0.38291842,5.161687,10.612067
82128066852602,5.1445913,2.429813,14.790953
82128086708986,9.230092,4.09916,15.79285
82128106565498,3.6520135,5.0705953,12.036664
82128126421882,-0.26042077,4.4323955,10.066792
82128146278394,2.8983672,-0.6779313,10.220178
82128166135461,2.466844,-3.8064125,8.958791
82128185991973,0.67078024,-4.425339,6.6733327
82128205848357,-0.71573967,-5.418876,5.941158
82128225704869,-1.4783096,-3.824857,6.186546
82128245561381,-1.5410659,-1.4437566,5.1109123
82128265418659,-1.237387,0.56454176,3.0751696
82128285275043,1.3222444,2.435452,2.5781057
82128305131555,3.4041657,1.3285017,2.8549378
82128324987939,1.961469,0.4281545,3.823215
82128344844451,1.0180979,0.03589437,5.1119246
82128364701962,0.5522115,0.43490654,8.93507
82128384558474,-1.4952536,5.7687607,18.3245
82128404414986,-7.3503523,14.40483,19.30846
82128424271499,-9.334049,8.453949,12.682892
82128444128012,-1.7514439,4.0153832,10.880613
82128463980281,3.9080672,0.74601823,14.827926
82128483836666,4.31545,-6.1728554,13.78089
82128503693051,5.706123,-4.0552216,5.227501
82128523549436,6.5794463,7.248365,1.0536401
82128543405821,4.879052,8.439125,5.281394
82128563261958,4.023988,-3.4652927,14.145996
82128583118343,1.7623683,-6.423005,14.464994
82128602974728,-2.0496864,-5.1004643,11.721488
82128622831113,-2.3348234,-3.9492862,11.563603
82128642687626,-2.8283508,-2.8781574,10.602396
82128662532563,-2.612078,5.8410425,9.105226
82128682388692,0.39694613,3.2863815,10.620832
82128702244821,-1.4538506,-3.0114202,9.682734
82128722100950,-0.86949795,-1.0610924,8.425272
82128741957079,1.0415196,1.8034142,9.097224
82128761803552,0.6403005,1.845399,8.884451
82128781659424,-0.10072023,1.3916088,8.239732
82128801515424,-0.55436945,3.5786536,8.95822
82128821371296,-1.4257127,3.5943058,9.21083
82128841227296,-2.5792103,0.1638976,8.325948
82128861073935,-0.7942841,2.577315,8.811634
82128880929679,0.36066395,4.2888117,9.79154
82128900785423,-0.4641452,2.2505932,10.504636
82128920641167,-2.0654304,0.5879206,11.203889
82128940497039,0.07084715,3.0028822,13.15977
82128960349752,3.269003,3.92572,13.823804
82128980205368,4.808173,1.3190637,12.59717
82129000061112,4.0148773,-0.7207032,11.017992
82129019916728,2.8781307,-2.2238677,10.093738
82129039772344,3.524825,-2.27082,10.570653
82129059631637,0.9347548,-2.8398383,10.959197
82129079487381,-3.1802979,-3.4849548,10.352455
82129099342997,-2.5437438,-0.63454324,10.894389
82129119198741,-0.41335425,0.74150336,10.3958025
82129139054485,0.92878866,-0.38874376,9.56178
82129158915264,1.6687351,-1.498973,8.834536
82129178771009,1.4561745,-1.99988,7.5284033
82129198626882,1.2979723,-1.6059515,7.1534257
82129218482752,1.1037554,-1.2784505,7.1970015
82129238338496,1.0226277,-0.85535526,6.421336
82129258193606,-0.08230333,-0.9406091,6.418817
82129278049350,-0.93721896,-0.73865914,6.854889
82129297905222,-0.6129517,-0.3243678,7.708323
82129317760966,-1.4073303,2.2066286,10.516096
82129337616710,0.5797657,7.1534643,12.025197
82129357474033,1.8380637,6.5511117,11.046766
82129377329778,0.36663812,2.9346552,9.045917
82129397185651,-0.13291137,1.4372389,8.10457
82129417041524,0.44416368,0.8520709,8.266273
82129436897397,0.80594283,0.21726502,8.786603
82129456755500,1.3614835,-0.015034568,10.178028
82129476611245,2.011532,0.29745835,11.378215
82129496467118,2.0398622,1.0809617,10.948621
82129516322863,0.45619708,0.86624616,10.2256565
82129536178608,-0.69112086,0.35009608,10.481902
82129556034353,-1.2177647,-0.2694053,11.161682
82129575893516,-1.3180366,-0.77862823,11.656235
82129595749261,-1.302938,-0.5507893,10.669082
82129615605134,-1.4979985,-0.4798081,10.031837
82129635460879,-0.64757127,-0.045697667,10.234618
82129655316752,-0.56698644,0.037120603,10.164293
82129675179451,-1.1211867,-0.4377963,10.189202
82129695035452,-0.79252833,-0.6845301,10.333483
82129714891325,0.12591816,-0.44219834,9.676029
82129734747326,0.39865327,-0.27493823,9.075814
82129754603327,-0.015460817,0.03103982,9.3073
82129774464291,-0.68308085,0.21429117,9.870323
82129794320419,-0.9713884,0.03771501,9.633137
82129814176547,-1.2046376,-0.25239864,10.1438465
82129834032547,-0.73851764,-0.0570541,9.868336
82129853888675,-0.035778318,0.5542255,9.772752
82129873747954,-0.1204199,0.8194176,10.126634
82129893604210,-0.28791133,0.48719728,10.035405
82129913460466,0.43645066,0.947127,9.839158
82129933316722,-0.13487837,0.5712926,9.765736
82129953172850,-0.9143975,-0.2415796,9.64048
82129973036506,-0.867164,-0.56073374,9.903688
82129992892890,-0.1342603,-0.34681973,10.729546
82130012749402,0.42517513,0.16413437,10.164501
82130032605786,0.830785,0.7410085,9.592227
82130052462170,0.6830011,0.933332,9.748313
82130072328966,-0.53529453,0.20230763,9.649177
82130092185734,-1.7723166,-0.83666563,9.640707
82130112042374,-1.9952465,-1.4183967,9.221163
82130131899142,-0.86568236,-0.36617115,9.385075
82130151755782,0.11639585,0.85420966,9.83191
82130171612465,0.27391246,1.2762944,9.930687
82130191469233,0.09650764,1.1555159,9.9079
82130211326002,-0.11871647,0.50172704,9.750277
82130231182769,-0.293643,0.14311123,9.66758
82130251039537,-0.65508246,-0.109551676,9.631604
82130270904515,-0.53947973,-0.2658224,9.457825
82130290761411,0.0911082,0.5148747,9.581064
82130310618435,0.33922425,0.7785674,9.870566
82130330475331,-0.051372867,0.4474596,9.588075
82130350332228,-0.44281444,0.32937896,9.481971
82130370187965,-0.62990135,0.4477737,9.636471
82130390044990,-0.5124009,0.43985495,9.700024
82130409901887,-0.40689537,0.28003055,9.614294
82130429758784,-0.23258057,0.35168132,9.652219
82130449615681,-0.07024827,0.45212054,9.650901
82130469457698,-0.0024891116,0.33902916,9.595923
82130489314339,0.023351958,0.20474623,9.565535
82130509170852,-0.027289517,0.16924687,9.5666485
82130529027493,-0.09723374,0.22929092,9.618604
82130548884006,-0.075341545,0.3778676,9.684371
82130568736905,-2.3749401E-4,0.4208785,9.72164
82130588593418,0.018453302,0.35953975,9.651642
82130608449931,-0.072432235,0.28909194,9.701234
82130628306316,-0.19766545,0.32615864,9.76184
82130648162829,-0.25420943,0.40028164,9.682198
82130668012064,-0.16906027,0.3898384,9.703351
82130687868449,-0.07374284,0.3502439,9.695483
82130707724834,-0.09382873,0.26627514,9.674952
82130727581091,-0.12995373,0.25194156,9.599607
82130747437476,-0.18321809,0.24066323,9.604527
82130767292439,-0.14648178,0.24101625,9.725557
82130787148803,-0.16711721,0.24760784,9.803755
82130807005187,-0.13391754,0.2671186,9.703406
82130826861443,-0.053539995,0.24193159,9.621324
82130846717827,-0.049215436,0.18032615,9.673263
82130866571255,-0.078298956,0.2609068,9.675726
82130886427511,-0.3142342,0.29843026,9.6791935
82130906283767,-0.3386962,0.22672851,9.670088
82130926140023,-0.108433455,0.23541835,9.683233
82130945996279,-0.06050434,0.29510143,9.644648
82130965852834,-0.21634977,0.22421996,9.599074
82130985709090,-0.2796441,0.11584309,9.630336
82131005565218,-0.2894557,0.2249535,9.643723
82131025421474,-0.32009536,0.3249544,9.622803
82131045277730,-0.3109658,0.3248912,9.661072
82131065134371,-0.18694268,0.33058032,9.685553
82131084990627,-0.17808785,0.29054037,9.704428
82131104846883,-0.2755883,0.3213749,9.679568
82131124703139,-0.35242814,0.3390355,9.651678
82131144559523,-0.27749038,0.2765168,9.65234
82131164412241,-0.24270797,0.29388756,9.656756
82131184268497,-0.3310438,0.2971064,9.629356
82131204124753,-0.30219647,0.35161307,9.691883
82131223980882,-0.28297433,0.35080546,9.762301
82131243837137,-0.21414575,0.31587657,9.731257
82131263694709,-0.21869758,0.32285747,9.690832
82131283550965,-0.30805665,0.25434494,9.721578
82131303407093,-0.31024116,0.16630283,9.689543
82131323263349,-0.25688252,0.057890363,9.635054
82131343119605,-0.14413697,0.11976237,9.635214
82131362974496,-0.13393462,0.21142827,9.631837
82131382830625,-0.15547362,0.24569412,9.605122
82131402686754,-0.12875508,0.27004308,9.662261
82131422543011,-0.12862444,0.2937481,9.687837
82131442399140,-0.17777042,0.29787207,9.663183
82131462252353,-0.23655741,0.31514454,9.718348
82131482108482,-0.26522052,0.29770055,9.6916
82131501964483,-0.20401919,0.27196828,9.684187
82131521820612,-0.15941192,0.2935648,9.66798
82131541676613,-0.2182358,0.35303378,9.660707
82131561533424,-0.2629982,0.304977,9.627428
82131581389553,-0.25845322,0.2369953,9.662604
82131601245554,-0.29083988,0.17619582,9.72002
82131621101683,-0.20446645,0.2240876,9.718251
82131640957684,-0.17843856,0.343908,9.631733
82131660820681,-0.25522435,0.30520535,9.67921
82131680676938,-0.22359486,0.21211626,9.659919
82131700533195,-0.32719544,0.21628939,9.669138
82131720389452,-0.32140306,0.2656191,9.688877
82131740245691,-0.18738893,0.26195824,9.656486
82131760099861,-0.18454097,0.25177467,9.670788
82131779956117,-0.23438813,0.29039288,9.672261
82131799812245,-0.27140096,0.2565937,9.6713295
82131819668501,-0.25593603,0.22846942,9.701702
82131839524629,-0.2554717,0.2505641,9.73512
82131859387090,-0.21351175,0.21822713,9.722596
82131879243474,-0.22167479,0.18440408,9.668795
82131899099986,-0.20906904,0.2170124,9.709198
82131918956370,-0.20523533,0.25651053,9.813214
82131938812754,-0.22867256,0.36018944,9.863243
82131958670267,-0.26615408,0.43320632,9.738804
82131978526651,-0.18496259,0.37279624,9.655202
82131998383163,-0.16322708,0.31862876,9.708841
82132018239675,-0.2593862,0.39757192,9.765381
82132038096187,-0.25371212,0.41642305,9.834781
82132057954784,-0.16742855,0.39378923,9.791208
82132077811296,-0.1505236,0.5275769,9.787685
82132097667680,-0.18102276,0.54838496,9.85806
82132117524193,-0.29275596,0.44543353,9.837346
82132137380706,-0.42801857,0.45840263,9.794699
82132157239874,-0.38003483,0.40309322,9.773105
82132177096386,0.0064065526,0.35319895,9.644209
82132196953026,0.29248387,0.37943366,9.602488
82132216809538,0.22234924,0.28882718,9.7457285
82132236666050,0.0077200523,0.20993426,9.777481
82132256517905,-0.322943,0.36516142,9.683545
82132276374289,-0.509291,0.49532643,9.709734
82132296230674,-0.5888159,0.4446589,9.861188
82132316087187,-0.5907034,0.2553412,9.947411
82132335943572,-0.30042413,0.14477274,9.808252
82132355798469,0.05450848,0.28897175,9.678326
82132375654854,0.089370444,0.41693947,9.713385
82132395511239,0.010195896,0.43961743,9.760713
82132415367624,-0.05681006,0.4750936,9.765425
82132435224009,-0.23377356,0.5107515,9.726816
82132455080394,-0.34611744,0.41714936,9.7737665
82132474927091,-0.29414272,0.39591053,9.758539
82132494783348,-0.30476168,0.60614586,9.707063
82132514639477,-0.27897948,0.58731204,9.8089075
82132534495734,-0.1225149,0.3815466,9.754509
82132554351863,-0.13401839,0.3984426,9.785102
82132574205272,-0.12914874,0.53007203,9.807984
82132594061401,-0.1360444,0.44080785,9.768442
82132613917530,-0.1582063,0.4167242,9.758784
82132633773659,-0.10731868,0.47040847,9.811645
82132653629788,-0.21307333,0.43651664,9.698722
82132673481477,-0.25070372,0.42601746,9.766122
82132693337606,-0.12953742,0.38756993,9.838165
82132713193607,-0.041412707,0.43349352,9.860564
82132733049736,-0.091706306,0.4275366,9.778193
82132752905844,-0.12866983,0.32428044,9.746321
82132772757543,-0.16359305,0.2618001,9.754196
82132792613414,-0.15268245,0.36251688,9.757945
82132812469414,-0.13216162,0.39240244,9.773833
82132832325414,-0.08971848,0.33932373,9.785518
82132852181286,-0.072996,0.31677625,9.78821
82132872034115,-0.10779511,0.35705814,9.804267
82132891890115,-0.1564498,0.3781244,9.781492
82132911745987,-0.19207524,0.28249958,9.721017
82132931601859,-0.104358956,0.2585119,9.708046
82132951457731,-0.037202362,0.34567106,9.784123
82132971316590,-0.025356734,0.41543484,9.779497
82132991172590,-0.09673467,0.3493848,9.764633
82133011028462,-0.08801508,0.238638,9.797076
82133030884334,-0.07240143,0.28860274,9.784682
82133050740334,-0.05619702,0.34868878,9.765789
82133070589901,-0.020944001,0.339063,9.769907
82133090445645,-0.056018148,0.3047484,9.692522
82133110301389,-0.08514827,0.37536618,9.762434
82133130157133,-0.07631302,0.4346272,9.8482895
82133150012877,-0.17431816,0.44695154,9.800719
82133169868976,-0.14946085,0.38932592,9.760977
82133189724721,-0.035242353,0.35619602,9.774802
82133209580335,-0.06168422,0.50573176,9.814971
82133229436079,-0.103361875,0.49235272,9.8085785
82133249291823,-0.16831039,0.3357846,9.724666
82133269152807,-0.15200517,0.31395665,9.72544
82133289008679,-0.04826858,0.45925528,9.876743
82133308864551,-0.0073920866,0.60367125,9.811032
82133328720296,-0.08531555,0.5382902,9.692599
82133348576169,-0.07733905,0.39029887,9.765274
82133368432412,-0.050575178,0.4799846,9.790031
82133388288285,-0.0730466,0.5671031,9.733668
82133408144030,-0.07773521,0.44939026,9.731895
82133427999903,-0.039935328,0.32218838,9.820742
82133447855648,0.04057159,0.4121702,9.780769
82133467715379,-0.02759837,0.44711125,9.770057
82133487571252,-0.088524304,0.38726273,9.821726
82133507427125,-0.12811029,0.3965649,9.845882
82133527282998,-0.04929617,0.4528181,9.836784
82133547138871,-0.016337907,0.43629372,9.811436
82133566997882,-0.12788069,0.3579771,9.780143
82133586853883,-0.117589206,0.2793704,9.756515
82133606709756,-0.09559885,0.2608653,9.775221
82133626565629,-0.094448745,0.33736682,9.733635
82133646421630,-0.13494006,0.2827069,9.775001
82133666284733,-0.16488922,0.25421217,9.772514
82133686140862,-0.136897,0.3406087,9.824773
82133705996991,-0.09206238,0.27865344,9.840181
82133725853120,-0.089339636,0.27126542,9.792871
82133745709229,-0.03632507,0.38009855,9.780018
82133765572732,-0.06782713,0.38109455,9.791501
82133785428988,-0.14366078,0.31889823,9.826324
82133805285372,-0.20377731,0.31879452,9.753528
82133825141628,-0.21655367,0.34316552,9.687081
82133844997884,-0.19269654,0.29182345,9.76108
82133864860583,-0.13602667,0.232503,9.80348
82133884717095,-0.06790116,0.28243637,9.768941
82133904573607,-0.04928735,0.33753356,9.719959
82133924429991,-0.09594555,0.34089115,9.738018
82133944286503,-0.19857447,0.34226072,9.772003
82133964150520,-0.1342836,0.34561443,9.847003
82133984007160,-0.07690462,0.35127926,9.80388
82134003863928,-0.079354234,0.35253814,9.76262
82134023720568,-0.056562494,0.3466148,9.808614
82134043577336,-0.031797092,0.29353294,9.795469
82134063429865,0.00547756,0.33139184,9.7302065
82134083286505,0.054020345,0.4127996,9.780895
82134103143145,-0.060204603,0.3916563,9.763344
82134122999785,-0.10226829,0.3028369,9.819187
82134142856425,-0.08094024,0.29786813,9.800935
82134162715638,-0.06561354,0.34154886,9.743734
82134182572278,-0.009109063,0.33325583,9.8346195
82134202429046,-0.025242435,0.31230766,9.82616
82134222285686,-0.036427718,0.32489255,9.762434
82134242142454,0.0011919986,0.3579538,9.768819
82134262000447,-0.06385932,0.39017874,9.792894
82134281857087,-0.16579413,0.36590394,9.719306
82134301713856,-0.12859821,0.2974724,9.735972
82134321570497,-0.023091722,0.33264792,9.814265
82134341427266,-0.026566995,0.38526714,9.791647
82134361285503,-0.06912632,0.34946322,9.77094
82134381142272,-0.071262136,0.28762382,9.807462
82134400999041,-0.0995281,0.35763872,9.773581
82134420855803,-0.11480681,0.39428306,9.707768
82134440712571,-0.034915116,0.37039855,9.803704
82134460559934,-0.0015893985,0.34401476,9.852891
82134480416446,-0.052777003,0.4007451,9.764575
82134500273086,-0.06459698,0.38663104,9.724911
82134520129598,-0.04169696,0.33050525,9.7551565
82134539986238,-0.06753672,0.39468536,9.758568
82134559843908,-0.09006155,0.43059108,9.743117
82134579700548,-0.07884528,0.34285036,9.747352
82134599557188,-0.04422739,0.2858886,9.746021
82134619413829,0.038311895,0.31744736,9.81225
82134639270468,-0.013774558,0.3949812,9.755769
82134659120324,-0.13321105,0.38898677,9.722211
82134678976837,-0.14152783,0.3050356,9.72346
82134698833348,-0.054628123,0.3530185,9.758887
82134718689732,0.056535095,0.40031224,9.817378
82134738546245,0.029631251,0.4444335,9.81579
82134758399530,-0.07576582,0.4239811,9.782744
82134778255914,-0.0691293,0.38399157,9.758429
82134798112299,-0.0021365737,0.42306274,9.791308
82134817968682,-0.011936221,0.45529354,9.7867365
82134837825066,-0.03727428,0.4166643,9.812745
82134857681451,0.034081176,0.41156104,9.738933
82134877533726,0.018725352,0.43469596,9.760539
82134897390110,0.008512359,0.46509233,9.756584
82134917246367,-0.06234276,0.3906102,9.725669
82134937102622,-0.060164582,0.3871118,9.722886
82134956959117,-0.004770989,0.40061468,9.762233
82134976815374,0.003953701,0.42800406,9.764564
82134996671629,-0.0084939925,0.4142074,9.761371
82135016527885,-0.003966326,0.3646002,9.802159
82135036384142,-0.014931635,0.4520164,9.756474
82135056235064,-0.0020413622,0.48683316,9.795132
82135076091193,-0.037255015,0.38295245,9.777281
82135095947322,-0.06924948,0.42316666,9.76447
82135115804858,-0.0073847272,0.44206923,9.720399
82135135660986,0.06925946,0.4270937,9.767761
82135155517115,-0.0027518773,0.47061113,9.763739
82135175370213,-0.057982314,0.3889251,9.753484
82135195226341,0.009488932,0.3747982,9.783356
82135215082342,0.03289244,0.4545605,9.744339
82135234938471,-0.02987607,0.46101394,9.755018
82135254797274,-0.031529225,0.36720905,9.74559
82135274653403,-0.0022283474,0.41283482,9.790869
82135294509532,0.011668598,0.48715964,9.808835
82135314365533,-0.020939905,0.39953575,9.778626
82135334221662,-6.8910763E-4,0.35860577,9.705924
82135354077791,0.02190341,0.43749946,9.793725
82135373928786,-0.022755321,0.4825002,9.792481
82135393784787,-0.05194195,0.43251285,9.723652
82135413640660,0.0022759566,0.41368884,9.761502
82135433496661,0.009032062,0.3922445,9.877553
82135453352662,-0.01598321,0.43769944,9.800811
82135473216623,-0.015920568,0.38754684,9.727284
82135493072752,0.023958547,0.31353953,9.690033
82135512928881,-0.03318969,0.3714798,9.71069
