UPTIMENANO,Ax,Ay,Az
86767264698934,-1.1376343,9.678274,-0.6849755999999999
86767284557622,-1.1112891000000003,9.627979,-0.6346801999999999
86767304416182,-1.0514137,9.642349000000001,-0.6394701999999999
86767324271657,-1.089734,9.663903999999999,-0.7065308000000001
86767344130217,-1.1591895,9.6686945,-0.6730005
86767363988905,-1.1735597,9.695039999999999,-0.6490503000000001
86767383847465,-1.096919,9.745335,-0.67539555
86767403706153,-1.0538087,9.6686945,-0.6442603
86767423565810,-1.1064991000000002,9.630374,-0.7448511
86767443424370,-1.094524,9.659114,-0.6658155
86767463282930,-1.1424243,9.632769,-0.60833496
86767483141490,-1.1304493,9.627979,-0.613125
86767503000050,-1.1256591999999999,9.656719,-0.6682104999999999
86767522865638,-1.101709,9.651928999999999,-0.732876
86767542724326,-1.1041040000000002,9.601633999999999,-0.62510014
86767562583014,-1.1112891000000003,9.596844,-0.6490503000000001
86767582441703,-1.1088941,9.666299,-0.61552006
86767602300390,-1.1328443000000001,9.711803999999999,-0.6490503000000001
86767622163168,-1.1496094,9.637559,-0.7232959
86767642021985,-1.1759547,9.666299,-0.64186525
86767661880800,-1.1328443000000001,9.695039999999999,-0.5508545
86767681739617,-1.0921290000000001,9.690249,-0.58198977
86767701598434,-1.1088941,9.616004,-0.66342044
86767721466275,-1.1376343,9.594449000000001,-0.76880133
86767741325347,-1.1663746000000002,9.654325,-0.6322852
86767761184292,-1.1496094,9.692644,-0.54366946
86767781043363,-1.1184741000000002,9.656719,-0.6562354
86767800902435,-1.1472143999999997,9.6758795,-0.69216067
86767820761380,-1.1280543,9.707015,-0.74724615
86767840624376,-1.1184741000000002,9.616004,-0.62510014
86767860483576,-1.1711646,9.616004,-0.6490503000000001
86767880342777,-1.2070899,9.77168,-0.6586304000000001
86767900201976,-1.1376343,9.860296,-0.66342044
86767920062613,-1.1136841999999998,9.745335,-0.7424561
86767939921814,-1.1951148999999999,9.651928999999999,-0.69695073
86767959781013,-1.1783496,9.642349000000001,-0.72569096
86767979640341,-1.1639795,9.604028999999999,-0.74724615
86767999499542,-1.219065,9.5561285,-0.74724615
86768019354639,-1.223855,9.560919,-0.79754156
86768039213711,-1.2310401000000002,9.639954,-0.8262818000000001
86768059072912,-1.1567944,9.678274,-0.84065187
86768078932111,-1.1567944,9.666299,-0.87418216
86768098791183,-1.2094848999999999,9.632769,-0.8598120000000001
86768118650384,-1.2310401000000002,9.592053,-0.8909473
86768138507267,-1.2430152,9.692644,-0.7879615
86768158366340,-1.22625,9.663903999999999,-0.732876
86768178225413,-1.2573853000000002,9.6758795,-0.84065187
86768198084611,-1.2358301999999999,9.687855,-0.8430469
86768217936376,-1.2022998,9.654325,-0.8382569
86768237795193,-1.2286451,9.625584,-0.85741705
86768257654136,-1.2430152,9.606423,-0.91729254
86768277512952,-1.2645704,9.6615095,-0.8143066999999999
86768297371897,-1.2334352,9.692644,-0.8334668
86768317225487,-1.2813355,9.608819,-1.0011181999999998
86768337084303,-1.3196558,9.656719,-0.9484278
86768356943120,-1.22625,9.618399,-0.8310718
86768376801935,-1.219065,9.616004,-0.8214916999999999
86768396660751,-1.2454101999999998,9.606423,-0.852627
86768416519568,-1.2549903,9.627979,-0.9963281999999999
86768436380913,-1.3076807,9.711803999999999,-0.92208254
86768456239729,-1.3220508,9.663903999999999,-0.9364527
86768476098546,-1.3268408999999999,9.711803999999999,-0.9580079
86768495954460,-1.2885206,9.678274,-0.9699829
86768515804205,-1.2286451,9.546548,-0.9963281999999999
86768535662894,-1.2310401000000002,9.546548,-1.0538087
86768555521581,-1.2430152,9.534574000000001,-1.0202783000000002
86768575380269,-1.2957056999999998,9.594449000000001,-0.93405765
86768595238958,-1.3124708,9.6615095,-1.0322535
86768615090595,-1.2909156000000002,9.632769,-1.1184741000000002
86768634949155,-1.2765454,9.721385,-1.0130934
86768654807844,-1.2286451,9.642349000000001,-1.0202783000000002
86768674666403,-1.2454101999999998,9.616004,-1.0585986
86768694524963,-1.2741505,9.587264,-1.0370435
86768714383652,-1.2765454,9.608819,-1.0633887
86768734236286,-1.3124708,9.616004,-0.99393314
86768754094718,-1.2861254999999998,9.616004,-0.974773
86768773953151,-1.2669654,9.625584,-1.0825489
86768793811582,-1.2406201000000001,9.635164,-1.1256591999999999
86768813667806,-1.2669654,9.608819,-1.0729688
86768833526239,-1.3244458000000001,9.730965,-0.96040285
86768853384542,-1.3651612,9.654325,-0.9915381
86768873242846,-1.3675561999999999,9.649534,-1.0298585
86768893101151,-1.3292358999999998,9.639954,-1.0370435
86768912959582,-1.2885206,9.570497999999999,-1.1184741000000002
86768932793157,-1.3483961000000002,9.608819,-0.99393314
86768952650822,-1.3268408999999999,9.536968,-1.0538087
86768972508613,-1.3436059999999999,9.580078,-1.0705738
86768992366405,-1.3723463,9.656719,-1.0609937
86769012224070,-1.3603711,9.637559,-1.1376343
86769032091882,-1.3915064,9.618399,-1.0442286
86769051949802,-1.3052857,9.580078,-1.0873389
86769071807723,-1.3268408999999999,9.589659,-1.0681788
86769091665642,-1.3268408999999999,9.584868,-1.0777588
86769111514657,-1.3915064,9.5489435,-1.0298585
86769131372322,-1.3579761000000001,9.64714,-0.99393314
86769151230113,-1.2573853000000002,9.637559,-1.0394385
86769171087777,-1.3292358999999998,9.611214,-1.101709
86769190945442,-1.3196558,9.611214,-1.089734
86769210803105,-1.3004956,9.616004,-1.0633887
86769230672460,-1.3292358999999998,9.649534,-0.98195803
86769250530253,-1.3052857,9.568104,-1.0681788
86769270388172,-1.3220508,9.599238,-1.0777588
86769290245964,-1.3004956,9.671089,-0.9412427
86769310103885,-1.2549903,9.611214,-1.0442286
86769329967978,-1.2933106,9.635164,-1.099314
86769349826026,-1.2885206,9.623189,-1.0370435
86769369684075,-1.2310401000000002,9.594449000000001,-0.977168
86769389541994,-1.2885206,9.639954,-0.9651929
86769409406772,-1.2525953,9.584868,-1.0657837
86769429264949,-1.2909156000000002,9.635164,-1.0059083
86769449122996,-1.2454101999999998,9.601633999999999,-0.8981324
86769468981172,-1.1903248,9.623189,-1.0011181999999998
86769488839221,-1.2286451,9.642349000000001,-0.9699829
86769508697396,-1.1759547,9.601633999999999,-1.0514137
86769528566146,-1.2597803,9.632769,-0.9580079
86769548424451,-1.2454101999999998,9.639954,-0.9148975
86769568282882,-1.219065,9.558523,-0.9627979
86769588141186,-1.2334352,9.635164,-0.94603276
86769607999619,-1.2046948999999998,9.659114,-1.0083033000000001
86769627863415,-1.214275,9.70941,-0.9053174
86769647721975,-1.1711646,9.697434,-0.8286768
86769667580408,-1.1232642,9.630374,-0.92208254
86769687438839,-1.1352394,9.702225,-0.8286768
86769707305671,-1.1328443000000001,9.632769,-0.81909674
86769727164360,-1.2070899,9.594449000000001,-0.8765772
86769747023047,-1.219065,9.635164,-0.83586186
86769766881735,-1.1376343,9.613608000000001,-0.9627979
86769786740424,-1.1855347,9.690249,-0.87418216
86769806599111,-1.2094848999999999,9.666299,-0.9244776
86769826463833,-1.2118799999999998,9.666299,-0.974773
86769846322650,-1.1999048,9.656719,-0.9388476999999998
86769866181593,-1.2334352,9.546548,-0.977168
86769886040537,-1.2717555,9.599238,-0.81191164
86769905899354,-1.2430152,9.7142,-0.6562354
86769925760587,-1.2861254999999998,9.740545,-0.7951465
86769945619531,-1.2478052,9.692644,-0.8933423
86769965478476,-1.1951148999999999,9.613608000000001,-1.0753639
86769985337419,-1.1879296999999998,9.611214,-0.94603276
86770005203909,-1.2382251,9.527389,-0.7496411000000001
86770025063110,-1.2597803,9.553733,-0.8430469
86770044922309,-1.2358301999999999,9.625584,-0.855022
86770064781509,-1.2621753,9.565708,-1.0322535
86770084640838,-1.2789403999999998,9.613608000000001,-0.9508228000000001
86770104500037,-1.2525953,9.70941,-0.81909674
86770124356762,-1.1735597,9.711803999999999,-0.8765772
86770144215963,-1.223855,9.606423,-0.9508228000000001
86770164075162,-1.2837305,9.5489435,-0.9412427
86770183934362,-1.22625,9.687855,-0.76401126
86770203793563,-1.2502003000000002,9.707015,-0.76401126
86770223654523,-1.2454101999999998,9.6758795,-0.9244776
86770243513723,-1.2166698999999999,9.637559,-0.92926764
86770263373052,-1.1496094,9.620794,-0.9532178
86770283232251,-1.1711646,9.611214,-0.9532178
86770303091451,-1.1831397,9.671089,-0.8310718
86770322950780,-1.2669654,9.699829,-0.92208254
86770342812155,-1.2406201000000001,9.697434,-0.9532178
86770362671483,-1.2645704,9.630374,-0.86220706
86770382530812,-1.1927198,9.582474000000001,-0.9316626
86770402390011,-1.1615845,9.577683,-0.85741705
86770422254935,-1.2286451,9.632769,-0.9364527
86770442114392,-1.1591895,9.740545,-0.8143066999999999
86770461973975,-1.22146,9.671089,-0.9053174
86770481821175,-1.2310401000000002,9.702225,-0.98195803
86770501680632,-1.1975098,9.673484,-0.80712163
86770521540215,-1.1711646,9.608819,-0.9316626
86770541381323,-1.22625,9.599238,-0.88376224
86770561240268,-1.2693603999999998,9.594449000000001,-0.89573735
86770581099339,-1.2286451,9.620794,-0.8861573
86770600958283,-1.2430152,9.630374,-0.7711963000000001
86770620817356,-1.2406201000000001,9.704619000000001,-0.9148975
86770640674885,-1.2382251,9.72857,-0.8646021
86770660533957,-1.2046948999999998,9.642349000000001,-0.8981324
86770680393030,-1.2358301999999999,9.594449000000001,-0.89573735
86770700252101,-1.1759547,9.604028999999999,-0.8143066999999999
86770720096197,-1.2885206,9.620794,-0.7951465
86770739954758,-1.2813355,9.666299,-0.8765772
86770759813445,-1.2382251,9.690249,-0.9148975
86770779672005,-1.214275,9.685459,-0.9268726
86770799530694,-1.1543995,9.642349000000001,-0.82388675
86770819389253,-1.22625,9.616004,-0.855022
86770839240529,-1.2382251,9.659114,-0.8262818000000001
86770859099090,-1.2502003000000002,9.673484,-0.79754156
86770878957649,-1.2094848999999999,9.6686945,-0.84065187
86770898816081,-1.2094848999999999,9.656719,-0.88376224
86770918674642,-1.2118799999999998,9.673484,-0.90771246
86770938526996,-1.1160791,9.702225,-0.83586186
86770958385428,-1.1520045,9.627979,-0.86939216
86770978243733,-1.2046948999999998,9.608819,-0.88376224
86770998102036,-1.1975098,9.601633999999999,-0.6849755999999999
86771017963759,-1.1591895,9.632769,-0.7664063
86771037822192,-1.1567944,9.6615095,-0.7927515
86771057680495,-1.1567944,9.635164,-0.82388675
86771077538927,-1.096919,9.630374,-0.8167017
86771097397232,-1.1256591999999999,9.6615095,-0.728086
86771117255663,-1.1639795,9.699829,-0.83586186
86771137108664,-1.1520045,9.750125,-0.8214916999999999
86771156966841,-1.1232642,9.726174,-0.7664063
86771176825144,-1.1735597,9.683064,-0.8765772
86771196683448,-1.1424243,9.551338000000001,-0.89573735
86771216541625,-1.1999048,9.520203,-0.93405765
86771236396728,-1.223855,9.601633999999999,-0.83586186
86771256254904,-1.1615845,9.64714,-0.7232959
86771276113081,-1.1639795,9.649534,-0.8885523000000001
86771295971256,-1.1041040000000002,9.695039999999999,-0.84065187
86771315827791,-1.1663746000000002,9.70941,-0.74006104
86771335685840,-1.1304493,9.742939999999999,-0.6849755999999999
86771355544015,-1.1232642,9.673484,-0.77359134
86771375402063,-1.1639795,9.582474000000001,-0.8478370000000001
86771395260240,-1.1999048,9.608819,-0.7496411000000001
86771415118287,-1.1615845,9.68067,-0.61552006
86771434981479,-1.099314,9.795630000000001,-0.6490503000000001
86771454839656,-1.1256591999999999,9.718989,-0.79754156
86771474697831,-1.1232642,9.656719,-0.9244776
86771494556007,-1.1256591999999999,9.627979,-0.7185059
86771514414184,-1.1088941,9.596844,-0.6586304000000001
86771534276071,-1.1424243,9.663903999999999,-0.68018556
86771554134375,-1.1520045,9.6686945,-0.7376661
86771573992552,-1.1448194,9.651928999999999,-0.8286768
86771593850727,-1.1208692,9.683064,-0.7448511
86771613709031,-1.1376343,9.666299,-0.6945557
86771633567208,-1.099314,9.711803999999999,-0.63707525
86771653434861,-1.0873389,9.730965,-0.6682104999999999
86771673293293,-1.0849438999999999,9.702225,-0.6682104999999999
86771693151598,-1.089734,9.656719,-0.6562354
86771713010029,-1.1256591999999999,9.637559,-0.68737066
86771732872179,-1.0921290000000001,9.742939999999999,-0.6610254
86771752730612,-1.0346485,9.73815,-0.5987549
86771772589043,-1.0801538,9.580078,-0.79035646
86771792447603,-1.0729688,9.594449000000001,-0.73527104
86771812306036,-1.096919,9.630374,-0.5891748
86771832164637,-1.0921290000000001,9.788445,-0.57719976
86771852023069,-1.1352394,9.807606,-0.62749517
86771871881630,-1.0729688,9.671089,-0.7807764
86771891740061,-1.0442286,9.64714,-0.7592211999999999
86771911598621,-1.0442286,9.651928999999999,-0.69695073
86771931457054,-0.99393314,9.707015,-0.60833496
86771951322344,-1.0226734,9.7142,-0.60833496
86771971181032,-1.1160791,9.639954,-0.7879615
86771991039721,-1.1256591999999999,9.632769,-0.7065308000000001
86772010898408,-1.0801538,9.551338000000001,-0.6562354
86772030766978,-1.0490186000000001,9.575289,-0.75203615
86772050625923,-1.1256591999999999,9.7142,-0.6610254
86772070484866,-1.1064991000000002,9.79084,-0.69216067
86772090343810,-1.1256591999999999,9.75731,-0.74724615
86772110202755,-1.1831397,9.611214,-0.82388675
86772130061668,-1.1184741000000002,9.613608000000001,-0.7041358
86772149920740,-1.101709,9.70941,-0.5891748
86772169779685,-1.1041040000000002,9.632769,-0.6706055000000001
86772189638756,-1.1687696,9.577683,-0.7065308000000001
86772209497700,-1.1064991000000002,9.558523,-0.80712163
86772229356773,-1.0705738,9.711803999999999,-0.7424561
86772249218459,-1.101709,9.877061,-0.6059399999999999
86772269077531,-1.1160791,9.77647,-0.71371585
86772288936604,-1.1424243,9.651928999999999,-0.6945557
86772308795675,-1.101709,9.639954,-0.61073
86772328652754,-1.0394385,9.6686945,-0.7185059
86772348511827,-1.101709,9.6686945,-0.65384036
86772368370898,-1.1376343,9.620794,-0.8382569
86772388229970,-1.1208692,9.64714,-0.852627
86772408089043,-1.1256591999999999,9.613608000000001,-0.69216067
86772427932437,-1.1328443000000001,9.627979,-0.8167017
86772447791253,-1.094524,9.730965,-0.76880133
86772467649942,-1.0609937,9.678274,-0.7879615
86772487508757,-1.0154883,9.685459,-0.7664063
86772507367445,-1.0490186000000001,9.632769,-0.76401126
86772527226134,-1.0011181999999998,9.642349000000001,-0.87418216
86772547077738,-1.0394385,9.642349000000001,-0.76401126
86772566930000,-1.0514137,9.649534,-0.728086
86772586788561,-1.0777588,9.625584,-0.75203615
86772606647120,-1.096919,9.663903999999999,-0.75203615
86772626499341,-1.0825489,9.716595,-0.72569096
86772646357774,-1.0418334999999999,9.7740755,-0.7592211999999999
86772666216205,-0.9987232,9.716595,-0.852627
86772686074765,-1.0178833,9.64714,-0.86220706
86772705933198,-1.0514137,9.644744000000001,-0.8214916999999999
86772725791757,-1.0250684,9.678274,-0.68976563
86772745644903,-0.9651929,9.687855,-0.6993457
86772765503208,-1.0322535,9.683064,-0.89573735
86772785361511,-1.0370435,9.716595,-0.86939216
86772805219815,-1.0585986,9.699829,-0.8310718
86772825078120,-1.0801538,9.642349000000001,-0.9364527
86772844927999,-1.0705738,9.637559,-0.90052736
86772864786175,-1.0657837,9.695039999999999,-0.88376224
86772884644224,-1.0250684,9.730965,-0.89573735
86772904502399,-1.0873389,9.632769,-0.9580079
86772924356052,-1.1256591999999999,9.68067,-0.9532178
86772944213973,-1.0514137,9.687855,-0.7783814
86772964071894,-0.9915381,9.649534,-0.84544194
86772983929815,-1.0346485,9.651928999999999,-0.9436377
86773003787736,-1.1041040000000002,9.618399,-0.94603276
86773023645652,-1.1352394,9.721385,-0.8143066999999999
86773043509356,-1.1136841999999998,9.754914999999999,-0.6442603
86773063367405,-1.0633887,9.687855,-0.81191164
86773083225452,-1.0202783000000002,9.656719,-0.84544194
86773103083372,-1.0250684,9.623189,-0.7807764
86773122941421,-1.0466236,9.666299,-0.74006104
86773142802388,-1.0370435,9.72857,-0.68737066
86773162660436,-1.0154883,9.72378,-0.79035646
86773182518485,-1.0609937,9.699829,-0.7879615
86773202376404,-1.089734,9.656719,-0.8214916999999999
86773222239675,-1.0633887,9.654325,-0.8262818000000001
86773242097852,-1.0466236,9.699829,-0.7879615
86773261956027,-1.0657837,9.637559,-0.85023195
86773281814075,-1.0873389,9.685459,-0.8861573
86773301672252,-1.0633887,9.666299,-0.8478370000000001
86773321530427,-1.0298585,9.685459,-0.91250247
86773341386122,-1.0442286,9.68067,-0.86939216
86773361244171,-1.0490186000000001,9.663903999999999,-0.85023195
86773381102346,-1.0705738,9.637559,-0.91250247
86773400960394,-1.0514137,9.644744000000001,-0.8286768
86773420818571,-1.089734,9.659114,-0.76161623
86773440681951,-1.0370435,9.769285,-0.75203615
86773460540127,-1.0538087,9.683064,-0.87178713
86773480398304,-1.0322535,9.671089,-0.9029224
86773500256479,-1.0370435,9.745335,-0.8430469
86773520121951,-1.0250684,9.692644,-0.83586186
86773539980256,-1.0250684,9.651928999999999,-0.7927515
86773559838559,-1.0873389,9.623189,-0.7592211999999999
86773579696864,-1.0202783000000002,9.683064,-0.77359134
86773599555169,-0.9436377,9.70941,-0.8214916999999999
86773619413474,-0.9627979,9.623189,-0.855022
86773639272425,-0.98914313,9.654325,-0.83586186
86773659130858,-1.0394385,9.683064,-0.7113208000000001
86773678989291,-1.0202783000000002,9.64714,-0.6394701999999999
86773698847596,-1.0370435,9.627979,-0.7209009
86773718706029,-1.0106983,9.6758795,-0.8095166
86773738571030,-0.95561284,9.7142,-0.728086
86773758429591,-0.98195803,9.711803999999999,-0.68737066
86773778288152,-0.9987232,9.6686945,-0.7161109
86773798146702,-0.9987232,9.718989,-0.6586304000000001
86773818005262,-1.0226734,9.70941,-0.72569096
86773837863823,-1.0322535,9.730965,-0.7065308000000001
86773857731592,-1.0490186000000001,9.73815,-0.6490503000000001
86773877590408,-1.0418334999999999,9.740545,-0.7209009
86773897449225,-0.9867481,9.707015,-0.7161109
86773917308040,-1.0442286,9.637559,-0.7424561
86773937175133,-1.096919,9.678274,-0.6706055000000001
86773957034206,-1.0418334999999999,9.702225,-0.6442603
86773976893277,-1.0226734,9.659114,-0.7448511
86773996752349,-1.0226734,9.671089,-0.7089258
86774016611294,-1.0346485,9.718989,-0.7185059
86774036467695,-1.0035132,9.695039999999999,-0.6562354
86774056326639,-1.0849438999999999,9.666299,-0.62510014
86774076185584,-1.0729688,9.7621,-0.6322852
86774096044655,-1.0202783000000002,9.7812605,-0.56522465
86774115903599,-1.0154883,9.637559,-0.65384036
86774135762544,-1.0442286,9.6758795,-0.7568262
86774155620262,-1.0753639,9.697434,-0.6346801999999999
86774175479206,-0.9699829,9.663903999999999,-0.6179150999999999
86774195338151,-0.9963281999999999,9.534574000000001,-0.7041358
86774215197222,-0.9963281999999999,9.534574000000001,-0.7807764
86774235061526,-0.97237796,9.707015,-0.57959473
86774254920599,-0.9436377,9.812395,-0.52690434
86774274779670,-0.96040285,9.78605,-0.6586304000000001
86774294638742,-1.0154883,9.685459,-0.7185059
86774314497687,-0.99393314,9.692644,-0.64186525
86774334356758,-1.0011181999999998,9.68067,-0.5340894
86774354212700,-0.98435307,9.692644,-0.50774413
86774374071645,-0.98914313,9.6686945,-0.60833496
86774393930716,-1.0083033000000001,9.750125,-0.6394701999999999
86774413789788,-0.9963281999999999,9.733359,-0.62510014
86774433648733,-1.0083033000000001,9.692644,-0.6466553
86774453496065,-0.9508228000000001,9.613608000000001,-0.7807764
86774473354753,-0.9388476999999998,9.584868,-0.86220706
86774493213570,-1.0657837,9.721385,-0.5484595
86774513072385,-1.0753639,9.750125,-0.51013917
86774532926599,-1.0466236,9.735755000000001,-0.5891748
86774552785160,-1.0562036,9.659114,-0.6442603
86774572643847,-0.98435307,9.592053,-0.73048097
86774592501882,-0.92926764,9.659114,-0.6825806
86774612360571,-0.91010743,9.611214,-0.7041358
86774632219130,-0.9867481,9.702225,-0.61073
86774652076239,-1.0130934,9.783655,-0.5724097
86774671934928,-0.97956306,9.826766000000001,-0.70174074
86774691793615,-0.974773,9.72857,-0.728086
86774711652303,-0.9963281999999999,9.572892999999999,-0.80712163
86774731510864,-0.9987232,9.606423,-0.6514453
86774751365693,-0.92926764,9.649534,-0.5292993
86774771224381,-0.91250247,9.692644,-0.6562354
86774791082942,-0.9867481,9.74773,-0.852627
86774810941501,-1.0178833,9.735755000000001,-0.82388675
86774830795788,-1.0346485,9.735755000000001,-0.79035646
86774850654221,-0.98914313,9.690249,-0.6706055000000001
86774870512780,-1.0298585,9.6686945,-0.6993457
86774890371212,-1.0226734,9.687855,-0.69695073
86774910229645,-1.0130934,9.627979,-0.68018556
86774930088204,-1.0202783000000002,9.6686945,-0.76401126
86774949941656,-1.0059083,9.759705,-0.73527104
86774969799961,-0.977168,9.740545,-0.80712163
86774989658264,-0.99393314,9.759705,-0.62510014
86775009516568,-1.0106983,9.659114,-0.65384036
86775029374873,-0.97956306,9.690249,-0.7759864000000001
86775049238022,-1.0418334999999999,9.690249,-0.6993457
86775069096455,-1.0106983,9.695039999999999,-0.7927515
86775088954760,-1.0202783000000002,9.683064,-0.7783814
86775108813193,-1.0083033000000001,9.654325,-0.76880133
86775128671626,-1.0011181999999998,9.635164,-0.7927515
86775148530059,-1.0130934,9.7142,-0.69216067
86775168384956,-1.0130934,9.72378,-0.73048097
86775188243389,-1.0059083,9.7812605,-0.7041358
86775208101694,-1.0418334999999999,9.702225,-0.7496411000000001
86775227959999,-0.977168,9.673484,-0.79993653
86775247812332,-0.9244776,9.613608000000001,-0.7185059
86775267670509,-0.99393314,9.546548,-0.8047266
86775287528686,-1.0514137,9.642349000000001,-0.7496411000000001
86775307386735,-1.0585986,9.7142,-0.6706055000000001
86775327244912,-1.0083033000000001,9.795630000000001,-0.7664063
86775347102791,-1.0059083,9.77647,-0.76880133
86775366960968,-1.0202783000000002,9.70941,-0.8286768
86775386819017,-0.93405765,9.75252,-0.6993457
86775406677194,-0.95561284,9.587264,-0.75203615
86775426535243,-1.0562036,9.582474000000001,-0.80233157
86775446393420,-1.0130934,9.70941,-0.60833496
86775466256785,-0.98435307,9.726174,-0.7568262
86775486114962,-0.96040285,9.7142,-0.7927515
86775505973139,-0.9148975,9.644744000000001,-0.855022
86775525831421,-0.90771246,9.735755000000001,-0.74724615
86775545692734,-0.95561284,9.740545,-0.57959473
86775565551039,-1.0250684,9.72378,-0.69695073
86775585409344,-1.0274634,9.692644,-0.73527104
86775605267649,-1.0394385,9.70941,-0.71371585
86775625125954,-1.0011181999999998,9.6686945,-0.7065308000000001
86775644981339,-0.99393314,9.7142,-0.6706055000000001
86775664839516,-0.9915381,9.68067,-0.7232959
86775684697821,-1.0490186000000001,9.68067,-0.7568262
86775704555998,-1.1136841999999998,9.6686945,-0.7711963000000001
86775724414303,-1.0418334999999999,9.651928999999999,-0.79035646
86775744272480,-0.9987232,9.683064,-0.7879615
86775764137501,-1.0346485,9.635164,-0.9388476999999998
86775783995806,-1.0418334999999999,9.690249,-0.8214916999999999
86775803854111,-0.97956306,9.695039999999999,-0.74724615
86775823712531,-0.9532178,9.601633999999999,-0.9196875
86775843576132,-0.92208254,9.6758795,-0.7711963000000001
86775863434693,-0.9436377,9.70941,-0.6945557
86775883293252,-0.9484278,9.70941,-0.74724615
86775903151812,-0.9915381,9.651928999999999,-0.7783814
86775923010373,-1.0418334999999999,9.618399,-0.87178713
86775942867870,-1.0609937,9.635164,-0.7448511
86775962726430,-1.0825489,9.659114,-0.68018556
86775982584991,-1.0466236,9.663903999999999,-0.7041358
86776002443550,-1.0370435,9.711803999999999,-0.7807764
86776022302110,-1.0106983,9.68067,-0.8334668
86776042160671,-1.0346485,9.742939999999999,-0.7544312
86776062020784,-0.97237796,9.764495,-0.79754156
86776081879344,-0.93405765,9.702225,-0.8214916999999999
86776101737905,-1.1064991000000002,9.685459,-0.74724615
86776121596464,-1.0729688,9.639954,-0.732876
86776141452871,-0.9987232,9.678274,-0.67539555
86776161311432,-1.0106983,9.618399,-0.76401126
86776181169863,-1.0035132,9.702225,-0.8262818000000001
86776201028424,-0.9963281999999999,9.800421,-0.68976563
86776220886985,-0.94603276,9.656719,-0.87418216
86776240745546,-1.0801538,9.613608000000001,-0.9268726
86776260610320,-1.1376343,9.716595,-0.7041358
86776280469009,-1.0442286,9.759705,-0.69216067
86776300327696,-1.0681788,9.6615095,-0.8167017
86776320186256,-1.1304493,9.529783,-1.0035132
86776340044945,-1.0825489,9.651928999999999,-0.81191164
86776359899688,-1.0514137,9.685459,-0.6586304000000001
86776379758377,-1.0681788,9.687855,-0.7376661
86776399617066,-1.1256591999999999,9.754914999999999,-0.8214916999999999
86776419475755,-1.0442286,9.745335,-0.8813671999999999
86776439332310,-1.0011181999999998,9.793235000000001,-0.7592211999999999
86776459190999,-1.0298585,9.625584,-0.7759864000000001
86776479049560,-1.0274634,9.601633999999999,-0.8334668
86776498908249,-1.0681788,9.651928999999999,-0.74006104
86776518766810,-1.0490186000000001,9.654325,-0.7831714
86776538625499,-1.0849438999999999,9.64714,-0.7592211999999999
86776558482756,-1.0849438999999999,9.699829,-0.85023195
86776578341317,-1.0226734,9.769285,-0.82388675
86776598199878,-1.0154883,9.831555,-0.7185059
86776618058567,-1.0442286,9.68067,-0.85023195
86776637917128,-1.0825489,9.572892999999999,-0.88376224
86776657771777,-1.0681788,9.580078,-0.7113208000000001
86776677630338,-0.9963281999999999,9.616004,-0.6442603
86776697489027,-1.099314,9.718989,-0.69216067
86776717347588,-1.0322535,9.666299,-0.8286768
86776737200419,-0.99393314,9.793235000000001,-0.855022
86776757058852,-1.0705738,9.73815,-0.74724615
86776776917393,-0.97956306,9.72378,-0.71371585
86776796775825,-1.0106983,9.666299,-0.6490503000000001
86776816634258,-0.99393314,9.582474000000001,-0.7927515
86776836492689,-1.0226734,9.666299,-0.6993457
86776856343746,-1.0106983,9.697434,-0.6059399999999999
86776876202051,-0.97956306,9.637559,-0.7161109
86776896060354,-1.0059083,9.75731,-0.6777906
86776915918530,-0.9412427,9.721385,-0.6514453
86776935776835,-0.93405765,9.766891000000001,-0.613125
86776955636278,-0.95561284,9.671089,-0.73527104
86776975494582,-0.9627979,9.649534,-0.7161109
86776995352887,-1.0130934,9.656719,-0.60354495
86777015211190,-0.9508228000000001,9.618399,-0.613125
86777035073121,-0.9580079,9.618399,-0.6777906
86777054931426,-1.0011181999999998,9.625584,-0.63707525
86777074789857,-0.9436377,9.690249,-0.60833496
86777094648161,-0.95561284,9.903406,-0.5748047
86777114506466,-0.8981324,9.7812605,-0.6849755999999999
86777134364897,-0.9484278,9.623189,-0.7783814
86777154225738,-1.0226734,9.599238,-0.62031007
86777174084171,-1.0011181999999998,9.639954,-0.488584
86777193942474,-1.0394385,9.711803999999999,-0.42870852
86777213800906,-0.98914313,9.671089,-0.58677983
86777233659339,-1.0106983,9.726174,-0.68737066
86777253515576,-1.0106983,9.74773,-0.65384036
86777273373880,-0.9627979,9.735755000000001,-0.5724097
86777293232185,-1.0322535,9.77647,-0.50534916
86777313090488,-1.0346485,9.72857,-0.4526587
86777332948792,-1.0154883,9.740545,-0.50534916
86777352807097,-1.0106983,9.690249,-0.5891748
86777372669006,-0.98914313,9.690249,-0.6825806
86777392527438,-1.0466236,9.695039999999999,-0.62749517
86777412385743,-1.0322535,9.644744000000001,-0.5676197
86777432244176,-1.0130934,9.721385,-0.5221143
86777452102347,-1.0059083,9.730965,-0.56522465
86777471960652,-1.0035132,9.754914999999999,-0.6179150999999999
86777491819085,-1.0657837,9.860296,-0.5556446
86777511677518,-1.0562036,9.7740755,-0.5843848
86777531535823,-1.0729688,9.833950999999999,-0.613125
86777551400838,-1.0490186000000001,9.965676,-0.5245093000000001
86777571259271,-1.0011181999999998,10.025552000000001,-0.4382886
86777591117832,-1.0681788,10.071057000000001,-0.4382886
86777610976265,-1.0298585,9.917776,-0.5963599
86777630834698,-1.0130934,9.972861,-0.62510014
86777650693259,-1.0705738,9.915381,-0.56522465
86777670556032,-0.9316626,9.802814999999999,-0.6011499
86777690414593,-1.0753639,9.980047,-0.51971924
86777710273154,-1.0059083,9.8938265,-0.6179150999999999
86777730131843,-0.974773,9.857901,-0.6849755999999999
86777749994192,-1.0729688,9.992022,-0.45744875
86777769852881,-0.86939216,9.872271000000001,-0.7496411000000001
86777789711570,-1.0035132,9.939331,-0.6658155
86777809570112,-1.0178833,9.81958,-0.37122804
86777829428801,-0.80712163,9.982442,-0.43349856
86777849286349,-0.90052736,10.018367,-0.40954837
86777869145037,-0.8933423,9.745335,-0.7424561
86777889003726,-0.9987232,9.936936,-1.0274634
86777908862413,-1.0154883,9.831555,-0.9364527
86777928721101,-0.73527104,9.917776,-0.8861573
86777948579790,-0.7424561,10.044711999999999,-0.41912845
86777968432248,-0.73048097,9.814791,-0.43349856
86777988290808,-0.7041358,9.905801,-0.5292993
86778008149497,-0.8765772,10.025552000000001,-0.22513184
86778028008184,-0.90771246,9.975257000000001,-0.40715334
86778047869158,-0.76161623,9.910591,-0.64186525
86778067727975,-0.76401126,9.865086,-0.6945557
86778087586662,-0.9053174,10.008787,-0.57959473
86778107445350,-0.87897223,9.989627,-0.45026368
86778127304039,-0.7568262,9.896221,-0.5604346
86778147161563,-0.7879615,9.936936,-0.4167334
86778167020251,-0.8909473,9.910591,-0.4023633
86778186878940,-0.94603276,9.992022,-0.51492923
86778206737627,-0.855022,9.932146000000001,-0.46942386
86778226596315,-0.82388675,9.992022,-0.39278322
86778246455132,-0.9580079,9.980047,-0.31135255
86778266311308,-0.9053174,9.912986,-0.56522465
86778286169868,-0.9053174,9.992022,-0.51971924
86778306028557,-0.96758795,10.063872,-0.26105714
86778325887244,-0.92926764,9.992022,-0.32572266
86778345742260,-1.0274634,10.003997,-0.3065625
86778365600693,-1.0825489,9.903406,-0.2706372
86778385459252,-1.0705738,10.087823,-0.2802173
86778405317812,-0.98914313,10.097403,-0.20118165
86778425176373,-0.8334668,9.977652,-0.20597169
86778445034934,-0.8885523000000001,10.265054,-0.22992188
86778464887435,-0.9963281999999999,10.186019,-0.050295413
86778484745868,-1.0011181999999998,10.037527,0.09340577
86778504604173,-1.1831397,10.346485000000001,0.23471193
86778524462472,-1.2837305,10.277028999999999,0.26105714
86778544320905,-1.5495777,10.147698,0.45505372
86778564174868,-1.9950514,10.837463,1.465752
86778584033172,-2.0213966,11.211087,2.1603076
86778603891476,-1.477727,10.94045,0.39517823
86778623749652,-1.3771361999999998,10.071057000000001,-1.1448194
86778643607956,-0.50774413,9.841136,-1.2334352
86778663466193,-0.34967285,10.559642,-0.08861572
86778683324369,-1.6501685000000001,10.245894,0.74006104
86778703182673,-2.5195606,9.13221,0.44068359999999995
86778723040977,-2.4764502,9.019644,0.8813671999999999
86778742899153,-1.1711646,9.125025,1.5208374
86778762758310,-0.021555176000000002,9.472302,1.5304176
86778782616706,0.9436377,9.539363,0.60833496
86778802475010,1.1280543,9.524992999999998,1.3028906999999998
86778822333186,0.8047266,9.374106,1.9184108
86778842191490,0.57001466,9.280700999999999,2.0309765
86778862047035,0.27542725,9.515413,2.315984
86778881905211,0.34248779999999995,9.5561285,2.7111623
86778901763387,0.44068359999999995,9.426797,3.4751735
86778921621563,0.43349856,9.259146000000001,4.006868
86778941479739,0.17483643,9.295072,4.0811133
86778961337454,-0.42152345,9.175321,3.8200562000000007
86778981195631,-0.26105714,8.502319,4.775669000000001
86779001053805,0.44068359999999995,8.032896000000001,7.443721000000001
86779020911981,1.6525636000000001,6.9934573,7.2640944
86779040770029,1.8034497,6.928792,5.245093
86779060628108,2.7399025000000004,7.204219,4.528982
86779080486156,4.933740599999999,3.0799952,4.406836
86779100344332,2.6321266,1.951941,0.3903882
86779120202381,0.44307864,14.662310999999999,0.06227051
86779140060558,-7.460486,30.986765000000002,7.0509377
86779159917815,-11.256592999999999,9.678274,-4.878655
86779179775992,-3.9014869,-1.2885206,0.031135255
86779199634041,-4.7636943,4.4738964999999995,4.406836
86779219492218,-3.7434156,10.121353,-2.929109
86779239350395,-2.1052222,13.919854,-7.273674499999999
86779259210272,0.28500733,12.75348,-4.7014236
86779279068449,1.4274316999999999,10.583591,-1.101709
86779298926626,1.0059083,10.289003999999998,2.6297317000000002
86779318784803,-0.36164796,9.496253,-0.7424561
86779338642980,0.043110352000000005,9.2328005,-2.6201515
86779358501379,-1.2645704,7.831714,0.18681154
86779378359684,-0.9915381,8.602911,-1.3603711
86779398217861,-1.2382251,9.486672,0.7783814
86779418076166,-0.7448511,9.479486999999999,0.33530274
86779437934343,1.7363893,10.075847999999999,-1.4274316999999999
86779457790824,1.0298585,10.253079,0.5724097
86779477649001,0.7496411000000001,9.043594,0.6011499
86779497507178,0.5029541000000001,9.352551,0.22273682
86779517365355,-0.11256592,10.219549,0.80712163
86779537223532,0.20597169,9.683064,0.11496094
86779557087067,0.73048097,9.266331,-0.44068359999999995
86779576945223,1.0011181999999998,9.251961,0.19160157
86779596803400,0.7711963000000001,9.022039,0.0
86779616661705,0.79993653,8.717872,-0.6825806
86779636519882,0.613125,8.969349000000001,-0.43349856
86779656385361,0.14849122,8.954978,-0.44547364
86779676243794,-0.40715334,9.347761,-0.61073
86779696102099,-0.34967285,10.624307,-0.50534916
86779715960532,0.16525635,11.723621000000001,-0.87418216
86779735818837,0.57959473,12.478052,-0.5484595
86779755677270,1.6717237,12.652888,0.8478370000000001
86779775540017,2.4069947999999997,12.978611,0.39996827
86779795398578,3.1039455,13.924644,-1.2525953
86779815257011,2.9578493,14.06595,-1.4992822000000001
86779835115432,2.6201515,13.601316,-1.8465601000000003
86779854973992,1.3675561999999999,12.607384,-2.4165747000000004
86779874834722,0.038320314,10.293795,-2.9770092999999997
86779894693282,-2.1004322,9.129814999999999,-1.9711011999999999
86779914551842,-4.0787187000000005,9.692644,-1.3483961000000002
86779934410402,-4.433181299999999,11.668535,-2.0525317
86779954268962,-5.757626999999999,12.825330000000001,-0.22273682
86779974129695,-4.7301636,11.658956,0.41912845
86779993988255,-2.2177882,10.47821,0.023950197000000003
86780013846815,-0.45505372,10.061478,0.86939216
86780033705503,0.5245093000000001,9.730965,1.0466236
86780053564063,1.4968873,8.883128,-1.3531861
86780073431156,2.2608986,7.7598634,-2.323169
86780093289844,1.8753004,7.6425076,-0.8286768
86780113148660,0.70174074,7.180269,-0.11017089999999999
86780133007476,-0.4382886,6.8162259999999995,-1.1160791
86780152866292,-0.38559815,5.7911572,-1.7292042
86780172723651,-1.6884888,4.557722599999999,-0.09101075
86780192582339,-3.3673975,3.9877076000000002,2.7135572
86780212441156,-2.8764186,3.774551,3.3314724
86780232299973,-2.2393433999999997,4.1170387,3.0656252
86780252158659,-1.2382251,4.193679299999999,3.4847536
86780272021880,-0.855022,5.6450615,2.4189699
86780291880696,-0.009580079,10.629097,2.4644752
86780311739640,-0.28261232,18.31232,4.737349
86780331598456,-0.6562354,20.106189999999998,9.6615095
86780351452700,3.422483,10.9069195,11.843372
86780371312155,4.703819,5.977969,5.4869900000000005
86780391171100,2.4069947999999997,14.422808999999999,1.583108
86780411029917,0.33290774,21.543201,-2.3734642999999997
86780430888862,-6.4066777,13.958175,-11.397899
86780450747807,-6.320457,5.0031962,-0.27542725
86780470595628,-6.979087400000001,1.7004639,8.763377
86780490454317,-6.797065700000001,5.589976,4.4738964999999995
86780510313134,-5.0989965999999995,9.81,-3.2692018
86780530171823,-4.011657700000001,11.057806,-8.277188
86780550030512,-0.98435307,11.805052,-9.072334
86780569890789,0.17004639,10.518927,-4.382886
86780589749478,0.021555176000000002,9.778865,-2.2393433999999997
86780609608295,1.9399658,9.841136,3.0129347
86780629467112,1.477727,10.128538,-0.6442603
86780649325929,1.2166698999999999,7.2760696,-5.1612673
86780669176542,1.2885206,9.211246000000001,-3.2069313999999998
86780689035231,0.05269043,9.939331,-2.1291726000000004
86780708893920,0.4766089,8.095166,-4.888235
86780728752481,1.3172607,8.401729,-2.5075855
86780748611170,0.89573735,11.009905,1.8537452
86780768461399,1.6693287,11.074571,-0.5364844
86780788319832,2.8380982999999995,9.697434,-1.4274316999999999
86780808178244,3.1039455,9.503438000000001,0.38080812
86780828036676,2.703977,10.775193,0.76401126
86780847895236,1.3651612,11.891273,1.4010864
86780867744892,1.0801538,12.710369,1.1999048
86780887603068,0.50534916,11.730806,2.5315359
86780907461372,-0.45026368,10.583591,3.4751735
86780927319548,-0.3305127,9.841136,0.9316626
86780947177852,-0.46942386,9.455538,-0.96040285
86780967033517,-1.3603711,9.8866415,-3.0033545
86780986891693,-2.9889846,12.949871,-2.1650977000000005
86781006749741,-2.1387525000000003,14.468313,-2.4884255
86781026607917,-1.6645386000000002,13.503120000000001,-4.591253
86781046465965,-2.794988,15.356866,-4.512217
86781066324251,-7.2976246,15.701749,-0.5604346
86781086182299,-7.326364999999999,12.19544,7.0221976999999995
86781106040347,-2.1483326000000003,9.393267,2.7399025000000004
86781125898395,-0.28740236,8.983719,-1.5304176
86781145756443,-0.13891114,8.717872,-0.44068359999999995
86781165614997,-0.23950197,9.82437,-0.4742139
86781185473045,0.0071850587,9.067544,-1.0322535
86781205331093,1.587898,6.011499400000001,-3.06323
86781225189141,2.0453467,4.346960500000001,-2.2489235
86781245047189,1.2861254999999998,4.0691385,-0.6682104999999999
86781264911499,-0.54366946,3.2045362,1.3723463
86781284769675,-1.5567628,3.5015187000000005,2.703977
86781304627851,-0.17483643,4.7014236,3.9230419999999997
86781324486027,1.0538087,5.0031962,3.774551
86781344344203,1.1496094,5.2786230000000005,2.8141482000000004
86781364201322,0.9484278,7.9083548,3.7122805
86781384059498,0.41912845,14.832355999999999,9.599238
86781403917546,2.7854077999999998,20.309767,11.455378999999999
86781423775722,7.31918,15.122154,6.1743608
86781443633898,1.3579761000000001,7.6975929999999995,4.89542
86781463492557,-4.095484,6.330037,4.4523416
86781483350733,-1.6908839,10.195599000000001,-1.7507593999999997
86781503208781,-2.4836354,14.494658,-9.292676
86781523066957,-12.583433,16.264578,-1.7890796999999998
86781542925005,-0.977168,9.496253,7.0198026
86781562782832,-2.215393,4.792434,-0.97956306
86781582641008,-3.1374757,7.2976246,-1.4825171
86781602499056,-3.3410523000000003,11.280542,-3.7985013
86781622357104,-0.8885523000000001,11.958333,-6.5216384000000005
86781642215280,-0.45984375,10.523716,-4.4691067
86781662076272,1.0322535,9.865086,1.5926881000000002
86781681934576,2.3710694,10.030342,4.28948
86781701792752,2.047742,8.248447,0.8167017
86781721650928,1.1400293,9.742939999999999,-2.1315675
86781741509104,-0.011975098,8.746611999999999,-2.2680835999999998
86781761374176,-0.38080812,6.8952613,-0.7592211999999999
86781781232480,0.488584,9.079519,-1.0753639
86781801090912,0.65384036,10.87818,0.7807764
86781820949216,0.51732427,9.110655,-1.2813355
86781840807520,0.29937744,8.466394000000001,0.28740236
86781860667622,0.24668702,9.939331,3.0799952
86781880526054,0.6706055000000001,10.605147,1.1855347
86781900384486,0.40954837,10.269844,-0.033530276
86781920243046,0.20118165,10.739268,0.77359134
86781940101478,1.1975098,11.232642,1.0777588
86781959970565,2.6057813,11.64219,0.51013917
86781979829253,2.2106032000000004,13.48875,-1.6645386000000002
86781999687941,0.43589357,16.080161999999998,-2.6536817999999998
86782019546629,-2.2201831000000003,14.022839999999999,2.1627028
86782039405317,-5.9300685,10.085427000000001,2.4692652
86782059265719,-6.9958525,8.947792999999999,1.7435743000000001
86782079124407,-7.8125539999999996,10.169253,-1.0083033000000001
86782098983224,-5.956413700000001,11.496095,-2.2249732000000004
86782118841913,-0.7089258,10.947635,-1.465752
86782138700602,1.6214283,11.790682,-0.2083667
86782158547365,3.2093263,11.402688000000001,-0.0047900393
86782178405925,2.0118165,7.961045299999999,0.5891748
86782198264485,-1.7890796999999998,6.70845,1.1088941
86782218123045,-2.1291726000000004,6.0570045,0.60354495
86782237981605,-0.43110353,6.0162889999999996,0.2562671
86782257838422,0.4023633,6.979087400000001,1.1472143999999997
86782277696854,0.6945557,5.956413700000001,1.2621753
86782297555414,-1.3507911,5.019961400000001,1.3747413
86782317413846,-2.1100123,5.942044,1.5735278999999998
86782337272406,-1.4968873,6.7228202999999995,1.7723145
86782357129263,-0.7113208000000001,7.163503599999999,2.3064039000000003
86782376987695,0.028740235,8.008944999999999,2.2608986
86782396846255,1.5112573999999999,9.445957,3.0799952
86782416704687,2.6896071,10.863809,4.5313773
86782436563119,2.8380982999999995,11.800261500000001,5.736072
86782456414893,2.3519094,11.00751,5.494175
86782476273069,0.20597169,10.914104,3.0656252
86782496131373,-0.2706372,12.952266,1.6429833999999999
86782515989677,1.9208057,13.977335,0.91010743
86782535847853,2.1004322,13.3618145,-3.2715970000000003
86782555701335,-2.1435425,12.490027,-4.1242237
86782575559511,-6.7635355,11.409874,-3.0919703999999997
86782595417687,-5.3408937000000005,8.023315,1.9016455
86782615275863,-3.3626074999999997,4.378096,5.8510327
86782635134039,-4.3062453000000005,6.155200499999999,-2.7638526000000003
86782654993170,-0.045505375,9.110655,-4.6918435
86782674851346,1.5352076000000001,12.578643,-4.023633
86782694709522,1.5926881000000002,13.301939,-2.4908203999999996
86782714567698,0.6777906,12.001443,-0.67539555
86782734425874,-0.52690434,10.346485000000001,2.2177882
86782754281154,-1.1663746000000002,9.101074,3.4847536
86782774139330,-2.5842261000000004,8.909473,0.5604346
86782793995671,-1.2430152,7.582632,-0.8286768
86782813853719,-0.4143384,8.305928,-2.5315359
86782833711895,-0.42391850000000003,9.311836,-2.550696
86782853572239,-0.88376224,10.296189,-1.0394385
86782873430287,-1.0633887,10.358459,0.040715333
86782893288463,-0.6514453,9.584868,-0.45026368
86782913146639,-1.1160791,9.879456,1.5376027
86782933004815,-1.5184423999999999,10.578802,2.5411158
86782952865167,-1.0657837,10.559642,0.87178713
86782972723343,-0.51013917,9.951306,-0.57001466
86782992581519,-0.86939216,9.364527,-1.1376343
86783012439695,-1.5304176,9.304651,-1.089734
86783032297871,-1.3052857,8.873548,-1.0753639
86783052156047,-0.5292993,8.801697,-1.3651612
86783072022579,-0.014370117,9.70941,-1.2981006000000002
86783091880883,-0.0071850587,10.765614,-0.50774413
86783111739315,-0.34248779999999995,10.351274499999999,-0.50774413
86783131597619,-0.92208254,9.599238,-1.2286451
86783151455923,-1.7363893,9.208851,-1.2981006000000002
86783171311909,-1.6214283,8.643626,-0.9053174
86783191170213,-1.3962965,8.703502,-0.16525635
86783211028389,-1.1639795,9.081914999999999,-0.22992188
86783230886693,-0.8933423,9.5489435,-0.6346801999999999
86783250744997,-0.62989014,10.451866,-0.23471193
86783270602953,-0.1460962,11.084151,0.021555176000000002
86783290461257,-0.038320314,11.029065,0.12454102
86783310319433,-0.122146,10.138117999999999,-0.3305127
86783330177737,-0.5748047,9.21364,-0.6730005
86783350035913,-1.4226416000000002,9.15137,-0.20118165
86783369886579,-1.9758912,9.342972,-0.14370118
86783389744627,-2.1339624,9.342972,-0.3520679
86783409602803,-1.9232006999999998,9.5489435,0.4766089
86783429460979,-1.3579761000000001,9.575289,0.7759864000000001
86783449319027,-1.0226734,9.505833,0.9148975
86783469179349,-1.3244458000000001,9.534574000000001,1.477727
86783489037397,-1.4873072,9.501043,1.4609618999999998
86783508895573,-1.334026,9.350157000000001,0.4526587
86783528753749,-1.1472143999999997,9.307046000000001,0.42870852
86783548611797,-0.73527104,9.405242,0.34967285
86783568486607,-0.24908204,9.683064,-0.033530276
86783588345167,0.25866213,10.368039999999999,0.6682104999999999
86783608203727,0.54366946,11.141631,1.3052857
86783628062287,-0.80712163,11.282936999999999,0.7113208000000001
86783647920719,-2.6776318999999997,10.590776,-0.2802173
86783667782510,-2.7303224,9.433982,-0.613125
86783687641198,-1.3172607,8.370594,-0.96040285
86783707500014,0.05748047,8.126302,-1.0083033000000001
86783727358702,0.41194338,8.006551,-1.5639478
86783747217390,0.24668702,8.437654499999999,0.21555176
86783767072731,0.76880133,8.851992999999998,0.75203615
86783786931291,0.5460645000000001,9.522598,0.76880133
86783806789723,0.028740235,9.259146000000001,1.0633887
86783826648283,-0.34009278,8.435259,1.0849438999999999
86783846506843,-0.9268726,8.3179035,1.0226734
86783866364659,-1.3507911,8.983719,0.9508228000000001
86783886223219,-1.3723463,9.587264,1.0514137
86783906081779,-1.1831397,9.616004,1.0154883
86783925940339,-1.0777588,9.328602,0.87178713
86783945798899,-0.8478370000000001,9.445957,0.87178713
86783965661779,-0.5340894,9.620794,0.94603276
86783985520467,-0.5508545,9.697434,1.3148658000000002
86784005379027,-0.9508228000000001,9.618399,1.4441968
86784025237715,-1.2502003000000002,9.366921000000001,0.8143066999999999
86784045096403,-1.4418018,9.216036,0.11017089999999999
86784064955176,-1.7723145,9.426797,0.009580079
86784084813864,-1.9950514,9.841136,0.6442603
86784104672552,-2.2441335,9.929751,0.9867481
86784124531240,-1.6453785,9.7142,0.4023633
86784144389928,-1.2310401000000002,9.711803999999999,0.57719976
86784164248390,-1.1735597,9.869876,0.51013917
86784184107078,-1.1807446000000001,9.896221,-0.05508545
86784203965638,-1.5974781999999998,10.114168,-0.12933107
86784223824326,-1.8537452,10.298584,-0.035925295
86784243683014,-1.5352076000000001,10.056687,-0.14130616
86784263538409,-1.331631,9.968072,0.033530276
86784283396969,-1.5423926000000001,9.901011,0.2778223
86784303255657,-1.6214283,9.702225,0.244292
86784323114217,-1.4178516,9.580078,-0.21794678
86784342972777,-1.214275,9.580078,-0.57959473
86784362826997,-1.1232642,9.536968,-0.7879615
86784382685429,-1.2502003000000002,9.541758999999999,-0.6706055000000001
86784402543861,-1.3675561999999999,9.630374,-0.4742139
86784422402421,-1.4082716,9.716595,-0.17244141
86784442260853,-1.4202466,9.72857,-0.12454102
86784462112403,-1.4513819,9.716595,-0.42391850000000003
86784481970835,-1.5184423999999999,9.716595,-0.7185059
86784501829139,-1.5735278999999998,9.716595,-0.69695073
86784521687443,-1.5543678,9.690249,-0.5724097
86784541545747,-1.4441968,9.532178,-0.4047583
86784561403515,-1.3627661,9.534574000000001,-0.5029541000000001
86784581261819,-1.4130616000000003,9.551338000000001,-0.59156984
86784601120123,-1.3795313,9.721385,-0.6059399999999999
86784620978555,-1.3268408999999999,9.850716,-0.5676197
86784640836859,-1.2789403999999998,9.83874,-0.60833496
86784660696217,-1.2909156000000002,9.6758795,-0.5891748
86784680554649,-1.3196558,9.692644,-0.74724615
86784700413081,-1.3483961000000002,9.70941,-0.8909473
86784720271513,-1.2765454,9.77168,-0.974773
86784740129945,-1.2022998,9.7740755,-0.94603276
86784759982489,-1.2813355,9.6615095,-0.63707525
86784779840665,-1.1400293,9.6758795,-0.7376661
86784799692873,-0.977168,9.6615095,-0.86939216
86784819551177,-0.76161623,9.594449000000001,-1.1160791
86784839409481,-0.728086,9.572892999999999,-1.2909156000000002
86784859267486,-0.8598120000000001,9.644744000000001,-1.2310401000000002
86784879125662,-0.8909473,9.630374,-0.9364527
86784898983966,-0.81909674,9.656719,-0.8646021
86784918842270,-0.7065308000000001,9.702225,-1.0466236
86784938700446,-0.61552006,9.695039999999999,-1.1615845
86784958548254,-0.728086,9.740545,-0.96758795
86784978406174,-0.80233157,9.683064,-0.8214916999999999
86784998264094,-0.79035646,9.596844,-0.99393314
86785018122014,-0.8286768,9.627979,-1.1615845
86785037980062,-0.87897223,9.616004,-1.1567944
86785057843333,-0.92208254,9.635164,-1.0466236
86785077701381,-0.9651929,9.582474000000001,-1.0035132
86785097559301,-0.90052736,9.620794,-1.1064991000000002
86785117417349,-0.8861573,9.618399,-1.1783496
86785137275397,-0.9053174,9.639954,-1.1759547
86785157135784,-0.8262818000000001,9.711803999999999,-1.1136841999999998
86785176993960,-0.93405765,9.656719,-1.0394385
86785196852008,-0.94603276,9.663903999999999,-1.1376343
86785216710184,-0.9963281999999999,9.690249,-1.1424243
86785236568232,-1.0562036,9.618399,-1.0705738
86785256423957,-1.0633887,9.639954,-1.0921290000000001
86785276282005,-1.1591895,9.695039999999999,-1.0370435
86785296140053,-1.1879296999999998,9.733359,-1.089734
86785315998101,-1.1448194,9.740545,-1.0825489
86785335856149,-1.1112891000000003,9.673484,-1.0753639
86785355711271,-1.1304493,9.70941,-1.2094848999999999
86785375569191,-1.0873389,9.730965,-1.2621753
86785395427111,-1.0274634,9.75252,-1.1208692
86785415285159,-1.0585986,9.711803999999999,-1.1160791
86785435143079,-1.0322535,9.596844,-1.223855
86785455006215,-1.0274634,9.589659,-1.1591895
86785474864263,-1.0346485,9.606423,-1.0035132
86785494722311,-1.0011181999999998,9.718989,-1.0633887
86785514580231,-1.0490186000000001,9.678274,-1.096919
86785534438279,-0.9436377,9.656719,-1.2046948999999998
86785554308395,-0.91250247,9.644744000000001,-1.1615845
86785574166699,-0.91250247,9.618399,-1.0849438999999999
86785594025003,-0.79035646,9.627979,-1.1136841999999998
86785613883307,-0.7424561,9.630374,-1.0585986
86785633741611,-0.6945557,9.625584,-1.1041040000000002
86785653598470,-0.6514453,9.6686945,-1.1448194
86785673456774,-0.69695073,9.616004,-1.1280543
86785693315078,-0.7161109,9.644744000000001,-1.1041040000000002
86785713173382,-0.732876,9.642349000000001,-1.0633887
86785733031686,-0.75203615,9.687855,-1.0442286
86785752889990,-0.76161623,9.644744000000001,-1.0394385
86785772753560,-0.8334668,9.659114,-1.0011181999999998
86785792611992,-0.7568262,9.707015,-1.0418334999999999
86785812470424,-0.7544312,9.730965,-0.9484278
86785832328856,-0.6993457,9.666299,-1.0011181999999998
86785852187288,-0.6227050999999999,9.601633999999999,-1.0753639
86785872044591,-0.61073,9.611214,-0.9627979
86785891903023,-0.6179150999999999,9.711803999999999,-0.9963281999999999
86785911761455,-0.9244776,9.7812605,-0.9484278
86785931619887,-1.1448194,9.750125,-0.96040285
86785951478319,-1.2454101999999998,9.726174,-0.91250247
86785971339920,-1.2669654,9.666299,-0.96758795
86785991198480,-1.1064991000000002,9.635164,-1.214275
86786011056912,-1.0346485,9.642349000000001,-1.3220508
86786030915472,-0.98435307,9.623189,-1.3100758
86786050774032,-0.90052736,9.568104,-1.3220508
86786070640302,-1.0106983,9.584868,-1.2957056999999998
86786090498990,-0.98435307,9.654325,-1.2334352
86786110357678,-0.9699829,9.678274,-1.1735597
86786130216238,-0.96758795,9.625584,-1.2741505
86786150074926,-0.8885523000000001,9.546548,-1.3675561999999999
86786169924471,-0.9508228000000001,9.637559,-1.3412110000000002
86786189783031,-0.87897223,9.666299,-1.1975098
86786209641463,-0.8933423,9.74773,-1.1591895
86786229500023,-0.9029224,9.639954,-1.2502003000000002
86786249358583,-0.8909473,9.599238,-1.4441968
86786269221798,-0.92208254,9.503438000000001,-1.4178516
86786289080358,-0.9412427,9.613608000000001,-1.331631
86786308939046,-1.0130934,9.6615095,-1.1783496
86786328797606,-0.974773,9.642349000000001,-1.3052857
86786348656294,-0.97237796,9.651928999999999,-1.5352076000000001
86786368514628,-1.0873389,9.616004,-1.4346168
86786388373316,-1.094524,9.642349000000001,-1.4418018
86786408231876,-1.1615845,9.632769,-1.2837305
86786428090436,-1.1567944,9.625584,-1.331631
86786447949124,-1.0466236,9.620794,-1.4465919
86786467804118,-1.0490186000000001,9.601633999999999,-1.3819263000000002
86786487662550,-0.9699829,9.5561285,-1.5208374
86786507521110,-1.0777588,9.5489435,-1.4465919
86786527379670,-1.1496094,9.572892999999999,-1.3747413
86786547238230,-1.0035132,9.623189,-1.3052857
86786567094509,-0.9987232,9.589659,-1.3651612
86786586952941,-0.94603276,9.6758795,-1.585503
86786606811373,-0.9627979,9.692644,-1.4849122
86786626669933,-0.9987232,9.64714,-1.3627661
86786646528365,-1.0011181999999998,9.697434,-1.2981006000000002
86786666388680,-1.0753639,9.589659,-1.2981006000000002
86786686247240,-0.98914313,9.5489435,-1.5256275
86786706105800,-1.0370435,9.570497999999999,-1.5208374
86786725964360,-1.1376343,9.604028999999999,-1.3891114
86786745822920,-1.089734,9.644744000000001,-1.3962965
86786765668655,-1.101709,9.608819,-1.4250367
86786785526959,-1.0753639,9.611214,-1.5352076000000001
86786805376983,-1.0585986,9.618399,-1.5663428
86786825235287,-1.0538087,9.589659,-1.4944923
86786845093591,-1.0130934,9.644744000000001,-1.4992822000000001
86786864945591,-1.0585986,9.522598,-1.5256275
86786884803767,-1.089734,9.524992999999998,-1.5423926000000001
86786904661943,-1.0681788,9.570497999999999,-1.5208374
86786924519991,-1.1160791,9.570497999999999,-1.4441968
86786944378167,-1.1041040000000002,9.630374,-1.5160475
86786964233630,-1.1160791,9.553733,-1.465752
86786984091550,-1.089734,9.553733,-1.4944923
86787003949598,-1.1639795,9.637559,-1.4058765
86787023807646,-1.1639795,9.721385,-1.4082716
86787043665566,-1.0849438999999999,9.604028999999999,-1.5423926000000001
86787063528496,-1.1663746000000002,9.560919,-1.5328126
86787083386544,-1.1807446000000001,9.532178,-1.4250367
86787103244720,-1.089734,9.592053,-1.2765454
86787123102768,-1.1064991000000002,9.613608000000001,-1.3531861
86787142960816,-1.0849438999999999,9.644744000000001,-1.5567628
86787162819320,-1.0753639,9.596844,-1.4513819
86787182677496,-1.1041040000000002,9.584868,-1.4106666
86787202535672,-1.1376343,9.5633135,-1.3651612
86787222393848,-1.1855347,9.575289,-1.3603711
86787242252024,-1.1280543,9.639954,-1.4130616000000003
86787262107191,-1.1424243,9.587264,-1.3819263000000002
86787281965239,-1.101709,9.551338000000001,-1.5328126
86787301823287,-1.1687696,9.601633999999999,-1.5280225
86787321681335,-1.2094848999999999,9.587264,-1.4130616000000003
86787341539383,-1.1232642,9.608819,-1.4106666
86787361394723,-1.2406201000000001,9.575289,-1.3555812
86787381252771,-1.1639795,9.532178,-1.5040723
86787401110691,-1.0729688,9.570497999999999,-1.4489869
86787420968739,-1.1400293,9.642349000000001,-1.3100758
86787440826659,-1.0825489,9.690249,-1.3675561999999999
86787460686223,-1.0609937,9.654325,-1.3651612
86787480544271,-1.0514137,9.558523,-1.463357
86787500402191,-1.0562036,9.544153,-1.4513819
86787520260111,-1.099314,9.601633999999999,-1.2525953
86787540118159,-0.98195803,9.697434,-1.2837305
86787559984051,-1.0250684,9.630374,-1.3531861
86787579842099,-1.0921290000000001,9.623189,-1.4920973
86787599700275,-1.0657837,9.606423,-1.3915064
86787619558323,-1.0562036,9.613608000000001,-1.2358301999999999
86787639416499,-1.0609937,9.544153,-1.331631
86787659283432,-1.1112891000000003,9.589659,-1.4010864
86787679141736,-1.0538087,9.582474000000001,-1.3699511999999998
86787699000168,-1.0657837,9.611214,-1.3028906999999998
86787718858472,-1.1400293,9.671089,-1.3507911
86787738716904,-1.096919,9.687855,-1.4274316999999999
86787758574507,-1.1591895,9.582474000000001,-1.3436059999999999
86787778432811,-1.0921290000000001,9.513017999999999,-1.2957056999999998
86787798291115,-1.0609937,9.572892999999999,-1.2981006000000002
86787818149419,-1.1160791,9.620794,-1.2885206
86787838007723,-1.0394385,9.690249,-1.4585668999999999
86787857865770,-1.1496094,9.6758795,-1.3292358999999998
86787877724074,-1.1208692,9.589659,-1.2837305
86787897582379,-1.0514137,9.604028999999999,-1.2717555
86787917440810,-1.0705738,9.565708,-1.3172607
86787937308438,-1.0633887,9.599238,-1.4274316999999999
86787957166999,-1.1041040000000002,9.630374,-1.2717555
86787977025558,-1.0801538,9.608819,-1.2645704
86787996884118,-1.0609937,9.589659,-1.3531861
86788016742807,-1.0801538,9.625584,-1.3124708
86788036601366,-1.0609937,9.666299,-1.2573853000000002
86788056465629,-1.1208692,9.637559,-1.1735597
86788076324318,-1.094524,9.608819,-1.2981006000000002
86788096183005,-1.0178833,9.618399,-1.3483961000000002
86788116041821,-1.0849438999999999,9.558523,-1.2669654
86788135900510,-1.094524,9.627979,-1.2957056999999998
86788155760415,-1.1783496,9.632769,-1.1879296999999998
86788175619231,-1.096919,9.553733,-1.2094848999999999
86788195478048,-1.0346485,9.486672,-1.3915064
86788215336863,-1.1591895,9.568104,-1.2166698999999999
86788235196866,-1.0106983,9.666299,-1.1999048
86788255055811,-1.1136841999999998,9.683064,-1.1160791
86788274914628,-1.1591895,9.606423,-1.2837305
86788294773570,-1.096919,9.666299,-1.223855
86788314632387,-1.0777588,9.64714,-1.0490186000000001
86788334491330,-1.0178833,9.582474000000001,-1.0825489
86788354350078,-1.089734,9.671089,-1.2861254999999998
86788374208895,-1.1567944,9.673484,-1.1855347
86788394067710,-1.0442286,9.642349000000001,-1.101709
86788413926526,-1.0705738,9.570497999999999,-1.0609937
86788433785343,-1.0154883,9.649534,-1.2669654
86788453643450,-1.0538087,9.642349000000001,-1.2549903
86788473502267,-1.0729688,9.553733,-1.1376343
86788493361084,-1.0777588,9.558523,-1.1520045
86788513219901,-1.096919,9.64714,-1.1208692
86788533075688,-1.0106983,9.718989,-1.2166698999999999
86788552934377,-1.094524,9.683064,-1.2382251
86788572793194,-1.1663746000000002,9.553733,-1.2310401000000002
86788592651883,-0.98195803,9.596844,-1.1687696
86788612510700,-1.0035132,9.606423,-1.0705738
86788632369389,-1.0202783000000002,9.6615095,-1.223855
86788652221974,-0.9915381,9.721385,-1.2430152
86788672080663,-1.0274634,9.632769,-1.1615845
86788691939352,-1.0202783000000002,9.520203,-1.2094848999999999
86788711798041,-1.0130934,9.493857,-1.1472143999999997
86788731656730,-0.9915381,9.627979,-1.1567944
86788751509317,-0.98435307,9.699829,-1.223855
86788771367862,-1.0202783000000002,9.630374,-1.2478052
86788791226295,-1.0681788,9.5561285,-1.2597803
86788811086160,-1.1136841999999998,9.604028999999999,-1.1136841999999998
86788830944720,-0.98914313,9.848321,-1.1615845
86788850803281,-1.0059083,9.74773,-1.1591895
86788870651391,-1.094524,9.635164,-1.2813355
86788890509695,-1.0801538,9.685459,-1.1855347
86788910368000,-1.0202783000000002,9.730965,-1.0274634
86788930226303,-1.0178833,9.611214,-1.2118799999999998
86788950075752,-1.1041040000000002,9.527389,-1.3172607
86788969933801,-1.0418334999999999,9.572892999999999,-1.22625
86788989791848,-1.0274634,9.589659,-1.1184741000000002
86789009650024,-1.0538087,9.644744000000001,-1.2166698999999999
86789029508073,-1.0849438999999999,9.726174,-1.346001
86789049368107,-1.094524,9.7142,-1.2621753
86789069226155,-1.1448194,9.656719,-1.1280543
86789089084204,-1.1184741000000002,9.5633135,-1.22146
86789108942251,-1.1280543,9.520203,-1.3747413
86789128800299,-1.0921290000000001,9.520203,-1.3579761000000001
86789148658476,-1.0035132,9.623189,-1.2046948999999998
86789168512383,-1.0274634,9.697434,-1.1352394
86789188370303,-1.096919,9.6758795,-1.2669654
86789208228352,-1.1160791,9.656719,-1.3052857
86789228086271,-1.0418334999999999,9.663903999999999,-1.2286451
86789247949926,-1.0035132,9.639954,-1.1472143999999997
86789267807975,-1.0394385,9.587264,-1.2094848999999999
86789287666150,-0.9699829,9.536968,-1.3100758
86789307524198,-1.0274634,9.589659,-1.22146
86789327382247,-1.0274634,9.671089,-1.1496094
86789347240296,-0.91010743,9.750125,-1.2334352
86789367096929,-0.9699829,9.687855,-1.2573853000000002
86789386954978,-1.0059083,9.5561285,-1.2693603999999998
86789406813027,-1.0274634,9.565708,-1.1783496
86789426671076,-1.0226734,9.606423,-1.1208692
86789446529125,-0.9867481,9.70941,-1.2789403999999998
86789466390848,-1.0442286,9.690249,-1.2597803
86789486248897,-1.0753639,9.627979,-1.2502003000000002
86789506106946,-1.0777588,9.536968,-1.1639795
86789525964995,-1.0250684,9.627979,-1.1520045
86789545829128,-0.9651929,9.6758795,-1.22625
86789565687305,-1.0130934,9.6686945,-1.2358301999999999
86789585545482,-1.0394385,9.608819,-1.1879296999999998
86789605403659,-1.0418334999999999,9.618399,-1.1591895
86789625261836,-1.0106983,9.651928999999999,-1.2094848999999999
86789645120013,-0.9532178,9.699829,-1.223855
86789664985394,-0.9987232,9.6758795,-1.1735597
86789684843699,-0.9867481,9.608819,-1.1400293
86789704702004,-1.0562036,9.642349000000001,-1.1280543
86789724560437,-1.0226734,9.596844,-1.1400293
86789744418742,-0.96758795,9.635164,-1.1687696
86789764280905,-1.0250684,9.570497999999999,-1.1999048
86789784139317,-0.9963281999999999,9.606423,-1.1424243
86789803997750,-0.9388476999999998,9.733359,-1.094524
86789823856181,-0.9316626,9.778865,-1.1472143999999997
86789843714846,-0.9915381,9.683064,-1.2094848999999999
86789863573279,-1.0466236,9.587264,-1.1472143999999997
86789883431710,-0.98914313,9.639954,-1.1232642
86789903290142,-0.9364527,9.577683,-1.223855
86789923148575,-1.0083033000000001,9.568104,-1.2525953
86789943007006,-0.97237796,9.654325,-1.0705738
86789962864841,-0.9388476999999998,9.6758795,-1.0442286
86789982723274,-0.8885523000000001,9.618399,-1.2454101999999998
86790002581833,-1.0226734,9.639954,-1.1759547
86790022440393,-1.0130934,9.632769,-1.0370435
86790042298826,-0.9484278,9.673484,-1.0514137
86790062158257,-1.0370435,9.666299,-1.1663746000000002
86790082016945,-1.0274634,9.673484,-1.2358301999999999
86790101875506,-1.0011181999999998,9.64714,-1.0777588
86790121734065,-1.0585986,9.618399,-1.0609937
86790141596618,-0.94603276,9.707015,-1.1855347
86790161455307,-0.9963281999999999,9.673484,-1.1999048
86790181313996,-1.0705738,9.553733,-1.22625
86790201172682,-1.0538087,9.489068,-1.094524
86790221031371,-0.9987232,9.582474000000001,-1.094524
86790240890058,-0.9580079,9.740545,-1.1567944
86790260749168,-1.0130934,9.7621,-1.223855
86790280607857,-1.0370435,9.663903999999999,-1.2022998
86790300466544,-1.101709,9.599238,-1.1112891000000003
86790320325232,-1.0753639,9.601633999999999,-1.0346485
86790340183921,-0.9532178,9.654325,-1.1927198
86790360041749,-1.0562036,9.625584,-1.2837305
86790379900437,-1.1136841999999998,9.606423,-1.22146
86790399759126,-1.0849438999999999,9.692644,-1.0825489
86790419617813,-1.0514137,9.663903999999999,-1.0777588
86790439476629,-0.977168,9.611214,-1.3004956
86790459335318,-1.0681788,9.558523,-1.2813355
86790479180505,-1.099314,9.572892999999999,-1.2166698999999999
86790499038937,-1.1256591999999999,9.606423,-1.096919
86790518897242,-1.1424243,9.6686945,-1.096919
86790538755673,-1.0921290000000001,9.695039999999999,-1.2430152
86790558603091,-1.0801538,9.606423,-1.22625
86790578461140,-1.089734,9.594449000000001,-1.1999048
86790598319315,-1.096919,9.695039999999999,-1.1328443000000001
86790618177491,-1.0753639,9.630374,-1.1711646
86790638035668,-1.0322535,9.604028999999999,-1.3004956
86790657887248,-1.1639795,9.575289,-1.1663746000000002
86790677745168,-1.0609937,9.64714,-1.1687696
86790697603217,-1.0130934,9.690249,-1.1424243
86790717461264,-1.0681788,9.546548,-1.2957056999999998
86790737319312,-1.1136841999999998,9.582474000000001,-1.3723463
86790757177233,-1.1448194,9.644744000000001,-1.0466236
86790777034482,-1.0394385,9.671089,-1.1256591999999999
86790796892402,-1.094524,9.637559,-1.2525953
86790816750323,-1.1855347,9.575289,-1.2957056999999998
86790836610634,-1.0921290000000001,9.625584,-1.1711646
86790856468583,-1.101709,9.616004,-1.0466236
86790876326504,-1.1543995,9.627979,-1.22146
86790896184423,-1.0801538,9.64714,-1.3076807
86790916042343,-1.1663746000000002,9.570497999999999,-1.1112891000000003
86790935900136,-1.1256591999999999,9.627979,-1.0873389
86790955751867,-1.0777588,9.6686945,-1.0633887
86790975609531,-1.0250684,9.711803999999999,-1.2286451
86790995467324,-1.0681788,9.632769,-1.2549903
86791015324987,-1.094524,9.608819,-1.1184741000000002
86791035182779,-1.0202783000000002,9.642349000000001,-1.0274634
86791055040444,-1.0585986,9.68067,-1.1663746000000002
86791074898839,-1.0729688,9.678274,-1.2717555
86791094756631,-1.0490186000000001,9.656719,-1.2933106
86791114614296,-1.2046948999999998,9.522598,-1.096919
86791134472087,-1.1088941,9.5489435,-1.1903248
86791154336329,-1.1448194,9.618399,-1.214275
86791174194122,-1.0849438999999999,9.673484,-1.3004956
86791194052041,-1.1280543,9.632769,-1.2118799999999998
86791213909833,-1.214275,9.627979,-1.1831397
86791233767626,-1.0849438999999999,9.604028999999999,-1.2789403999999998
86791253626935,-1.0657837,9.608819,-1.219065
86791273484855,-1.0729688,9.618399,-1.2981006000000002
86791293342776,-1.0825489,9.695039999999999,-1.2454101999999998
86791313200567,-1.0921290000000001,9.618399,-1.1376343
86791333058487,-1.0083033000000001,9.678274,-1.2094848999999999
86791352916408,-1.0633887,9.659114,-1.2382251
86791372773911,-1.0921290000000001,9.577683,-1.2621753
86791392631831,-1.0514137,9.584868,-1.219065
86791412489752,-1.1687696,9.575289,-1.089734
86791432347671,-1.0681788,9.64714,-1.2621753
86791452207352,-1.0562036,9.6686945,-1.2046948999999998
86791472065273,-1.1352394,9.625584,-1.1999048
86791491923192,-1.1208692,9.711803999999999,-1.22146
86791511781240,-1.1352394,9.685459,-1.1615845
86791531639161,-1.1112891000000003,9.582474000000001,-1.2454101999999998
86791551497080,-1.1615845,9.584868,-1.219065
86791571356408,-1.1064991000000002,9.618399,-1.1424243
86791591214329,-0.9963281999999999,9.687855,-1.2502003000000002
86791611072248,-1.1376343,9.594449000000001,-1.219065
86791630930168,-1.1328443000000001,9.623189,-1.2717555
86791650788089,-1.1615845,9.651928999999999,-1.1352394
86791670653024,-1.1136841999999998,9.704619000000001,-1.0873389
86791690511072,-1.0202783000000002,9.596844,-1.3148658000000002
86791710369121,-1.1663746000000002,9.515413,-1.3603711
86791730227168,-1.214275,9.671089,-1.3603711
86791750097144,-1.2334352,9.735755000000001,-1.1663746000000002
86791769955577,-1.1759547,9.663903999999999,-1.2909156000000002
86791789813880,-1.1184741000000002,9.589659,-1.590293
86791809672184,-1.1711646,9.489068,-1.465752
86791829530489,-1.0514137,9.496253,-1.2310401000000002
86791849388920,-0.98914313,9.623189,-1.1424243
86791869253965,-1.0609937,9.630374,-1.2741505
86791889112526,-0.97237796,9.690249,-1.4897022
86791908971085,-1.1951148999999999,9.599238,-1.1400293
86791928829645,-1.2861254999999998,9.613608000000001,-1.0274634
86791948688206,-1.2358301999999999,9.587264,-1.0466236
86791968548166,-1.2358301999999999,9.570497999999999,-1.1615845
86791988406854,-1.1567944,9.673484,-1.2765454
86792008265543,-1.1687696,9.649534,-1.1424243
86792028124230,-1.0801538,9.625584,-1.1376343
86792047981492,-1.0274634,9.651928999999999,-1.1496094
86792067840181,-1.0538087,9.644744000000001,-1.1879296999999998
86792087698868,-1.0250684,9.592053,-1.1879296999999998
86792107557428,-1.0705738,9.5561285,-1.1208692
86792127416117,-1.0705738,9.601633999999999,-1.1448194
86792147274676,-1.0202783000000002,9.635164,-1.2789403999999998
86792167133949,-1.0585986,9.592053,-1.2166698999999999
86792186992638,-1.0394385,9.570497999999999,-1.2358301999999999
86792206851197,-1.1256591999999999,9.575289,-1.1615845
86792226709885,-1.0538087,9.630374,-1.1687696
86792246568574,-0.9867481,9.702225,-1.2118799999999998
86792266431467,-1.0250684,9.644744000000001,-1.1783496
86792286290155,-1.0729688,9.527389,-1.1280543
86792306148844,-1.0609937,9.611214,-1.0562036
86792326007403,-1.0083033000000001,9.630374,-1.101709
86792345869486,-1.0154883,9.635164,-1.1831397
86792365728303,-1.1543995,9.589659,-1.1687696
86792385587118,-1.1112891000000003,9.64714,-1.101709
86792405445934,-1.0394385,9.718989,-0.99393314
86792425304751,-1.101709,9.678274,-0.9963281999999999
86792445163566,-1.1472143999999997,9.606423,-1.1448194
86792465019237,-1.219065,9.575289,-1.1951148999999999
86792484877926,-1.1711646,9.654325,-1.2166698999999999
86792504736741,-1.1567944,9.678274,-1.1232642
86792524595557,-1.1855347,9.584868,-1.0394385
86792544454374,-1.214275,9.570497999999999,-1.0729688
86792564303345,-1.1591895,9.6758795,-1.0083033000000001
86792584161905,-0.9316626,9.78605,-1.1088941
86792604020466,-0.9244776,9.707015,-1.2669654
86792623879025,-1.0370435,9.532178,-1.3196558
86792643725766,-1.1448194,9.498648,-1.1927198
86792663584071,-1.2094848999999999,9.632769,-0.9627979
86792683442374,-1.1472143999999997,9.6758795,-1.1496094
86792703300678,-1.1304493,9.642349000000001,-1.3507911
86792723158983,-1.1280543,9.570497999999999,-1.463357
86792743017286,-1.2382251,9.570497999999999,-1.2909156000000002
86792762876693,-1.2885206,9.568104,-1.1711646
86792782734998,-1.2813355,9.656719,-1.1903248
86792802593429,-1.2813355,9.654325,-1.3867163999999998
86792822451733,-1.3483961000000002,9.553733,-1.456172
86792842310166,-1.3939015,9.515413,-1.3843212999999999
86792862163320,-1.3507911,9.570497999999999,-1.219065
86792882021496,-1.2046948999999998,9.673484,-1.2070899
86792901879673,-1.1687696,9.699829,-1.3962965
86792921737848,-1.2118799999999998,9.582474000000001,-1.4873072
86792941596152,-1.2406201000000001,9.558523,-1.4394068000000002
86792961454329,-1.3268408999999999,9.577683,-1.2070899
86792981311381,-1.2669654,9.572892999999999,-1.2621753
86793001169557,-1.2454101999999998,9.558523,-1.4346168
86793021027606,-1.3292358999999998,9.539363,-1.463357
86793040885781,-1.331631,9.620794,-1.4849122
86793060740088,-1.3364209999999999,9.558523,-1.2717555
86793080598009,-1.2669654,9.627979,-1.3962965
86793100456056,-1.3292358999999998,9.584868,-1.3603711
86793120313976,-1.3364209999999999,9.623189,-1.3986914
86793140172025,-1.2909156000000002,9.517808,-1.3771361999999998
86793160027383,-1.3172607,9.479486999999999,-1.3100758
86793179885175,-1.214275,9.570497999999999,-1.3843212999999999
86793199743096,-1.1927198,9.604028999999999,-1.3531861
86793219601015,-1.2885206,9.630374,-1.4322218
86793239458935,-1.4298267,9.6686945,-1.4418018
86793259316728,-1.5471827,9.613608000000001,-1.3723463
86793279173908,-1.5399976,9.613608000000001,-1.2813355
86793299031828,-1.4082716,9.606423,-1.2837305
86793318889621,-1.3220508,9.5561285,-1.4106666
86793338747540,-1.2813355,9.575289,-1.575923
86793358604582,-1.4178516,9.524992999999998,-1.3651612
86793378462503,-1.3579761000000001,9.577683,-1.2837305
86793398320294,-1.2765454,9.659114,-1.3196558
86793418178214,-1.3603711,9.541758999999999,-1.4489869
86793438036135,-1.3867163999999998,9.469908,-1.5711329
86793457897479,-1.456172,9.560919,-1.3028906999999998
86793477755399,-1.3436059999999999,9.6615095,-1.1855347
86793497613320,-1.2549903,9.649534,-1.2909156000000002
86793517471239,-1.3292358999999998,9.541758999999999,-1.5136524
86793537329159,-1.3771361999999998,9.496253,-1.5663428
86793557187080,-1.3915064,9.568104,-1.214275
86793577040903,-1.2885206,9.659114,-1.0418334999999999
86793596898696,-1.22625,9.666299,-1.3148658000000002
86793616756489,-1.3483961000000002,9.489068,-1.5016773
86793636614282,-1.2621753,9.510622999999999,-1.585503
86793656478475,-1.2046948999999998,9.529783,-1.3819263000000002
86793676336396,-1.1400293,9.623189,-1.2478052
86793696194317,-1.1424243,9.594449000000001,-1.3699511999999998
86793716052238,-1.2573853000000002,9.527389,-1.4274316999999999
86793735910159,-1.2597803,9.532178,-1.4346168
86793755768080,-1.1951148999999999,9.637559,-1.3124708
86793775623193,-1.1472143999999997,9.654325,-1.3939015
86793795480986,-1.2765454,9.572892999999999,-1.4920973
86793815338905,-1.3819263000000002,9.501043,-1.4178516
86793835196825,-1.3004956,9.546548,-1.22625
86793855054618,-1.2430152,9.611214,-1.1927198
86793874920619,-1.2502003000000002,9.627979,-1.4729371
86793894778667,-1.3028906999999998,9.587264,-1.5136524
86793914636716,-1.3388159,9.570497999999999,-1.2406201000000001
86793934494891,-1.2310401000000002,9.613608000000001,-1.1855347
86793954360674,-1.3052857,9.5561285,-1.3196558
86793974218979,-1.3699511999999998,9.594449000000001,-1.4585668999999999
86793994077282,-1.2909156000000002,9.642349000000001,-1.2957056999999998
86794013935586,-1.3052857,9.584868,-1.1663746000000002
86794033793891,-1.2909156000000002,9.608819,-1.3076807
86794053652194,-1.2909156000000002,9.575289,-1.3843212999999999
86794073519909,-1.2454101999999998,9.611214,-1.2573853000000002
86794093378342,-1.2022998,9.627979,-1.2022998
86794113236901,-1.2094848999999999,9.656719,-1.1855347
86794133095333,-1.1496094,9.589659,-1.3723463
86794152953894,-1.214275,9.520203,-1.3220508
86794172814262,-1.2933106,9.599238,-1.1208692
86794192672823,-1.2046948999999998,9.623189,-1.1160791
86794212531384,-1.2621753,9.594449000000001,-1.2645704
86794232389942,-1.3268408999999999,9.5633135,-1.4585668999999999
86794252253183,-1.346001,9.599238,-1.346001
86794272111872,-1.3412110000000002,9.613608000000001,-1.1783496
86794291970431,-1.3196558,9.649534,-1.2693603999999998
86794311828991,-1.3747413,9.663903999999999,-1.2765454
86794331687680,-1.2861254999999998,9.592053,-1.3555812
86794351546241,-1.3124708,9.491463000000001,-1.1999048
86794371401668,-1.1855347,9.546548,-1.1088941
86794391260229,-1.0681788,9.707015,-1.1376343
86794411118790,-1.1232642,9.716595,-1.2597803
86794430977351,-1.1591895,9.632769,-1.331631
86794450836040,-1.1975098,9.539363,-1.2046948999999998
86794470690649,-1.2118799999999998,9.565708,-1.0274634
86794490549210,-1.0729688,9.604028999999999,-1.1927198
86794510407643,-1.2286451,9.594449000000001,-1.3028906999999998
86794530266204,-1.2741505,9.611214,-1.3771361999999998
86794550120311,-1.2957056999999998,9.649534,-1.2454101999999998
86794569978744,-1.346001,9.623189,-1.1208692
86794589837305,-1.2597803,9.572892999999999,-1.4010864
86794609695738,-1.3962965,9.491463000000001,-1.3771361999999998
86794629554299,-1.3962965,9.477093,-1.3531861
86794649412732,-1.4250367,9.529783,-1.1543995
86794669265259,-1.3939015,9.596844,-1.0705738
86794689123564,-1.2789403999999998,9.678274,-1.3076807
86794708981997,-1.3507911,9.678274,-1.2478052
86794728840302,-1.3124708,9.6758795,-1.2046948999999998
86794748698735,-1.2957056999999998,9.606423,-1.0801538
86794768552504,-1.3651612,9.503438000000001,-1.101709
86794788410788,-1.3196558,9.572892999999999,-1.2046948999999998
86794808269093,-1.3076807,9.678274,-1.0490186000000001
86794828127268,-1.2166698999999999,9.671089,-1.2094848999999999
86794847985572,-1.2669654,9.546548,-1.3220508
86794867843877,-1.3579761000000001,9.505833,-1.2358301999999999
86794887697230,-1.22625,9.642349000000001,-1.0585986
86794907555406,-1.1591895,9.649534,-1.0226734
86794927413583,-1.2070899,9.644744000000001,-1.214275
86794947271758,-1.2046948999999998,9.580078,-1.3148658000000002
86794967132421,-1.2885206,9.601633999999999,-1.1400293
86794986990598,-1.2813355,9.608819,-1.0873389
86795006848773,-1.2334352,9.627979,-1.2549903
86795026706949,-1.1951148999999999,9.539363,-1.4298267
86795046565126,-1.2286451,9.568104,-1.3627661
86795066419923,-1.3028906999999998,9.544153,-1.1783496
86795086277971,-1.22625,9.630374,-1.1759547
86795106136020,-1.1927198,9.656719,-1.2669654
86795125994195,-1.2046948999999998,9.683064,-1.3220508
86795145852243,-1.1424243,9.642349000000001,-1.2597803
86795165710292,-1.1975098,9.501043,-1.1280543
86795185568243,-1.1064991000000002,9.560919,-1.1975098
86795205426292,-1.1903248,9.575289,-1.1208692
86795225284341,-1.22146,9.632769,-1.2717555
86795245142387,-1.2573853000000002,9.64714,-1.2334352
86795265004058,-1.331631,9.618399,-1.1687696
86795284862235,-1.2454101999999998,9.642349000000001,-1.1304493
86795304720282,-1.214275,9.594449000000001,-1.1591895
86795324578458,-1.2621753,9.510622999999999,-1.2765454
86795344436507,-1.2789403999999998,9.599238,-1.22146
86795364294777,-1.2789403999999998,9.584868,-1.0466236
86795384152826,-1.2525953,9.639954,-1.0418334999999999
86795404010747,-1.3076807,9.683064,-1.1400293
86795423868796,-1.3100758,9.671089,-1.2166698999999999
86795443726845,-1.2406201000000001,9.632769,-1.0705738
86795463584894,-1.2549903,9.666299,-1.0202783000000002
86795483442815,-1.1783496,9.64714,-1.099314
86795503300736,-1.101709,9.589659,-1.2286451
86795523158785,-1.2070899,9.517808,-1.1615845
86795543016706,-1.22146,9.659114,-0.9987232
86795562872431,-1.1448194,9.635164,-1.0274634
86795582730352,-1.1160791,9.524992999999998,-1.1663746000000002
86795602588273,-1.1639795,9.589659,-1.1472143999999997
86795622446194,-1.1615845,9.764495,-0.9627979
86795642304243,-1.0609937,9.77168,-0.93405765
86795662162164,-1.1879296999999998,9.601633999999999,-1.1903248
86795682030173,-1.2645704,9.572892999999999,-1.2118799999999998
86795701888350,-1.1879296999999998,9.6758795,-0.9484278
86795721746527,-1.1807446000000001,9.666299,-0.96040285
86795741604704,-1.1496094,9.592053,-1.2166698999999999
86795761462881,-1.2310401000000002,9.489068,-1.2621753
86795781324116,-1.2765454,9.553733,-1.0849438999999999
86795801182292,-1.2981006000000002,9.6758795,-0.92208254
86795821040597,-1.3100758,9.687855,-1.101709
86795840898900,-1.3172607,9.592053,-1.2669654
86795860766847,-1.3747413,9.616004,-1.1783496
86795880625408,-1.3076807,9.604028999999999,-0.9484278
86795900484095,-1.2094848999999999,9.666299,-1.0250684
86795920342655,-1.2310401000000002,9.627979,-1.2597803
86795940201216,-1.2358301999999999,9.687855,-1.1472143999999997
86795960059775,-1.2621753,9.5561285,-1.0729688
86795979925602,-1.3220508,9.491463000000001,-1.0059083
86795999784419,-1.2094848999999999,9.596844,-1.0106983
86796019643106,-1.1639795,9.639954,-1.1041040000000002
86796039501794,-1.1472143999999997,9.692644,-1.1711646
86796059360611,-1.2478052,9.699829,-1.0729688
86796079217354,-1.2549903,9.627979,-1.094524
86796099076042,-1.2310401000000002,9.604028999999999,-1.1520045
86796118934859,-1.2166698999999999,9.606423,-1.1783496
86796138793546,-1.1783496,9.5561285,-1.1807446000000001
86796158654264,-1.2166698999999999,9.536968,-1.2070899
86796178512953,-1.2597803,9.580078,-1.1711646
86796198371768,-1.2070899,9.623189,-1.22625
86796218230584,-1.2454101999999998,9.718989,-1.3076807
86796238089273,-1.1999048,9.608819,-1.1376343
86796257948088,-1.219065,9.575289,-1.1400293
86796277808629,-1.3052857,9.620794,-1.1041040000000002
86796297667446,-1.2597803,9.594449000000001,-1.2430152
86796317526261,-1.2406201000000001,9.627979,-1.2957056999999998
86796337385077,-1.2525953,9.656719,-1.1903248
86796357243894,-1.1807446000000001,9.577683,-1.1759547
86796377098351,-1.0681788,9.431587,-1.2933106
86796396957040,-1.1112891000000003,9.4435625,-1.3292358999999998
86796416815857,-1.214275,9.632769,-1.089734
86796436674546,-1.0801538,9.740545,-1.0705738
86796456523635,-1.096919,9.72857,-1.3196558
86796476382068,-1.2525953,9.630374,-1.2909156000000002
86796496240629,-1.1903248,9.685459,-1.0394385
86796516099062,-1.1400293,9.656719,-1.0226734
86796535957623,-1.1543995,9.613608000000001,-1.2909156000000002
86796555816184,-1.1496094,9.575289,-1.3268408999999999
86796575670405,-1.22146,9.529783,-1.1735597
86796595528838,-1.2310401000000002,9.635164,-1.0585986
86796615387271,-1.1927198,9.70941,-1.0585986
86796635245704,-1.0418334999999999,9.685459,-1.2573853000000002
86796655104265,-1.1112891000000003,9.625584,-1.2525953
86796674954688,-1.2454101999999998,9.599238,-1.1208692
86796694812993,-1.1208692,9.637559,-1.0154883
86796714671298,-1.1687696,9.721385,-1.2070899
86796734529475,-1.2382251,9.651928999999999,-1.1855347
86796754387780,-1.2070899,9.659114,-1.1232642
86796774245957,-1.1879296999999998,9.568104,-1.0777588
86796794106638,-1.1328443000000001,9.505833,-1.2502003000000002
86796813964924,-1.094524,9.625584,-1.0801538
86796833823229,-1.1088941,9.635164,-1.0777588
86796853681532,-1.2406201000000001,9.656719,-1.2454101999999998
86796873537276,-1.2669654,9.639954,-1.2046948999999998
86796893395453,-1.219065,9.673484,-1.1112891000000003
86796913251096,-1.1376343,9.699829,-1.1112891000000003
86796933109272,-1.1639795,9.611214,-1.2573853000000002
86796952967449,-1.2693603999999998,9.580078,-1.2525953
86796972823168,-1.2861254999999998,9.553733,-1.1184741000000002
86796992681472,-1.214275,9.572892999999999,-1.1064991000000002
86797012539649,-1.1687696,9.572892999999999,-1.2310401000000002
86797032397824,-1.1951148999999999,9.529783,-1.223855
86797052256000,-1.223855,9.659114,-1.1280543
86797072114177,-1.214275,9.685459,-1.0250684
86797091969256,-1.1424243,9.690249,-1.0705738
86797111827304,-1.1400293,9.6686945,-1.1663746000000002
86797131685481,-1.1400293,9.627979,-1.0825489
86797151543528,-1.1232642,9.611214,-1.0921290000000001
86797171400067,-1.1208692,9.551338000000001,-1.0418334999999999
86797191257988,-1.101709,9.515413,-1.1400293
86797211116035,-1.1687696,9.596844,-1.0657837
86797230973955,-1.2717555,9.699829,-0.9053174
86797250831876,-1.1855347,9.766891000000001,-0.93405765
86797270696992,-1.1400293,9.649534,-1.089734
86797290555168,-1.1999048,9.558523,-1.1472143999999997
86797310413217,-1.2837305,9.592053,-0.97237796
86797330271392,-1.2741505,9.596844,-0.8861573
86797350129568,-1.2334352,9.644744000000001,-0.9580079
86797369987617,-1.1975098,9.596844,-1.0298585
86797389843254,-1.2118799999999998,9.616004,-1.1208692
86797409701302,-1.3891114,9.656719,-0.98435307
86797429559351,-1.4489869,9.644744000000001,-0.90052736
86797449417400,-1.2909156000000002,9.6615095,-0.9651929
86797469274235,-1.2645704,9.618399,-0.8167017
86797489132284,-1.1376343,9.623189,-0.9915381
86797508990333,-1.1903248,9.73815,-0.9699829
86797528848382,-1.1903248,9.821976,-0.9436377
86797548706303,-1.0729688,9.74773,-0.92208254
86797568564352,-1.0729688,9.577683,-0.974773
86797588431805,-1.1424243,9.481883,-1.0346485
86797608290110,-1.22146,9.606423,-1.0035132
86797628148287,-1.2166698999999999,9.769285,-0.89573735
86797648006592,-1.1639795,9.889036,-1.0202783000000002
86797667864769,-1.1783496,9.659114,-1.0466236
86797687725128,-1.1184741000000002,9.666299,-1.1711646
86797707583433,-1.1615845,9.814791,-1.0538087
86797727441610,-1.1999048,9.879456,-0.9029224
86797747299915,-1.1759547,9.972861,-1.096919
86797767162584,-1.2430152,9.7621,-0.96040285
86797787021017,-1.1711646,9.857901,-1.1376343
86797806879432,-1.2022998,9.944121,-0.89573735
86797826737864,-1.1807446000000001,9.80521,-0.7185059
86797846596169,-1.1615845,9.992022,-0.8981324
86797866454600,-1.214275,9.891430999999999,-0.7927515
86797886315196,-1.1472143999999997,9.910591,-0.9029224
86797906173757,-1.1615845,9.891430999999999,-0.7544312
86797926032316,-1.1639795,9.73815,-0.732876
86797945890748,-1.1472143999999997,10.106983,-0.95561284
86797965749309,-1.1280543,9.745335,-0.61552006
86797985607050,-1.0442286,9.702225,-0.85023195
86798005465610,-1.0585986,10.075847999999999,-0.8813671999999999
86798025324171,-0.97237796,9.733359,-0.7376661
86798045182602,-0.92926764,9.908196,-0.98195803
86798065037688,-1.0490186000000001,10.083033,-0.6394701999999999
86798084896121,-0.96040285,9.793235000000001,-0.81191164
86798104754552,-0.9412427,10.013577,-0.9364527
86798124612984,-0.9963281999999999,9.896221,-0.63707525
86798144471417,-0.9699829,9.72857,-0.7807764
86798164329976,-0.9484278,9.865086,-0.74006104
86798184182758,-0.93405765,9.917776,-0.73527104
86798204041063,-0.8933423,10.059082,-0.82388675
86798223899366,-0.87418216,9.841136,-0.6442603
86798243757670,-0.9053174,9.946517,-0.7185059
86798263615975,-0.9053174,10.003997,-0.6394701999999999
86798283479373,-0.89573735,9.879456,-0.7448511
86798303337677,-0.9364527,9.81,-0.7711963000000001
86798323196110,-1.0370435,9.905801,-0.6825806
86798343054541,-0.9963281999999999,9.972861,-0.6706055000000001
86798362912532,-0.96040285,9.795630000000001,-0.62510014
86798382770965,-1.0466236,9.879456,-0.7065308000000001
86798402629396,-1.1208692,10.008787,-0.6658155
86798422487700,-1.0801538,9.898616,-0.57959473
86798442346133,-1.094524,10.054293,-0.5508545
86798462204564,-1.0250684,10.008787,-0.5029541000000001
86798482060814,-0.9699829,9.917776,-0.5676197
86798501919119,-0.98435307,10.087823,-0.5364844
86798521777550,-0.97237796,9.946517,-0.42391850000000003
86798541635854,-0.9987232,10.011182000000002,-0.37362307
86798561494287,-0.92926764,10.145303,-0.34009278
86798581343179,-0.92208254,10.135722999999999,-0.26105714
86798601201355,-1.0059083,10.356065,-0.21315674
86798621059532,-0.98435307,10.241104,-0.031135255
86798640917707,-1.0681788,10.425521,0.119750984
86798660771048,-1.0825489,10.576406500000001,0.2945874
86798680629097,-1.0011181999999998,10.3393,0.2562671
86798700487144,-1.0370435,10.471025,0.32332766
86798720345192,-1.3244458000000001,10.765614,1.2502003000000002
86798740203112,-0.8095166,10.87818,0.51732427
86798760061160,-0.31853762,10.94524,-1.4274316999999999
86798779915740,-0.17004639,10.44468,-2.3519094
86798799773660,-0.6849755999999999,10.34888,0.5221143
86798819631580,-0.44547364,10.061478,1.101709
86798839489500,-0.79035646,10.071057000000001,1.5471827
86798859347548,-0.855022,9.316627,0.18681154
86798879205468,-1.3603711,8.981323,-0.023950197000000003
86798899065990,-1.1088941,9.204061,1.331631
86798918927374,-0.23471193,9.153765,1.6884888
86798938785422,0.15328126,9.8938265,2.1363575
86798958643470,0.14130616,9.939331,2.2393433999999997
86798978501390,0.09340577,9.211246000000001,2.047742
86798998359263,-0.39996827,8.679551,2.7135572
86799018217183,-0.40954837,8.502319,3.1829810000000003
86799038075231,-0.60354495,8.5119,3.9445972
86799057933152,-1.0322535,8.552615,4.7948294
86799077791073,-1.1759547,8.236472000000001,4.936135299999999
86799097645581,-1.0346485,7.9083548,5.362449
86799117503373,0.6586304000000001,7.513176400000001,6.5264287
86799137361293,3.7434156,6.638994,6.588699
86799157219085,6.873706299999999,3.2596216,3.7050953
86799177077005,4.27032,4.176914,-0.87178713
86799196940047,-0.7831714,16.520845,-4.639153
86799216798095,-6.758744999999999,25.921297,5.0678616
86799236656016,-5.7767873,8.56938,0.44786867
86799256513937,-3.7985013,0.09340577,-0.11017089999999999
86799276371986,-6.13604,5.728887,3.4416432
86799296232617,-5.158872,10.370435,-1.4513819
86799316090666,-2.090852,12.724739,-4.88584
86799335948710,1.2789403999999998,13.0313015,-5.269043
86799355806630,4.528982,10.966795,-1.1663746000000002
86799375664678,3.0967603,8.605306,-0.4742139
86799395526188,-0.39757326,7.597002499999999,-1.7699194999999999
86799415384236,0.009580079,9.388477,-1.8920655
86799435242412,-0.35685793,9.081914999999999,0.33530274
86799455100460,-1.1256591999999999,9.319021000000001,2.6560767000000003
86799474958636,-1.0011181999999998,9.970467,0.51492923
86799494815812,0.80233157,9.275911,-1.5711329
86799514673860,1.1472143999999997,9.7621,0.043110352000000005
86799534532036,0.4047583,9.489068,0.047900394000000006
86799554390084,-0.5963599,8.765772,-1.4178516
86799574248132,-0.98914313,9.275911,-1.2382251
86799594103772,-0.9364527,9.702225,-0.613125
86799613961820,-1.2789403999999998,9.278306,-0.9484278
86799633819868,-1.089734,9.891430999999999,-1.1088941
86799653677916,-0.21315674,10.47821,-0.18920656
86799673535964,0.26345217,11.072175999999999,-0.2706372
86799693399345,0.7664063,11.529625,-0.08622070400000001
86799713257521,1.2741505,12.068503999999999,-0.06227051
86799733115570,1.9591261000000002,11.900852,0.34009278
86799752973747,1.3771361999999998,11.02667,-0.102985844
86799772831921,0.1341211,11.388318,-1.3986914
86799792691901,-0.2083667,12.662469,-2.179468
86799812550077,-0.16525635,13.028907,-3.422483
86799832408253,0.3161426,12.032577999999999,-3.6116896
86799852266301,-0.014370117,10.152488,-2.6656568
86799872124477,-2.1387525000000003,9.630374,-2.2489235
86799891989271,-3.774551,10.320139999999999,-1.4274316999999999
86799911847703,-6.143225,13.34505,-1.3028906999999998
86799931706007,-9.13221,13.404925,-1.6046631000000002
86799951564439,-6.5072684,11.623031,1.3795313
86799971422743,-3.1159205,10.415939999999999,1.4609618999999998
86799991283333,-1.8058448,9.596844,-0.40954837
86800011141765,-0.5005590999999999,9.577683,-0.53169435
86800031000197,1.1304493,9.740545,-0.07185059
86800050858629,1.7076490000000002,7.9921803,-0.39996827
86800070717061,1.575923,6.7491655,-2.8380982999999995
86800090573061,0.5245093000000001,6.3228517,-0.76401126
86800110431493,0.24668702,5.326524,-0.37122804
86800130289925,-1.1687696,3.7793410000000005,-0.31853762
86800150148357,-2.4812402999999996,2.692002,2.1435425
86800170006789,-2.0213966,2.9698243,2.8285182
86800189862484,-0.7161109,3.0799952,2.0716919999999996
86800209720788,-0.8262818000000001,3.5182837999999994,1.7268091
86800229579220,-0.6610254,4.9505057,1.5352076000000001
86800249437524,-0.50774413,9.319021000000001,1.951941
86800269295828,-0.8167017,19.102676000000002,9.017249000000001
86800289155960,2.0501368,25.324938,15.131734
86800309014392,7.860454600000001,13.536651,12.305611
86800328872824,3.3602126000000005,5.716912000000001,7.7335186
86800348731128,-4.478687,9.445957,0.23231691
86800368589560,-3.9877076000000002,15.510147,-2.8428883999999996
86800388448797,-8.722662,18.005758,-9.10347
86800408307101,-11.218272,10.511742,-4.0906934999999995
86800428165533,1.3268408999999999,2.2608986,4.457131400000001
86800448023965,-1.3867163999999998,4.2056546,2.2704787
86800467882269,-5.336104,8.808882,-0.34967285
86800487740901,-3.5781593000000003,11.977492999999999,-3.6332447999999995
86800507599333,-2.1315675,12.039763,-8.907078
86800527457637,0.22513184,9.78605,-6.710845
86800547316069,2.076482,7.822133999999999,-5.0415163
86800567174501,2.2513185,7.975414999999999,1.3915064
86800587025643,0.62749517,9.663903999999999,4.1242237
86800606883947,0.7376661,8.796907000000001,-4.584067299999999
86800626742251,0.102985844,10.2315235,-0.30895755
86800646600428,-0.32332766,9.618399,0.045505375
86800666458733,1.1831397,7.7502837,-6.5455885
86800686313993,1.4825171,8.775352,-0.8813671999999999
86800706172169,1.2957056999999998,11.235037,3.8847218
86800726030345,2.0094216,9.877061,-0.8167017
86800745888521,1.4130616000000003,9.105865,-1.0322535
86800765746697,0.82388675,9.656719,-0.43110353
86800785604611,0.9987232,9.989627,0.366438
86800805462787,0.4766089,11.845767,0.12933107
86800825320963,-0.5891748,11.903248,-0.7065308000000001
86800845179139,0.5939649,11.100916,0.64186525
86800865037443,1.2933106,11.615846000000001,0.5604346
86800884895928,0.13651612,11.309282000000001,1.1256591999999999
86800904754104,-1.2166698999999999,11.043435,-0.45744875
86800924612280,-1.1520045,11.824212,-4.2990603
86800944470632,0.081430666,11.196717,-5.127737000000001
86800964328808,-0.9508228000000001,11.290123,-2.3016137999999997
86800984191000,-2.2393433999999997,11.773916,-2.9770092999999997
86801004049176,-1.9830762,14.729370999999999,-7.070098
86801023907480,-4.248765000000001,17.69201,-3.6260597999999997
86801043765784,-10.312955,16.144827,5.125342
86801063623960,-6.720425,12.794195,5.295388
86801083474243,-2.5147705,10.981164999999999,1.9615209999999998
86801103332292,-1.8968556,9.594449000000001,-1.0657837
86801123190341,-1.3723463,9.855506,-2.088457
86801143048515,0.17723145,8.784932000000001,-4.457131400000001
86801162906563,2.6488917,5.7480474,-4.2511597000000005
86801182764391,3.151846,3.1446607,-1.3292358999999998
86801202622311,1.0370435,1.9639161,1.214275
86801222480359,-0.7185059,2.2896388,2.3662794
86801242338407,-0.53169435,3.4895437000000005,2.411785
86801262196456,-0.96758795,3.1374757,1.1304493
86801282058473,-1.575923,2.6776318999999997,1.0083033000000001
86801301916522,-0.5604346,2.9243189999999997,1.4298267
86801321774699,0.07185059,4.799619,0.41194338
86801341632748,0.119750984,10.748847999999999,1.7435743000000001
86801361490925,3.6763551,20.937262,12.418177
86801381346992,8.092772,21.741989999999998,13.522281
86801401205041,9.345366499999999,11.493699000000001,7.723938499999999
86801421063090,1.3867163999999998,7.062913000000001,5.7863674000000005
86801440921267,-5.3408937000000005,8.655600999999999,0.98435307
86801460779316,-3.4488282,13.481565,0.80233157
86801480643275,-4.430786,19.133812,-5.005591000000001
86801500501452,-10.248289,16.255,-3.63564
86801520359629,-2.8931837000000002,4.014053,7.067703
86801540217806,-2.4788454,0.10538086,0.4023633
86801560075983,-3.5901343999999997,5.3552637,-1.3292358999999998
86801579934092,-3.4152980000000004,11.829002000000001,-3.3410523000000003
86801599792269,-2.9099487999999996,14.913787,-8.231683
86801619650574,0.9963281999999999,12.456497,-5.8893533
86801639508751,1.3004956,10.277028999999999,-2.3327491
86801659366928,1.8992506000000002,9.920172,2.1004322
86801679225225,1.096919,10.1189575,3.544629
86801699083402,-1.9950514,9.879456,-1.2334352
86801718941685,-0.7185059,7.173083999999999,-2.1650977000000005
86801738799862,0.48618898,7.419770699999999,-3.6907252999999995
86801758658039,0.852627,10.176438000000001,-1.7507593999999997
86801778529776,0.49337405,10.590776,0.12693603
86801798388209,0.44307864,8.5119,-0.96758795
86801818246642,0.6227050999999999,8.890313,-0.13172609
86801838105070,0.39996827,10.435101,1.2909156000000002
86801857963502,-0.026345216,9.620794,-1.3627661
86801877818708,-0.37601808,8.53106,-1.9591261000000002
86801897677140,-0.43589357,8.983719,0.18681154
86801917535572,0.33530274,9.845925,-0.15567628
86801937394004,0.51971924,10.202784,-1.1136841999999998
86801957252436,-0.026345216,10.277028999999999,-0.97956306
86801977119608,-0.39996827,10.195599000000001,-0.20597169
86801996978296,-0.47181886,10.267449000000001,0.58677983
86802016836984,-0.2083667,10.305769999999999,0.9915381
86802036695544,-0.08861572,9.730965,0.8981324
86802056554232,0.011975098,9.944121,0.3903882
86802076412920,0.39517823,11.908037,-2.0070264
86802096267396,1.2502003000000002,13.886323999999998,-5.50136
86802116125956,1.1999048,13.342654000000001,-3.896697
86802135984644,-1.9160157,10.904525,-0.44786867
86802155843204,-4.488267,8.978928999999999,-2.1028273
86802175701892,-6.183941,9.345366499999999,-1.81782
86802195563636,-7.805369000000001,10.626702,-1.0562036
86802215422324,-3.7889209999999998,10.839858999999999,-0.8167017
86802235280884,-0.19160157,11.349998,-2.4740553
86802255139572,-0.7065308000000001,11.167976,-1.8968556
86802274998260,-1.2166698999999999,11.282936999999999,-0.09340577
86802294855642,-2.320774,10.279425,0.4622388
86802314714330,-1.9351758999999997,8.777747,-0.17244141
86802334573018,-0.5939649,8.358619000000001,0.16286133
86802354431578,-0.16046631,8.598121,0.94603276
86802374290266,-0.2682422,8.509504,0.86939216
86802394144358,0.17962648,8.109536,0.64186525
86802414002918,0.11017089999999999,7.3886356,0.45744875
86802433861478,-1.0202783000000002,6.7228202999999995,1.1615845
86802453720038,-1.6190332,5.961204,1.8681153000000001
86802473578598,-0.5676197,6.797065700000001,1.829795
86802493436510,0.45026368,8.878338000000001,2.0405567
86802513295070,0.4526587,10.111773,2.0549269
86802533153630,-0.25387207,10.962005,2.7422974
86802553012190,-1.3747413,10.533297,3.278782
86802572870750,-1.5974781999999998,8.902288,2.8476784
86802592727335,-1.3699511999999998,8.777747,1.0370435
86802612585895,-1.4226416000000002,9.17053,0.4622388
86802632444455,-1.0250684,9.14179,0.52690434
86802652303015,-0.7568262,9.069939999999999,0.63707525
86802672161575,-1.0106983,9.618399,1.6118482
86802692006347,-1.6717237,10.097403,3.0009596000000003
86802711864523,-3.2356715,9.378897,0.9651929
86802731722827,-3.5302589999999996,8.837622999999999,-1.3436059999999999
86802751581003,-3.7003052000000003,10.075847999999999,2.0573218
86802771439307,-1.2813355,10.942844000000001,3.9469924
86802791296776,-0.51971924,10.221944,0.5676197
86802811154952,-1.4202466,10.130933,2.191443
86802831013256,-0.09580079,9.759705,1.9279908
86802850871432,0.99393314,9.081914999999999,2.0429518
86802870729608,-0.24189699,7.4269557,4.0811133
86802890587644,-1.223855,5.601951000000001,4.018843
86802910445948,-0.29937744,5.429509599999999,1.9687061000000001
86802930304124,-0.4167334,7.5155716,0.55324954
86802950163114,-0.45026368,11.943963,1.5184423999999999
86802970021290,1.3939015,14.1425905,-0.28500733
86802989875236,-0.49576905,12.710369,-1.7124390999999999
86803009733284,-2.9698243,11.429033,-2.0932472
86803029591332,-2.5267458,10.415939999999999,-0.7927515
86803049449380,-2.215393,9.501043,1.0394385
86803069307428,-2.0046315,10.202784,0.4526587
86803089147160,-1.2406201000000001,10.140513,-1.6381934999999999
86803109004824,1.2118799999999998,9.273516,-1.8705102999999998
86803128862616,0.9987232,8.983719,-1.2717555
86803148720280,0.4526587,9.352551,-1.3172607
86803168577944,-0.5460645000000001,10.31535,-0.50774413
86803188434840,-1.4298267,12.001443,-0.15328126
86803208292376,-2.560276,11.615846000000001,0.83586186
86803228150040,-2.929109,10.066267999999999,0.4526587
86803248007576,-2.215393,8.933423,-0.42152345
86803267865240,-0.87418216,8.897497999999999,-1.0873389
86803287731134,-0.30895755,9.457932000000001,-1.3531861
86803307588798,-0.23950197,9.82437,-1.6501685000000001
86803327446590,0.10538086,9.517808,-1.3388159
86803347304254,-0.58198977,9.584868,-0.90052736
86803367161918,-1.1136841999999998,9.778865,-0.028740235
86803387030074,-1.1448194,10.145303,0.4143384
86803406887994,-0.4622388,10.243499,0.32093263
86803426746042,-0.06706055,10.152488,-0.53169435
86803446603962,0.011975098,10.116563000000001,-1.5136524
86803466462010,-0.031135255,9.896221,-1.5160475
86803486323010,-0.5604346,9.745335,-0.8095166
86803506180930,-1.3100758,9.625584,0.07424561
86803526038978,-1.5232325,9.572892999999999,0.4742139
86803545896898,-1.1424243,9.505833,-0.20357667
86803565754946,-0.4526587,9.441168,-1.3939015
86803585616530,0.13172609,9.340575999999999,-2.550696
86803605474706,0.16046631,9.546548,-2.5363257000000003
86803625332754,-0.23950197,9.891430999999999,-2.090852
86803645190930,-0.74724615,9.8938265,-1.3172607
86803665048978,-1.1520045,9.560919,-1.2430152
86803684905294,-1.3220508,9.290281,-1.5040723
86803704763342,-1.453777,9.235196,-1.4441968
86803724621262,-1.4585668999999999,9.21364,-1.331631
86803744479310,-1.331631,9.268726,-1.590293
86803764337358,-1.1184741000000002,9.342972,-1.6789087
86803784207223,-0.9364527,9.508227999999999,-1.3076807
86803804065527,-0.83586186,9.685459,-0.90771246
86803823923831,-0.7089258,9.673484,-0.98435307
86803843782135,-0.7113208000000001,9.517808,-1.3771361999999998
86803863640567,-0.85741705,9.407638,-1.4106666
86803883497348,-0.9316626,9.419611999999999,-1.0657837
86803903355652,-0.9963281999999999,9.515413,-0.9508228000000001
86803923214084,-1.0106983,9.565708,-1.1352394
86803943072388,-0.9484278,9.515413,-1.2981006000000002
86803962930692,-0.89573735,9.457932000000001,-1.2525953
86803982791763,-0.91729254,9.472302,-1.0250684
86804002650195,-0.9053174,9.553733,-1.0466236
86804022508627,-0.8598120000000001,9.524992999999998,-1.2382251
86804042366931,-0.87897223,9.546548,-1.1663746000000002
86804062225363,-1.0490186000000001,9.496253,-1.0729688
86804082087641,-1.0609937,9.572892999999999,-1.1687696
86804101946201,-0.97956306,9.608819,-1.0322535
86804121804633,-0.9196875,9.560919,-1.0083033000000001
86804141663193,-0.8933423,9.505833,-1.1256591999999999
86804161521753,-0.87897223,9.539363,-0.96758795
86804181383683,-0.85023195,9.575289,-1.0538087
86804201242371,-0.7544312,9.544153,-1.0298585
86804221101059,-0.7544312,9.524992999999998,-1.0250684
86804240959619,-0.78556645,9.422008,-1.0322535
86804260818307,-0.7496411000000001,9.462723,-0.9053174
86804280674342,-0.73048097,9.551338000000001,-0.84544194
86804300532902,-0.7232959,9.560919,-0.91010743
86804320391334,-0.74006104,9.541758999999999,-0.99393314
86804340249894,-0.7592211999999999,9.529783,-1.0442286
86804360108454,-0.7783814,9.513017999999999,-0.9388476999999998
86804379969677,-0.8310718,9.656719,-0.74006104
86804399828365,-0.8646021,9.687855,-0.6610254
86804419687053,-0.87418216,9.6686945,-0.78556645
86804439545613,-0.9029224,9.5489435,-0.91250247
86804459404301,-0.9484278,9.366921000000001,-1.0130934
86804479263537,-0.93405765,9.436378,-0.9651929
86804499122353,-0.96758795,9.570497999999999,-0.9148975
86804518981041,-0.977168,9.630374,-0.91010743
86804538839729,-0.9699829,9.584868,-0.8765772
86804558698417,-0.97956306,9.580078,-0.9316626
86804578551930,-0.90771246,9.5489435,-0.9053174
86804598410618,-0.8933423,9.5489435,-0.98435307
86804618269178,-0.99393314,9.546548,-0.98914313
86804638127866,-0.9867481,9.570497999999999,-0.96040285
86804657986554,-1.0346485,9.524992999999998,-0.9532178
86804677832002,-1.0370435,9.424402,-0.9867481
86804697690178,-0.9987232,9.484278,-0.9412427
86804717548354,-1.0370435,9.618399,-0.9699829
86804737406658,-1.0298585,9.577683,-1.101709
86804757264834,-1.0154883,9.505833,-1.094524
86804777123735,-1.1304493,9.527389,-0.98914313
86804796981911,-1.089734,9.477093,-0.90052736
86804816840087,-1.0466236,9.429193,-0.9508228000000001
86804836698263,-1.0873389,9.426797,-1.1448194
86804856556439,-1.1567944,9.513017999999999,-1.1639795
86804876411384,-1.1735597,9.587264,-1.0130934
86804896269560,-1.1424243,9.503438000000001,-0.9388476999999998
86804916127736,-1.0921290000000001,9.517808,-1.0202783000000002
86804935985912,-1.1400293,9.465117,-1.0466236
86804955846312,-1.0442286,9.448353,-1.1879296999999998
86804975702147,-1.0873389,9.589659,-0.96040285
86804995560323,-1.1208692,9.527389,-0.9244776
86805015418371,-1.0394385,9.515413,-0.9963281999999999
86805035276547,-1.1496094,9.551338000000001,-0.9484278
86805055134595,-1.0538087,9.472302,-1.0322535
86805074989679,-1.0346485,9.501043,-0.9316626
86805094847727,-1.1496094,9.558523,-0.9268726
86805114705775,-1.0609937,9.510622999999999,-1.0681788
86805134563823,-1.0633887,9.599238,-0.95561284
86805154421999,-1.1543995,9.759705,-0.977168
86805174280967,-1.1280543,9.72378,-0.9484278
86805194139015,-1.0466236,9.625584,-0.76161623
86805213997063,-1.0250684,9.445957,-0.855022
86805233855111,-1.0585986,9.405242,-0.8598120000000001
86805253713159,-1.0394385,9.620794,-0.91010743
86805273571755,-1.0705738,9.750125,-0.91010743
86805293429675,-1.0562036,9.718989,-0.8669971
86805313287723,-1.0298585,9.6758795,-0.76880133
86805333145771,-1.0059083,9.639954,-0.7807764
86805353003819,-1.0059083,9.637559,-0.8047266
86805372860866,-1.0226734,9.6615095,-0.8095166
86805392718786,-1.0083033000000001,9.644744000000001,-0.8813671999999999
86805412576834,-1.0394385,9.659114,-0.8646021
86805432434882,-1.0538087,9.620794,-0.8478370000000001
86805452292930,-1.0657837,9.685459,-0.80712163
86805472150978,-1.101709,9.75731,-0.77359134
86805492011683,-1.1304493,9.64714,-0.7592211999999999
86805511869731,-1.1424243,9.632769,-0.8143066999999999
86805531727779,-1.2430152,9.606423,-0.8214916999999999
86805551585699,-1.1879296999999998,9.632769,-0.84065187
86805571443747,-1.1855347,9.625584,-0.85023195
86805591304379,-1.214275,9.649534,-0.8334668
86805611162427,-1.1831397,9.671089,-0.9484278
86805631020475,-1.1591895,9.733359,-0.9268726
86805650878523,-1.2094848999999999,9.718989,-0.8765772
86805670736699,-1.1160791,9.604028999999999,-0.81191164
86805690594837,-1.0226734,9.517808,-0.76161623
86805710452885,-0.9532178,9.570497999999999,-0.76401126
86805730311061,-0.98195803,9.690249,-0.7209009
86805750169109,-1.0202783000000002,9.73815,-0.7568262
86805770027157,-0.99393314,9.742939999999999,-0.75203615
86805789890745,-0.99393314,9.687855,-0.74006104
86805809748921,-0.96040285,9.599238,-0.7496411000000001
86805829607097,-0.9508228000000001,9.687855,-0.71371585
86805849465273,-0.9532178,9.769285,-0.66342044
86805869323449,-0.90052736,9.699829,-0.64186525
86805889189652,-0.8861573,9.6615095,-0.76880133
86805909048084,-0.9316626,9.671089,-0.78556645
86805928906388,-0.89573735,9.659114,-0.7568262
86805948764820,-0.82388675,9.678274,-0.72569096
86805968623124,-0.8382569,9.692644,-0.7232959
86805988487991,-0.9148975,9.759705,-0.69216067
86806008346551,-0.92208254,9.740545,-0.69216067
86806028205111,-0.9388476999999998,9.644744000000001,-0.7376661
86806048063671,-1.0035132,9.6615095,-0.7376661
86806067922231,-0.9627979,9.730965,-0.78556645
86806087777956,-0.85741705,9.697434,-0.79754156
86806107636388,-0.86220706,9.637559,-0.7711963000000001
86806127494948,-0.91010743,9.639954,-0.7568262
86806147353508,-0.9148975,9.6686945,-0.7089258
86806167212068,-0.8382569,9.695039999999999,-0.74724615
86806187069055,-0.8167017,9.75252,-0.7951465
86806206927487,-0.8861573,9.702225,-0.8334668
86806226786047,-0.9580079,9.666299,-0.7592211999999999
86806246644607,-0.9699829,9.697434,-0.74724615
86806266503039,-0.974773,9.637559,-0.7879615
86806286369771,-0.96040285,9.702225,-0.732876
86806306228459,-0.87178713,9.7621,-0.76161623
86806326087147,-0.8646021,9.620794,-0.91010743
86806345945707,-0.91010743,9.625584,-0.90771246
86806365804395,-0.97237796,9.690249,-0.8262818000000001
86806385662150,-0.97956306,9.620794,-0.76880133
86806405520838,-0.9867481,9.608819,-0.8047266
86806425379526,-0.9987232,9.649534,-0.80712163
86806445238214,-0.96758795,9.6686945,-0.8669971
86806465097030,-0.9532178,9.70941,-0.8334668
86806484950945,-0.97956306,9.666299,-0.8430469
86806504809505,-0.9963281999999999,9.611214,-0.86220706
86806524668065,-1.0059083,9.702225,-0.8861573
86806544526753,-1.0083033000000001,9.78605,-0.87897223
86806564385313,-1.0226734,9.735755000000001,-0.86220706
86806584231158,-1.0466236,9.651928999999999,-0.86220706
86806604089462,-1.0274634,9.627979,-0.91010743
86806623947894,-0.98195803,9.637559,-0.8765772
86806643806198,-0.977168,9.649534,-0.90052736
86806663664630,-1.0083033000000001,9.678274,-0.9388476999999998
86806683519574,-1.0562036,9.673484,-0.9532178
86806703377878,-1.0777588,9.70941,-0.9196875
86806723236054,-1.0274634,9.663903999999999,-0.90771246
86806743094358,-1.0011181999999998,9.623189,-0.9651929
86806762952534,-1.0178833,9.673484,-0.9436377
86806782811502,-1.0394385,9.702225,-0.86220706
86806802669806,-1.0370435,9.695039999999999,-0.8981324
86806822528110,-1.0418334999999999,9.711803999999999,-0.9316626
86806842386286,-1.0418334999999999,9.711803999999999,-0.9580079
86806862244590,-1.0322535,9.663903999999999,-0.87897223
86806882101132,-1.0394385,9.625584,-0.89573735
86806901959308,-1.0346485,9.639954,-0.9508228000000001
86806921817612,-1.0370435,9.651928999999999,-0.96040285
86806941675788,-1.0130934,9.659114,-0.9484278
86806961524393,-1.0083033000000001,9.697434,-0.99393314
86806981376505,-1.0202783000000002,9.671089,-0.9963281999999999
86807001234553,-1.0514137,9.620794,-0.9532178
86807021092601,-1.0825489,9.6686945,-0.9412427
86807040950649,-1.0873389,9.649534,-1.0035132
86807060808697,-1.0729688,9.608819,-1.0130934
86807080664714,-1.0873389,9.613608000000001,-0.96758795
86807100522762,-1.0466236,9.692644,-0.98914313
86807120380810,-1.0825489,9.778865,-1.0011181999999998
86807140238730,-1.094524,9.644744000000001,-1.0250684
86807160096778,-1.1448194,9.5561285,-1.0585986
86807179954271,-1.1687696,9.613608000000001,-0.98195803
86807199812319,-1.0705738,9.618399,-0.9651929
86807219670239,-1.0657837,9.568104,-1.0681788
86807239528287,-1.1304493,9.644744000000001,-0.9987232
86807259386207,-1.099314,9.718989,-0.98914313
86807279243669,-1.0729688,9.690249,-0.95561284
86807299101589,-1.0849438999999999,9.618399,-1.0681788
86807318959509,-1.1591895,9.627979,-1.0346485
86807338817301,-1.1184741000000002,9.632769,-0.9388476999999998
86807358675221,-1.0370435,9.611214,-0.9508228000000001
86807378535731,-1.089734,9.642349000000001,-1.0585986
86807398393651,-1.094524,9.695039999999999,-1.089734
86807418251571,-1.094524,9.726174,-0.977168
86807438109491,-1.099314,9.604028999999999,-0.974773
86807457967411,-1.0442286,9.565708,-1.0106983
86807477833382,-1.0442286,9.616004,-0.98195803
86807497691558,-1.0130934,9.620794,-0.9963281999999999
86807517549734,-0.96758795,9.64714,-1.0394385
86807537407782,-1.0514137,9.711803999999999,-1.0202783000000002
86807557265958,-1.0322535,9.692644,-0.9580079
86807577121834,-0.98435307,9.663903999999999,-0.9148975
86807596979882,-1.0202783000000002,9.606423,-0.9651929
86807616838058,-1.0442286,9.6686945,-0.9699829
86807636696106,-0.97956306,9.730965,-0.8598120000000001
86807656554282,-0.9436377,9.72378,-0.96758795
86807676399729,-0.98195803,9.695039999999999,-0.98435307
86807696257522,-0.977168,9.558523,-0.9436377
86807716115443,-0.9388476999999998,9.632769,-0.93405765
86807735973233,-0.98435307,9.6758795,-0.9244776
86807755831026,-1.0011181999999998,9.699829,-1.0178833
86807775696600,-0.9963281999999999,9.70941,-0.9651929
86807795554520,-1.0011181999999998,9.630374,-0.94603276
86807815412568,-1.0801538,9.671089,-0.9364527
86807835270488,-1.0394385,9.656719,-0.87178713
86807855128408,-0.9627979,9.587264,-0.9915381
86807874991178,-0.97956306,9.620794,-1.0298585
86807894849354,-1.0274634,9.72857,-0.95561284
86807914707402,-0.98914313,9.695039999999999,-0.9196875
86807934565578,-1.0130934,9.606423,-0.98435307
86807954423754,-1.0825489,9.592053,-0.9987232
86807974288305,-1.089734,9.750125,-0.9053174
86807994146609,-1.0705738,9.7740755,-0.8382569
86808014004913,-1.0178833,9.584868,-0.97237796
86808033863217,-1.0585986,9.508227999999999,-1.094524
86808053721393,-1.094524,9.568104,-1.0106983
86808073578098,-1.0538087,9.742939999999999,-0.8669971
86808093436402,-1.0178833,9.721385,-0.8933423
86808113294706,-1.0490186000000001,9.697434,-1.094524
86808133153010,-1.0705738,9.666299,-1.0729688
86808153011186,-1.0418334999999999,9.582474000000001,-0.96040285
86808172875266,-1.0346485,9.582474000000001,-0.8861573
86808192733571,-1.0514137,9.697434,-0.97237796
86808212591876,-1.0250684,9.678274,-1.0609937
86808232450178,-1.0202783000000002,9.671089,-1.0394385
86808252308483,-1.0514137,9.692644,-0.97956306
86808272176952,-1.0585986,9.637559,-0.9388476999999998
86808292035512,-1.0729688,9.690249,-1.0035132
86808311893945,-1.0585986,9.639954,-0.9963281999999999
86808331752504,-1.0346485,9.635164,-1.089734
86808351609910,-1.1280543,9.663903999999999,-0.9915381
86808371468471,-1.1041040000000002,9.6615095,-1.0011181999999998
86808391327030,-1.0825489,9.695039999999999,-0.97956306
86808411185590,-1.0418334999999999,9.659114,-1.0418334999999999
86808431044151,-0.9963281999999999,9.6615095,-1.1136841999999998
86808450902710,-1.0562036,9.704619000000001,-1.0538087
86808470761562,-1.0753639,9.630374,-1.0202783000000002
86808490620123,-1.0562036,9.666299,-0.99393314
86808510478682,-1.0921290000000001,9.623189,-1.0394385
86808530337242,-1.1064991000000002,9.635164,-1.099314
86808550195931,-1.1112891000000003,9.659114,-1.0083033000000001
86808570043212,-1.0729688,9.635164,-1.1160791
86808589901516,-1.0657837,9.635164,-1.0681788
86808609759949,-1.0657837,9.620794,-1.0849438999999999
86808629618252,-1.0562036,9.659114,-1.0777588
86808649476726,-1.1352394,9.659114,-1.0609937
86808669335031,-1.1759547,9.642349000000001,-1.1376343
86808689193462,-1.1088941,9.623189,-1.0178833
86808709051766,-1.1041040000000002,9.695039999999999,-1.1448194
86808728910071,-1.0873389,9.616004,-1.0705738
86808748768502,-1.0705738,9.5489435,-1.1424243
86808768623531,-1.1376343,9.620794,-1.1256591999999999
86808788481836,-1.1184741000000002,9.7142,-1.0274634
86808808340139,-1.1136841999999998,9.618399,-1.0873389
86808828198443,-1.1615845,9.618399,-1.1927198
86808848056748,-1.1041040000000002,9.587264,-1.1328443000000001
86808867915922,-1.0609937,9.623189,-1.0178833
86808887774226,-1.1304493,9.704619000000001,-1.0322535
86808907632531,-1.1208692,9.695039999999999,-1.1520045
86808927490834,-1.1424243,9.666299,-1.099314
86808947349138,-1.1903248,9.596844,-1.0753639
86808967207443,-1.1352394,9.582474000000001,-1.0490186000000001
86808987066228,-1.1112891000000003,9.601633999999999,-1.0514137
86809006924660,-1.1520045,9.560919,-1.1496094
86809026783093,-1.1328443000000001,9.6686945,-1.1208692
86809046641524,-1.1687696,9.793235000000001,-1.0514137
86809066497291,-1.1088941,9.687855,-1.0657837
86809086355724,-1.096919,9.551338000000001,-1.0633887
86809106214155,-1.0921290000000001,9.457932000000001,-1.1136841999999998
86809126072587,-1.0753639,9.551338000000001,-1.0585986
86809145931020,-1.1759547,9.656719,-1.0154883
86809165786726,-1.1041040000000002,9.77647,-1.1280543
86809185645030,-1.1064991000000002,9.716595,-1.0681788
86809205503463,-1.0873389,9.565708,-1.1088941
86809225361766,-1.1088941,9.539363,-1.0274634
86809245220198,-1.0681788,9.639954,-1.101709
86809265078503,-1.0825489,9.625584,-1.1112891000000003
86809284886632,-1.1520045,9.625584,-1.0657837
86809304744040,-1.1304493,9.666299,-1.0226734
86809324601321,-1.0562036,9.520203,-1.0130934
86809344458600,-1.0633887,9.623189,-1.0777588
86809364328898,-1.099314,9.843531,-0.98914313
86809384186435,-0.9987232,9.877061,-1.0250684
86809404043842,-1.0130934,9.683064,-1.1184741000000002
86809423901378,-1.101709,9.515413,-1.2094848999999999
86809443758915,-1.1136841999999998,9.606423,-0.9268726
86809463623959,-0.9699829,9.6686945,-0.87897223
86809483481495,-1.0490186000000001,9.551338000000001,-1.1496094
86809503339032,-1.0609937,9.577683,-1.2046948999999998
86809523196567,-1.0011181999999998,9.750125,-0.9436377
86809543054231,-0.9508228000000001,9.73815,-0.9508228000000001
86809562911768,-1.0346485,9.685459,-1.1400293
86809582774940,-1.1041040000000002,9.644744000000001,-1.1376343
86809602632604,-1.0322535,9.663903999999999,-0.9532178
86809622490269,-1.0274634,9.620794,-0.92926764
86809642347932,-1.0538087,9.560919,-1.1687696
86809662215274,-1.0657837,9.584868,-1.1520045
86809682073067,-1.099314,9.73815,-0.9987232
86809701930858,-1.1112891000000003,9.78605,-0.9316626
86809721788650,-1.0442286,9.659114,-1.1184741000000002
86809741646443,-1.0705738,9.541758999999999,-1.2382251
86809761504234,-1.1304493,9.551338000000001,-1.1328443000000001
86809781382221,-1.096919,9.644744000000001,-0.93405765
86809801240398,-1.0657837,9.611214,-1.089734
86809821098573,-1.101709,9.584868,-1.2166698999999999
86809840956877,-1.101709,9.690249,-1.1591895
86809860815054,-1.0705738,9.707015,-1.0083033000000001
86809880685078,-1.1088941,9.599238,-1.089734
86809900543638,-1.0873389,9.565708,-1.1496094
86809920402199,-1.0729688,9.592053,-1.1280543
86809940260758,-1.1064991000000002,9.6758795,-1.094524
86809960127423,-1.1088941,9.692644,-1.0562036
86809979986112,-1.0250684,9.584868,-1.0633887
86809999844927,-1.0418334999999999,9.687855,-1.1639795
86810019703615,-1.0418334999999999,9.83874,-1.0801538
86810039562432,-1.0466236,9.707015,-1.1112891000000003
86810059421119,-1.0633887,9.673484,-1.0394385
86810079285433,-1.0729688,9.711803999999999,-1.0370435
86810099144378,-1.1328443000000001,9.599238,-1.1280543
86810119003321,-1.1064991000000002,9.594449000000001,-1.0466236
86810138862137,-1.0801538,9.64714,-1.0083033000000001
86810158721082,-1.0370435,9.616004,-1.0873389
86810178572357,-1.0681788,9.642349000000001,-1.0394385
86810198431045,-1.1136841999999998,9.632769,-1.1256591999999999
86810218289862,-1.0801538,9.599238,-1.0274634
86810238148549,-1.0753639,9.651928999999999,-0.9963281999999999
86810258009943,-1.1088941,9.690249,-0.9699829
86810277868888,-1.1136841999999998,9.695039999999999,-0.9699829
86810297727703,-1.101709,9.630374,-0.98435307
86810317586647,-1.0346485,9.651928999999999,-0.9699829
86810337445464,-1.0562036,9.637559,-1.0298585
86810357304407,-1.1136841999999998,9.601633999999999,-1.0753639
86810377158182,-1.1256591999999999,9.678274,-0.98914313
86810397016999,-1.1136841999999998,9.685459,-0.97237796
86810416875814,-1.1232642,9.635164,-1.0466236
86810436734630,-1.1424243,9.604028999999999,-1.0394385
86810456593447,-1.0849438999999999,9.577683,-1.0538087
86810476450360,-1.0705738,9.692644,-1.0466236
86810496309176,-1.1352394,9.699829,-0.9915381
86810516168121,-1.0849438999999999,9.678274,-0.98914313
86810536026936,-1.0370435,9.707015,-1.0538087
86810555881698,-1.0825489,9.611214,-1.1663746000000002
86810575740643,-1.0801538,9.618399,-0.9508228000000001
86810595599458,-1.0609937,9.685459,-0.9484278
86810615458403,-1.0035132,9.695039999999999,-1.0801538
86810635317220,-1.0585986,9.699829,-1.0777588
86810655176162,-1.089734,9.673484,-1.0657837
86810675025701,-1.089734,9.690249,-0.974773
86810694884390,-1.0585986,9.620794,-0.98195803
86810714743077,-1.0202783000000002,9.587264,-1.0705738
86810734601765,-1.0681788,9.596844,-1.101709
86810754460582,-1.1041040000000002,9.671089,-1.0681788
86810774316927,-1.1041040000000002,9.750125,-0.9148975
86810794175615,-1.0801538,9.611214,-1.0130934
86810814034432,-1.0490186000000001,9.599238,-1.0705738
86810833893119,-1.0609937,9.604028999999999,-0.97956306
86810853725323,-1.0873389,9.671089,-1.0130934
86810873583116,-1.1232642,9.704619000000001,-0.93405765
86810893440907,-1.1400293,9.630374,-1.101709
86810913298571,-1.1256591999999999,9.6686945,-1.0059083
86810933156364,-1.0801538,9.644744000000001,-0.98914313
86810953014155,-1.099314,9.541758999999999,-0.97956306
86810972872031,-1.0681788,9.623189,-0.9915381
86810992729824,-1.0250684,9.642349000000001,-0.9699829
86811012591451,-1.1352394,9.733359,-0.99393314
86811032449244,-1.1759547,9.72857,-0.9580079
86811052307037,-1.096919,9.654325,-0.9412427
86811072166302,-1.0657837,9.5489435,-0.97237796
86811092024094,-1.0370435,9.608819,-1.0394385
86811111881759,-1.0442286,9.666299,-0.9196875
86811131739550,-1.089734,9.716595,-0.94603276
86811151597342,-1.0633887,9.627979,-1.0178833
86811171455007,-1.0873389,9.656719,-0.9699829
86811191308519,-1.099314,9.666299,-0.9029224
86811211166056,-1.0729688,9.6758795,-0.9029224
86811231023721,-1.0801538,9.623189,-0.9268726
86811250881258,-1.1376343,9.659114,-1.0394385
86811270747433,-1.089734,9.630374,-0.98435307
86811290605226,-1.0657837,9.656719,-0.8765772
86811310462891,-1.0777588,9.663903999999999,-0.8909473
86811330320684,-1.0825489,9.695039999999999,-0.95561284
86811350178349,-1.1256591999999999,9.671089,-0.9963281999999999
86811370043320,-1.1208692,9.584868,-0.98914313
86811389901241,-1.1280543,9.565708,-0.8765772
86811409759162,-1.1064991000000002,9.666299,-0.91010743
86811429617083,-1.1400293,9.711803999999999,-0.9268726
86811449475004,-1.1663746000000002,9.68067,-0.977168
86811469332925,-1.1328443000000001,9.651928999999999,-0.9316626
86811489196556,-1.1472143999999997,9.671089,-0.8933423
86811509054605,-1.1208692,9.613608000000001,-0.9029224
86811528912654,-1.101709,9.604028999999999,-0.9196875
86811548770703,-1.1352394,9.64714,-1.0274634
86811568633700,-1.1376343,9.7142,-0.8933423
86811588491877,-1.1280543,9.692644,-0.92208254
86811608350054,-1.0777588,9.666299,-0.9412427
86811628208359,-1.1160791,9.625584,-0.9532178
86811648066536,-1.1496094,9.5561285,-0.97956306
86811667926484,-1.0753639,9.642349000000001,-0.90052736
86811687784789,-1.1136841999999998,9.745335,-0.93405765
86811707643094,-1.1927198,9.716595,-1.0226734
86811727501399,-1.1448194,9.692644,-0.96040285
86811747359704,-1.1280543,9.568104,-0.97237796
86811767218009,-1.1184741000000002,9.644744000000001,-0.95561284
86811787075180,-1.1879296999999998,9.625584,-0.8813671999999999
86811806933478,-1.1184741000000002,9.630374,-1.1208692
86811826791783,-1.1783496,9.702225,-0.93405765
86811846650086,-1.1711646,9.671089,-1.0250684
86811866509737,-1.1903248,9.635164,-0.93405765
86811886368042,-1.1376343,9.637559,-1.0466236
86811906226473,-1.1088941,9.582474000000001,-1.0921290000000001
86811926084777,-1.1807446000000001,9.6758795,-0.8885523000000001
86811945943210,-1.1424243,9.711803999999999,-0.9484278
86811965808693,-1.1543995,9.639954,-1.0777588
86811985667253,-1.2046948999999998,9.599238,-1.0705738
86812005525814,-1.223855,9.6758795,-0.95561284
86812025384245,-1.1496094,9.659114,-0.8933423
86812045242805,-1.1376343,9.639954,-0.9867481
86812065101366,-1.1807446000000001,9.524992999999998,-1.1280543
86812084956536,-1.1759547,9.649534,-1.0154883
86812104814968,-1.2118799999999998,9.726174,-0.8885523000000001
86812124673401,-1.1639795,9.75252,-0.8669971
86812144531960,-1.1687696,9.613608000000001,-1.0178833
86812164390721,-1.1735597,9.589659,-1.2022998
86812184249154,-1.1687696,9.642349000000001,-0.91250247
86812204107715,-1.1280543,9.6758795,-0.8669971
86812223966145,-1.1280543,9.627979,-0.98435307
86812243824578,-1.1639795,9.620794,-1.1639795
86812263683137,-1.1639795,9.730965,-0.9867481
86812283545525,-1.1496094,9.6758795,-0.9244776
86812303403958,-1.1903248,9.606423,-1.0226734
86812323262517,-1.1999048,9.582474000000001,-1.0729688
86812343121078,-1.096919,9.568104,-1.0418334999999999
86812362979639,-1.1496094,9.623189,-0.9627979
86812382838924,-1.1999048,9.745335,-0.9915381
86812402697485,-1.1615845,9.697434,-1.0490186000000001
86812422556046,-1.1879296999999998,9.635164,-1.1376343
86812442414479,-1.2406201000000001,9.637559,-1.0202783000000002
86812462263616,-1.1591895,9.608819,-0.94603276
86812482122049,-1.1711646,9.635164,-1.0633887
86812501980354,-1.1639795,9.625584,-1.1975098
86812521838659,-1.214275,9.695039999999999,-1.0298585
86812541697092,-1.1927198,9.673484,-1.0059083
86812561555397,-1.214275,9.520203,-1.0873389
86812581410046,-1.2022998,9.587264,-1.0873389
86812601268351,-1.1543995,9.623189,-1.0633887
86812621126528,-1.219065,9.704619000000001,-1.0490186000000001
86812640984833,-1.2621753,9.606423,-1.1088941
86812660843138,-1.2286451,9.616004,-1.0538087
86812680694977,-1.1999048,9.6615095,-0.9963281999999999
86812700553154,-1.1999048,9.546548,-1.1232642
86812720411331,-1.22146,9.594449000000001,-1.0729688
86812740269508,-1.1663746000000002,9.637559,-1.0298585
86812760083861,-1.1567944,9.70941,-1.0346485
86812779941014,-1.2406201000000001,9.81958,-1.0370435
86812799798275,-1.1520045,9.378897,-1.2430152
86812819655555,-1.2070899,9.527389,-1.1112891000000003
86812839512708,-1.2957056999999998,9.718989,-0.92926764
86812859369987,-1.099314,9.678274,-0.9484278
86812879241579,-1.1831397,9.570497999999999,-1.2022998
86812899099116,-1.1711646,9.575289,-1.4034815
86812918956651,-1.1687696,9.699829,-0.81909674
86812938814059,-1.1615845,9.750125,-0.81909674
86812958671596,-1.1879296999999998,9.627979,-1.2837305
86812978541340,-1.2406201000000001,9.584868,-1.2070899
86812998399132,-1.1927198,9.582474000000001,-0.92926764
86813018256797,-1.1615845,9.616004,-0.9029224
86813038114460,-1.1759547,9.613608000000001,-1.1567944
86813057983431,-1.1711646,9.635164,-1.1472143999999997
