UPTIMENANO,Ax,Ay,Az
86759162312721,0.6399052,0.9305938,7.3366055
86759182171154,0.62866896,0.33875024,7.854154
86759202030847,-0.3612564,-1.6553681,11.006422
86759221889279,0.6466791,-1.1126627,11.744627
86759241747584,2.2726362,0.91450423,9.073649
86759261606015,2.1568506,1.4343827,8.117474
86759281464319,1.8112196,0.6080315,8.015231
86759301322624,1.4320525,1.5165107,8.88934
86759321193410,2.398875,0.3273558,9.001368
86759341051970,2.4969218,0.6922772,9.274879
86759360910531,0.8652324,1.2603157,9.617801
86759380769090,-0.7206343,0.68416107,10.415279
86759400630350,-0.73794556,-0.48120266,12.035492
86759420488911,-0.7375058,-1.1140438,12.736121
86759440347598,-0.15131472,-0.21784317,11.957773
86759460206286,0.52162063,0.61061394,11.371393
86759480064847,1.4509716,0.73842084,10.741457
86759499923534,1.9235386,-0.03128997,11.390945
86759519782740,1.7698079,-1.6367157,12.618683
86759539641429,1.0649297,-2.284249,12.319255
86759559500116,0.6280993,-0.8480157,10.149012
86759579358804,0.5341441,0.662235,8.957071
86759599217493,-0.2764658,-0.12379302,9.675041
86759619079307,-0.66586643,-1.4701836,10.254138
86759638938123,-0.23475178,-1.3856679,9.822932
86759658796940,0.6048997,-1.0736102,9.26134
86759678655755,0.30892226,0.39284238,8.116098
86759698512145,0.6193994,-0.20938946,9.259709
86759718370834,1.2942997,-1.6946399,10.184737
86759738229521,0.041829642,-1.4885739,9.100428
86759758088337,0.4170435,-0.09202723,8.656208
86759777947026,1.573227,0.8193693,9.410244
86759797805713,0.027467215,0.91497153,8.183471
86759817669893,-1.507631,0.3883086,7.530296
86759837528710,-0.08767485,-0.60877043,8.410663
86759857387525,1.713176,0.012977063,9.718593
86759877246469,2.0539374,0.89972275,9.200106
86759897105286,1.2347857,1.2898725,8.229939
86759916974475,-0.046706356,0.44369036,9.303838
86759936833547,0.05682659,0.023402775,10.248297
86759956692748,-0.4102881,0.14300677,9.826963
86759976551819,-0.07077449,-0.17531437,10.687396
86759996422022,-0.07262689,-0.54216325,11.417084
86760016281479,0.8850894,-0.5943249,10.467565
86760036140934,4.1575923,-0.22001441,9.187631
86760056000390,0.09351809,-0.401653,9.780136
86760075859847,-0.034875125,-0.6485144,8.936181
86760095719302,-1.908653,-0.32804054,10.939942
86760115577600,-4.26026,0.18424597,12.942533
86760135437057,0.04093459,-0.117347844,10.640393
86760155296640,1.2192829,0.07067924,9.190871
86760175156096,1.0503678,0.18240048,10.331522
86760195015553,1.5476649,0.08261279,11.262949
86760214877714,1.4412023,3.1240733,10.428574
86760234737298,1.2728261,0.58591956,9.903759
86760254596883,-0.30272958,-0.5202967,9.496909
86760274456466,-0.107576355,-1.2795342,9.353667
86760294306339,1.2457895,0.03863506,8.790074
86760314165668,2.7229955,3.3076313,5.1596584
86760334024867,1.04128,2.2901404,4.928255
86760353884195,0.24648274,0.16883859,4.6898637
86760373743396,2.5992105,-1.4700294,6.7510943
86760393602723,-1.2167677,-4.4003882,14.362749
86760413460972,-1.8415604,-0.17295352,10.846291
86760433320301,-0.6233663,0.10661184,10.429545
86760453179761,-0.5606016,-0.011659764,11.484249
86760473038961,-0.2955343,0.61800236,9.5017805
86760492898162,0.2789257,0.87763804,7.8536897
86760512744829,2.2700095,0.55253303,7.71174
86760532603901,4.5242224,0.047385562,7.6669526
86760552462846,5.861576,-0.7023908,8.112208
86760572321789,5.589,-0.8746831,9.588891
86760592180733,2.8927398,-0.63829446,10.813713
86760612039678,0.44838265,-0.46298417,10.306224
86760631893830,-0.3358345,-0.2712785,9.8312645
86760651752646,-1.1354212,-0.25396702,9.277866
86760671611591,-3.894923,-0.21101063,3.6016111
86760691470534,-4.412995,0.4525265,9.195031
86760711316916,-4.662615,-2.268914,9.621713
86760731175477,3.6100974,-1.3727634,10.305328
86760751034164,4.8655567,5.8607674,2.3470135
86760770892724,6.3811088,2.199768,0.07800763
86760790751284,9.473875,-4.405373,7.1441298
86760810604248,6.098393,0.25743586,8.791036
86760830462680,4.692225,2.083214,5.814214
86760850321112,6.4187336,-0.6965303,4.7123113
86760870179544,7.9894834,-3.13897,4.8879895
86760890038104,9.602752,-6.000687,8.096113
86760909895920,8.12342,-6.726352,13.902368
86760929754352,3.8629196,-6.6426706,15.212799
86760949612912,2.1420503,-9.075476,11.455234
86760969471344,2.8728247,-11.486502,11.117758
86760989329904,2.1501358,-9.953198,15.335586
86761009183259,-0.087170444,-6.6026454,15.544237
86761029041563,-3.5834696,-2.3252158,17.013466
86761048899995,-4.757482,-0.2874403,16.52763
86761068758299,-4.6563544,1.8286598,15.463107
86761088616731,-5.3673277,-4.067961,14.900539
86761108472127,-10.40977,-8.458955,15.9527445
86761128330303,-10.431376,3.020828,15.725569
86761148188479,-0.6894573,11.827036,11.193268
86761168046783,5.2438912,6.488533,13.661663
86761187904959,3.0900269,5.2474594,12.768578
86761207765957,1.1729581,1.6793147,9.273219
86761227624261,0.87937564,-0.7063846,9.33464
86761247482437,1.0938356,-2.0998418,11.267435
86761267340613,0.83419883,-2.6689901,11.962089
86761287198917,0.22537401,-1.1621053,10.681639
86761307049901,-0.0059733153,-0.65992033,9.377276
86761326907949,-0.69650424,1.1366597,7.5559535
86761346765997,-6.777757,0.4987369,9.828902
86761366623917,-4.538125,-3.7723093,9.386162
86761386481965,-6.2851653,2.035647,8.308512
86761406346608,-9.637631,-1.5882831,11.180803
86761426204784,-5.9977818,1.9896591,8.394487
86761446062832,-5.401056,4.174469,5.9809384
86761465920880,-4.34214,3.3794932,7.562774
86761485779056,-1.2616154,4.300658,4.7350802
86761505641346,-3.9926803,3.0445871,4.326189
86761525499394,-5.42098,1.7873309,7.042086
86761545357570,-5.6782565,2.8335114,11.121969
86761565215746,-4.8104796,1.6988543,13.580844
86761585073922,0.26233792,0.26552108,13.452635
86761604936285,0.3957671,0.7639646,10.35105
86761624794589,3.4208264,-0.3168529,4.763556
86761644652893,4.5224094,0.03913344,6.2876887
86761664511197,4.4417777,-2.8524394,10.165597
86761684369501,1.1445017,-3.3215592,10.179283
86761704236515,-2.2989943,-3.5101,11.897374
86761724094947,-2.775638,-0.5818594,14.248318
86761743953507,-0.71729267,5.906007,17.472626
86761763811939,-0.8413263,9.718581,15.495301
86761783670371,5.770405,8.048558,12.200656
86761803535811,7.608259,0.55713373,16.711447
86761823394499,3.277271,-2.5620353,15.498855
86761843253187,1.3905727,-3.9017482,12.1290455
86761863111875,-1.9669898,0.85863715,14.096444
86761882970563,0.79187644,-0.082538985,7.8346634
86761902833682,-1.6223533,1.2864064,3.4157095
86761922692498,-3.7086399,6.3218145,4.3372636
86761942551314,8.016165,-4.2245374,2.8319488
86761962410130,9.179647,0.25021532,1.617604
86761982268946,-1.3262075,-2.0288444,4.66899
86762002127762,-2.545087,-2.6791596,3.4822464
86762021994715,-1.1215397,-0.7224118,5.2141476
86762041853787,-2.0344367,0.16728508,6.9833927
86762061712859,-2.9239662,-0.36312863,6.3927755
86762081571931,-1.5570782,-0.047481667,9.281784
86762101431003,-1.5980843,-0.43983355,11.160179
86762121293369,-2.1935635,-0.86038446,10.136942
86762141152569,-1.551815,0.67265916,9.281931
86762161011641,0.3337381,0.8846623,7.670832
86762180870841,0.42479146,-0.8953064,8.764032
86762200730041,1.4076965,-1.7154839,11.687273
86762220596478,2.3798332,-0.8515197,11.42168
86762240455806,2.294931,0.53120816,9.226099
86762260315134,1.4371606,1.0467329,8.519658
86762280174462,2.1928294,0.57424146,7.535898
86762300033790,3.0746508,0.28823665,7.410572
86762319890905,3.0908685,1.4816853,6.899557
86762339750105,2.9197383,4.28044,6.523577
86762359609433,3.5830183,5.0065985,7.449171
86762379468761,4.2372494,3.9443557,10.653498
86762399328089,8.850326,3.0155234,26.48167
86762419169088,-2.8724816,-4.062352,15.742823
86762439028032,-5.67883,-3.8417244,14.4214325
86762458889153,-2.7800903,-1.9014951,15.002578
86762478748097,-0.10722087,0.58244026,11.885331
86762498607169,1.9030033,1.9132519,10.145389
86762518464167,1.4029205,0.4779987,10.094096
86762538322983,-0.15829445,0.73556954,10.084855
86762558181927,-0.7484729,-0.04631665,10.799217
86762578040871,0.93062896,-0.16725872,11.108903
86762597899687,-2.0570817,1.7952654,7.08552
86762617753590,-1.7910649,-1.0719199,5.1768847
86762637612406,-3.7434366,-0.5882843,5.56276
86762657471222,-2.410404,-1.0844319,5.940846
86762677329910,-0.725799,-0.9934357,6.538232
86762697188726,1.0830847,0.77937216,8.581409
86762717048468,5.3160024,-1.285004,12.62444
86762736907156,6.3985987,-3.124168,12.7972355
86762756765972,-0.01916904,-1.3044586,9.430866
86762776624788,-0.6054692,-2.9794726,8.896814
86762796483476,2.7050138,-1.3598659,10.296794
86762816337993,3.3584316,1.0856079,11.403513
86762836196809,0.8381434,1.1439284,9.383439
86762856055497,-0.010079038,0.64312834,9.252596
86762875914185,-3.3894038,-1.8317419,9.052343
86762895772873,-0.39473024,4.6677547,10.895195
86762915623204,-0.4821329,3.2994573,11.129273
86762935481764,-1.5787418,1.0550249,10.584566
86762955340196,-0.5933224,1.7816528,10.288922
86762975198628,1.4964509,-0.16366829,9.759819
86762995057188,3.7577624,-0.7095583,10.277313
86763014924293,2.9015837,0.9304817,9.592728
86763034782853,1.5636433,0.6880137,8.312029
86763054641541,0.19261692,0.2318534,7.4892564
86763074500101,0.18508214,-0.57660884,9.016743
86763094358789,0.9649076,-1.1764436,9.517877
86763114219610,-0.051329575,-1.4598237,9.633501
86763134078298,-2.768419,-0.4636232,10.973615
86763153936858,-3.7311506,1.0730423,10.645945
86763173795546,-3.6255312,0.8112878,9.155227
86763193654234,0.3523068,-0.79646146,9.270707
86763213518577,2.2813988,-2.2962403,9.538428
86763233377265,0.18769172,-1.8313317,9.825221
86763253235953,0.6868259,1.1006,10.271775
86763273094641,0.3168935,1.1398776,9.8444
86763292953329,0.34341362,1.6593199,9.948433
86763312808786,0.6805804,1.3882271,9.836001
86763332667474,1.1523297,0.12400323,9.651048
86763352526162,1.3114103,0.90696293,10.001948
86763372384850,-0.65739816,0.44867867,9.4984665
86763392243538,-0.20793541,-0.54584783,9.969306
86763412100537,0.3110003,-0.69349027,9.84335
86763431959225,-0.010252588,-0.24510165,9.821991
86763451817785,-0.26528123,0.29315004,9.759813
86763471676473,-0.24409042,0.07930705,9.7166195
86763491535033,-0.09424471,-0.3368258,9.631727
86763511394526,-0.26565543,-0.4575295,9.628999
86763531253086,-0.5338102,-0.34914884,9.652474
86763551111774,-0.60034287,-0.29339972,9.711861
86763570970462,-0.54079455,-0.12753375,9.679919
86763590829022,-0.39447838,-0.052244388,9.732274
86763610690503,-0.2836835,-0.03935594,9.668775
86763630549191,-0.33075112,0.017175868,9.795274
86763650407879,-0.3484682,-0.02517361,9.892388
86763670266567,-0.35206524,-0.08421984,9.742477
86763690125383,-0.31463203,-0.06265839,9.652417
86763709986265,-0.3416542,0.009328676,9.622834
86763729845081,-0.23281704,0.057656955,9.72494
86763749703897,-0.09050969,0.13100764,9.914737
86763769562585,0.020139892,0.24024779,9.988375
86763789421401,0.08744668,0.36118183,9.873783
86763809282294,0.23312701,0.26338333,9.686606
86763829141238,0.2804991,0.113949805,9.645734
86763849000182,0.17572056,0.074404374,9.870211
86763868859126,-0.11584935,0.17482485,9.921363
86763888718070,-0.102124326,0.04514904,9.684537
86763908579488,0.10414883,-0.18090394,9.554255
86763928438560,0.15336719,-0.1722142,9.523312
86763948297632,0.13018481,-0.099001125,9.718944
86763968156704,0.018402828,0.09022185,9.81972
86763988015776,-0.04320569,0.06967534,9.963089
86764007872000,0.029165959,-0.11231751,10.004949
86764027730816,0.23674542,-0.11937788,9.826298
86764047589760,0.20769395,0.102298915,9.7140875
86764067448576,0.08179786,0.20365924,9.664523
86764087307520,0.041189823,0.19275622,9.677679
86764107169663,0.051502675,0.14117177,9.726045
86764127028607,0.017308062,0.07103776,9.769964
86764146887551,-0.05630871,-0.20140181,9.930814
86764166746495,-0.23805068,-0.15958557,9.935992
86764186605439,-0.16842271,-0.011039247,9.689504
86764206454074,0.06887743,0.032960102,9.589291
86764226312890,0.06645675,0.19868541,9.6061535
86764246171578,-0.0806828,0.25291196,9.831131
86764266030394,-0.10568908,0.18293245,9.823406
86764285889082,-0.03898768,0.035633374,9.801701
86764305747770,-0.028001346,0.015923485,9.694059
86764325607731,-0.026075605,0.073150426,9.618755
86764345466547,-0.031348277,0.037075594,9.856368
86764365325235,-0.103299744,0.033278096,9.96224
86764385184051,-0.15082072,0.27812913,9.837096
86764405042867,0.017919231,0.2685626,9.825828
86764424903833,-0.017725704,0.15674636,9.624077
86764444762521,-0.1336837,0.22026305,9.767136
86764464620759,-0.14620201,0.14507207,9.880839
86764484479447,-0.13921326,-0.11688996,9.787212
86764504338263,0.013585971,2.093639E-4,9.603651
86764524191873,0.08383657,0.20533817,9.603934
86764544050433,-0.003651126,0.24299215,9.766014
86764563908993,-0.12671438,0.23403944,9.856731
86764583767681,-0.15879047,0.11694223,9.855478
86764603626241,-0.10787858,-0.013879763,9.801145
86764623483195,-0.07804711,0.0059436625,9.730545
86764643341883,-0.13725202,0.08000848,9.753706
86764663200443,-0.19423217,0.104843244,9.7405405
86764683059131,-0.15174048,0.05580072,9.697667
86764702917691,-0.11406266,0.043300305,9.666046
86764722777835,-0.12318904,0.019667268,9.661953
86764742636523,-0.17313501,0.033799835,9.72726
86764762495211,-0.1377585,0.031389415,9.741783
86764782353899,-0.14381301,0.09788334,9.835188
86764802212459,-0.14293188,0.1303116,9.930159
86764822066161,-0.11283598,0.07102274,9.847592
86764841924721,-0.0036460173,0.05142408,9.718206
86764861783409,0.027267294,0.014357456,9.6210575
86764881641970,-0.10532885,0.013866667,9.630894
86764901500657,-0.19187097,0.02297626,9.6754
86764921349390,-0.15651983,0.044958606,9.673953
86764941207822,-0.14634544,0.03829773,9.765114
86764961066126,-0.09502991,-0.0786213,9.865289
86764980924558,-0.048435334,-0.05127797,9.850553
86765000782990,0.066651314,-0.012741398,9.789869
86765020632717,0.0701215,-0.0073238728,9.763545
86765040490893,-0.089959085,0.18867086,9.7678995
86765060349069,-0.111006625,0.14304212,9.785738
86765080207245,-0.0421959,-0.07159639,9.825192
86765100065421,-0.00552014,-0.055060487,9.736514
86765119922664,0.010910016,-0.0068161916,9.7046175
86765139780840,-0.027260402,0.09280634,9.697942
86765159639016,-0.046955954,0.08965775,9.740863
86765179497064,-0.019261168,0.058423273,9.783606
86765199355240,0.048164863,0.031292435,9.766906
86765219220314,0.046473414,0.033541143,9.783313
86765239078490,0.025001815,0.07615352,9.82066
86765258936795,-0.0065206615,0.09313599,9.828039
86765278794970,0.014912557,0.042746633,9.707988
86765298653274,0.07215802,0.015526804,9.692395
86765318516350,0.06696341,0.024315115,9.6842785
86765338374654,0.0640502,0.15778396,9.749915
86765358232958,0.08249661,0.12474483,9.813525
86765378091262,0.031218294,0.06860826,9.869883
86765397949695,0.047255684,0.13530941,9.832661
86765417810204,0.028125172,0.044979993,9.726043
86765437668637,0.040313322,0.12817821,9.774204
86765457526942,0.046448287,0.18135382,9.777979
86765477385247,0.05984287,0.097291864,9.718641
86765497243552,0.047585554,0.14747474,9.715446
86765517106829,0.004488792,0.12961632,9.733144
86765536965262,-0.002199526,0.16567914,9.763294
86765556823695,6.179895E-4,0.19946682,9.79485
86765576682128,-0.005155354,0.10790444,9.791791
86765596540561,-0.023023762,0.12279441,9.797985
86765616408952,-0.04456286,0.10291555,9.760479
86765636267641,0.0068257395,0.07784424,9.776373
86765656126202,0.053189516,0.18754213,9.705674
86765675984891,0.015605609,0.14476648,9.682484
86765695843580,-0.023833416,0.083202906,9.694482
86765715714001,-0.068724975,0.04500312,9.728122
86765735572946,-0.027700366,0.11163613,9.778903
86765755431891,-0.025046289,0.17717744,9.846639
86765775290836,-0.03611229,0.079612605,9.828848
86765795149781,-0.023994025,0.122532524,9.824528
86765815002595,-0.025334014,0.051247805,9.728634
86765834861283,-0.018073883,0.06569202,9.672802
86765854720099,-7.8463566E-4,0.19930565,9.719811
86765874578915,-0.022583509,0.11418783,9.736378
86765894437731,-0.019431084,0.056134533,9.691004
86765914302670,-0.01926627,-0.013726691,9.69214
86765934161614,-0.033753928,0.09896196,9.778083
86765954020558,-0.036926858,0.20056196,9.771866
86765973879502,-0.033263408,0.10812662,9.76799
86765993738446,0.017399209,0.10031433,9.82318
86766013608263,0.021328455,0.060477253,9.800295
86766033467463,0.059751153,0.071872674,9.794367
86766053326791,0.020587143,0.15589902,9.737625
86766073185991,-0.029824719,0.061706837,9.742876
86766093045319,-0.023454044,0.034157384,9.690418
86766112908059,0.07045247,0.057502713,9.674318
86766132767515,0.08163094,0.06883673,9.703924
86766152626843,0.07982786,0.13373676,9.767131
86766172486299,0.036535207,0.08467073,9.82504
86766192345627,0.029316232,0.02686847,9.822338
86766212210094,0.0824309,0.056435384,9.78643
86766232069679,0.06030239,0.103158064,9.805749
86766251929133,0.030594576,0.07701869,9.80385
86766271788717,0.014195223,0.050245658,9.759291
86766291648173,0.06943963,-0.017825909,9.74823
86766311501765,0.07924104,0.008224554,9.7621565
86766331361221,0.082765356,0.11156236,9.743963
86766351220805,0.053290483,0.1373436,9.709148
86766371080261,-0.002613618,0.040310446,9.801924
86766390939717,-0.014656842,0.0547337,9.733497
86766410791554,0.0057867537,0.075435884,9.715875
86766430650882,-0.010405103,0.034667723,9.772042
86766450510210,-0.051677503,0.086745284,9.8029375
86766470369379,-0.005568854,0.043431208,9.739557
86766490228835,0.023816569,-0.0061033117,9.723659
86766510078599,0.08368015,0.14369112,9.736489
86766529937799,0.024189653,0.13823882,9.786867
86766549796871,-0.0038357615,0.12900741,9.798673
86766569656071,-0.030391114,0.014508164,9.740106
86766589515143,0.020817135,0.057126306,9.820817
86766609358567,-0.004589319,0.06422137,9.800451
86766629217255,0.006970314,0.049766127,9.756744
86766649075943,0.058392435,0.017641218,9.724668
86766668934760,0.04769574,0.048438728,9.712525
86766688793449,0.11783952,0.09176575,9.7592125
86766708652604,0.07577168,0.08754132,9.757079
86766728511292,0.05376241,0.048089437,9.819083
86766748369980,0.014547787,0.027080867,9.83367
86766768228668,-0.0011579295,-0.01815859,9.7997265
86766788087356,0.08897176,0.08576959,9.802854
86766807948372,0.014502368,0.062367015,9.740155
86766827807060,0.016486967,0.039575297,9.762172
86766847665748,0.08493358,0.014361303,9.754345
86766867524436,0.0507904,-0.0052673128,9.747292
86766887383124,0.020705895,0.023466108,9.741363
86766907241812,-0.018169312,0.029149855,9.7164135
86766927101725,0.021084758,-0.0024571526,9.734622
86766946960413,0.09680963,0.11556959,9.791939
86766966819101,0.06512848,0.04940943,9.811505
86766986677789,0.076943316,0.072612844,9.871615
86767006536477,0.03578376,0.01291095,9.790266
86767026400718,-3.529392E-4,0.045467608,9.735386
86767046259534,0.04232646,0.023793042,9.70649
86767066118350,0.04670329,0.052028578,9.698956
86767085977039,0.09073898,0.085230395,9.805736
86767105835856,0.055105686,-0.004755677,9.765093
86767125689541,0.03156594,-0.0055520185,9.74459
86767145548226,0.041136127,0.026877122,9.753054
86767165406914,0.028190814,0.087412395,9.7318735
86767185265602,0.04868886,0.104515634,9.742431
86767205124162,0.06126615,0.11808789,9.7172575
86767224981686,0.018176315,-8.041324E-4,9.815258
86767244840246,0.05063417,0.06408088,9.845163
86767264698934,0.05110927,0.09575842,9.768349
86767284557622,0.05473727,0.1449915,9.711423
86767304416182,-0.0014135235,0.17128174,9.719051
86767324271657,-0.0016593848,0.09634829,9.750306
86767344130217,0.08132026,0.08379828,9.760464
86767363988905,0.10861741,0.090904616,9.786329
86767383847465,0.028530853,0.11904299,9.829341
86767403706153,0.015866186,0.15865123,9.745964
86767423565810,-0.0012014543,0.041129664,9.722219
86767443424370,0.040090118,0.111766435,9.742981
86767463282930,0.11278266,0.11978801,9.717941
86767483141490,0.09916734,0.12102871,9.712226
86767503000050,0.06034029,0.08388791,9.744494
86767522865638,-0.0014461003,0.04927016,9.742082
86767542724326,0.07395536,0.12244156,9.684044
86767562583014,0.061966676,0.10006537,9.682034
86767582441703,0.07987025,0.13611192,9.747868
86767602300390,0.0716312,0.10696254,9.798324
86767622163168,0.040789526,0.030748712,9.732661
86767642021985,0.11315809,0.07855608,9.757726
86767661880800,0.13919967,0.18925147,9.773709
86767681739617,0.08824259,0.19126458,9.76668
86767701598434,0.05061382,0.10889007,9.7016945
86767721466275,0.0052773217,0.012287155,9.69219
86767741325347,0.13100764,0.0921541,9.743745
86767761184292,0.18652737,0.16760719,9.772496
86767781043363,0.062151983,0.12970176,9.74234
86767800902435,0.0643285,0.0963173,9.767519
86767820761380,0.013351164,0.07029091,9.800609
86767840624376,0.10644366,0.14879367,9.699268
86767860483576,0.12956451,0.10368713,9.707362
86767880342777,0.14393339,0.093776815,9.866461
86767900201976,0.09789001,0.1550722,9.946163
86767920062613,0.028489137,0.11551072,9.836103
86767939921814,0.11779344,0.07113204,9.749607
86767959781013,0.09340158,0.063418604,9.740498
86767979640341,0.07098066,0.06601847,9.70264
86767999499542,0.10410219,0.015272657,9.661937
86768019354639,0.06904457,-0.014966543,9.671612
86768039213711,0.05484409,-0.018760078,9.753132
86768059072912,3.019181E-4,0.038721796,9.78327
86768078932111,-0.024100935,0.023047317,9.774386
86768098791183,0.026481768,-0.0030384269,9.7463665
86768118650384,0.013131009,-0.044303183,9.711571
86768138507267,0.121138446,0.04625249,9.802883
86768158366340,0.15689078,0.086200245,9.7672825
86768178225413,0.085687086,0.0025543266,9.793009
86768198084611,0.06961653,0.026603317,9.802397
86768217936376,0.056670245,0.06543953,9.764564
86768237795193,0.05939915,0.02887522,9.741265
86768257654136,0.026865473,-0.015141091,9.729796
86768277512952,0.124049164,0.06473996,9.776881
86768297371897,0.08835259,0.07917344,9.805574
86768317225487,-0.001990279,-0.074339956,9.745151
86768337084303,0.06554946,-0.055621494,9.792132
86768356943120,0.11152071,0.07889932,9.730844
86768376801935,0.1395529,0.06400516,9.726506
86768396660751,0.13295451,0.039220326,9.72328
86768416519568,0.0013769568,-0.010933842,9.7604065
86768436380913,0.099258535,-0.021666368,9.842209
86768456239729,0.09870959,-0.040207718,9.798187
86768476098546,0.08260276,-0.043783348,9.848285
86768495954460,0.062464185,-0.010015789,9.811531
86768515804205,0.017479053,0.024630673,9.676667
86768535662894,-0.035528906,0.0031996032,9.68304
86768555521581,0.0031044355,0.0045241257,9.669234
86768575380269,0.11257405,-0.0029965083,9.725847
86768595238958,0.02979292,-0.03992768,9.804612
86768615090595,-0.05404931,-0.052843183,9.78274
86768634949155,0.048212375,0.01844063,9.856905
86768654807844,0.019590564,0.047249466,9.773577
86768674666403,-0.009272629,0.017792478,9.753912
86768694524963,0.026288826,7.920074E-5,9.726969
86768714383652,0.0038454887,-0.007918176,9.751397
86768734236286,0.08499254,-0.018275283,9.755534
86768754094718,0.09890385,0.015471051,9.749965
86768773953151,-0.008597917,0.0026568545,9.768772
86768793811582,-0.05417552,0.018832976,9.779538
86768813667806,0.008566512,0.011725692,9.751187
86768833526239,0.14120904,0.012159674,9.866515
86768853384542,0.12174645,-0.045974985,9.79979
86768873242846,0.086289704,-0.062562436,9.799642
86768893101151,0.06755741,-0.029781738,9.785989
86768912959582,-0.028679002,-0.020068,9.721342
86768932793157,0.11020518,-0.046737492,9.753008
86768952650822,0.04146199,-0.04994637,9.686103
86768972508613,0.008802312,-0.06993094,9.732642
86768992366405,0.0115050115,-0.09390089,9.810825
86769012224070,-0.062353827,-0.06583364,9.798935
86769032091882,-0.12293311,-0.010994038,9.773693
86769051949802,-0.03264221,-0.014251654,9.729477
86769071807723,-0.041347075,-0.041554455,9.739592
86769091665642,-0.05611228,0.010567827,9.73594
86769111514657,-0.13610364,-0.011873306,9.703636
86769131372322,-0.105558485,-0.069454186,9.792004
86769151230113,-0.0010608198,-0.048177525,9.774542
86769171087777,-0.058505885,-0.02347274,9.764839
86769190945442,-0.043659374,-0.026326198,9.762266
86769210803105,0.0047571417,-0.03785977,9.761566
86769230672460,0.10478195,-0.051564544,9.7893305
86769250530253,0.009084625,-0.045941886,9.715514
86769270388172,-0.04842876,-0.041030508,9.749397
86769290245964,0.110664956,-0.08714596,9.802416
86769310103885,0.025394969,-0.008903524,9.748852
86769329967978,-0.039586373,-0.025533793,9.7834215
86769349826026,0.017750861,-0.041191783,9.764195
86769369684075,0.08595792,-0.0054370505,9.7219515
86769389541994,0.08419615,-0.056561064,9.772939
86769409406772,-0.014573754,-0.006707269,9.724935
86769429264949,0.04239826,-0.051800843,9.772933
86769449122996,0.14363019,-0.04073554,9.722487
86769468981172,0.054413084,0.03921351,9.74784
86769488839221,0.07974136,-0.0025754506,9.768263
86769508697396,-2.2557114E-4,0.05807048,9.730178
86769528566146,0.078271076,-0.03727889,9.761535
86769548424451,0.12356982,-0.029265925,9.762206
86769568282882,0.06606754,-0.010627198,9.683697
86769588141186,0.05934854,0.06909653,9.759326
86769607999619,-0.0024713674,0.041765697,9.785944
86769627863415,-0.02031588,0.13813162,9.825845
86769647721975,-0.06723664,0.20877345,9.800534
86769667580408,-0.105047576,0.107745446,9.738245
86769687438839,-0.17522176,0.15024033,9.800784
86769707305671,-0.22448462,0.048641484,9.730968
86769727164360,-0.12936024,0.0757474,9.708575
86769747023047,-0.12806214,0.13767616,9.746069
86769766881735,-0.098765835,-0.012806194,9.727937
86769786740424,-0.13204242,0.08556699,9.800301
86769806599111,-0.057554822,0.074955985,9.784985
86769826463833,-0.032558635,0.025061974,9.790529
86769846322650,-0.061040625,0.04740905,9.775861
86769866181593,0.0101921875,0.031802636,9.675311
86769886040537,-0.05634695,0.18803874,9.715111
86769905899354,-0.18481125,0.3018928,9.80898
86769925760587,-0.0690883,0.20517552,9.854834
86769945619531,-0.054132238,0.09183297,9.812799
86769965478476,0.04726057,-0.07401923,9.746715
86769985337419,-0.04137349,0.013057158,9.730349
86770005203909,-0.11297693,0.19596665,9.634062
86770025063110,-0.04138034,0.13847233,9.672161
86770044922309,-0.06976584,0.10430825,9.74138
86770064781509,0.08835191,0.003369369,9.703279
86770084640838,0.032138195,0.06929914,9.744506
86770104500037,-0.10571145,0.1251283,9.822715
86770124356762,-0.10751203,0.009959506,9.821055
86770144215963,-0.0041150334,0.026506871,9.730598
86770164075162,0.04761967,0.07887376,9.680277
86770183934362,-0.1469597,0.14918347,9.792756
86770203793563,-0.13466989,0.16683026,9.814626
86770223654523,-0.025560405,0.053645026,9.799227
86770243513723,-0.022999259,0.02965305,9.758329
86770263373052,-0.02456679,-0.039961766,9.735899
86770283232251,-0.010189148,-0.02078123,9.729086
86770303091451,-0.13176993,0.019889167,9.777663
86770322950780,-0.026326424,0.07232657,9.825283
86770342812155,-0.0021489942,0.04020317,9.822748
86770362671483,-0.07209307,0.09343201,9.7505245
86770382530812,-0.018823793,0.009683261,9.701235
86770402390011,-0.095009655,-0.0150483465,9.685412
86770422254935,-0.0060978103,0.037203826,9.755783
86770442114392,-0.15532511,-0.0039443877,9.841792
86770461973975,-0.04211104,0.038076255,9.789704
86770481821175,0.029615358,0.03206884,9.829087
86770501680632,-0.14245039,0.0104715675,9.779641
86770521540215,-0.010387166,-0.012278498,9.7246475
86770541381323,-0.05359116,0.046877235,9.717255
86770561240268,-0.03858775,0.0892674,9.71893
86770581099339,-0.049028926,0.048326652,9.739087
86770600958283,-0.15934354,0.073847376,9.739255
86770620817356,-0.025158897,0.049030956,9.826127
86770640674885,-0.07447228,0.049026504,9.8446865
86770660533957,-0.032347083,0.022929566,9.75865
86770680393030,-0.02665871,0.059277486,9.714878
86770700252101,-0.11434312,0.0046653496,9.709285
86770720096197,-0.12374957,0.11772427,9.737713
86770739954758,-0.04812166,0.09912332,9.789556
86770759813445,-0.013668166,0.053571418,9.811631
86770779672005,-0.005691201,0.030156622,9.805137
86770799530694,-0.10028888,-0.029408917,9.745531
86770819389253,-0.07311019,0.046244584,9.731127
86770839240529,-0.10382017,0.052842535,9.772454
86770859099090,-0.13448091,0.06114277,9.785374
86770878957649,-0.08474339,0.025550522,9.779844
86770898816081,-0.03578128,0.034040514,9.772087
86770918674642,-0.01355782,0.0352537,9.791194
86770938526996,-0.08123505,-0.06196186,9.801379
86770958385428,-0.038219772,-0.013825745,9.735465
86770978243733,-0.022925712,0.04084105,9.724173
86770998102036,-0.20955013,0.076135,9.697675
86771017963759,-0.1325203,0.023584409,9.731559
86771037822192,-0.110427335,0.01340717,9.762122
86771057680495,-0.0769938,0.004904629,9.738964
86771077538927,-0.08129352,-0.049934633,9.726523
86771097397232,-0.17002146,-0.01682004,9.75258
86771117255663,-0.06219655,0.008967728,9.80491
86771137108664,-0.07639353,-0.0014367803,9.851957
86771156966841,-0.13093214,-0.022179728,9.819875
86771176825144,-0.01013509,0.024956781,9.793193
86771196683448,0.025956245,0.012425586,9.660989
86771216541625,0.07241012,0.06862468,9.640359
86771236396728,-0.024894753,0.096219525,9.714832
86771256254904,-0.13923818,0.04551056,9.7426
86771276113081,0.024534514,0.031395722,9.7599325
86771295971256,-0.02932411,-0.025777424,9.793776
86771315827791,-0.12174487,0.040724196,9.806339
86771335685840,-0.18103462,0.003993956,9.830524
86771355544015,-0.08422487,0.0023478174,9.768795
86771375402063,0.0058359243,0.054494392,9.689917
86771395260240,-0.092628464,0.09276208,9.711537
86771415118287,-0.2296802,0.056201436,9.766657
86771434981479,-0.19875856,-0.014724381,9.876458
86771454839656,-0.042840395,0.011534861,9.816311
86771474697831,0.09131392,0.011416412,9.765254
86771494556007,-0.10435017,0.033853132,9.719534
86771514414184,-0.16192317,0.024236627,9.681739
86771534276071,-0.13849229,0.04987858,9.753829
86771554134375,-0.07701928,0.059809115,9.764498
86771573992552,0.014594326,0.048542403,9.754717
86771593850727,-0.075394444,0.019229865,9.775829
86771613709031,-0.12333352,0.034666013,9.756926
86771633567208,-0.18105748,-0.012429424,9.792886
86771653434861,-0.14794241,-0.031546485,9.813134
86771673293293,-0.1445106,-0.030319855,9.784426
86771693151598,-0.15374376,-0.021380695,9.738907
86771713010029,-0.1259129,0.019519005,9.726556
86771732872179,-0.15345049,-0.028575893,9.82498
86771752730612,-0.20798165,-0.09152939,9.808616
86771772589043,-0.012107828,-0.005850157,9.673114
86771792447603,-0.066575624,-0.020720117,9.681967
86771812306036,-0.21664752,-0.018750908,9.708098
86771832164637,-0.23905851,-0.022008194,9.863162
86771852023069,-0.19417611,0.013057968,9.891097
86771871881630,-0.026696311,-0.021609679,9.761643
86771891740061,-0.041988544,-0.04613299,9.7329445
86771911598621,-0.10480846,-0.05074632,9.73254
86771931457054,-0.19318779,-0.11299133,9.774152
86771951322344,-0.19512084,-0.08420484,9.7845
86771971181032,-0.017844385,0.029893288,9.736221
86771991039721,-0.09899023,0.035053004,9.723451
86772010898408,-0.1399311,0.004686748,9.633579
86772030766978,-0.044660557,-0.027419217,9.661751
86772050625923,-0.14841223,0.03157726,9.8003435
86772070484866,-0.12538078,0.013533138,9.876644
86772090343810,-0.06462514,0.036558963,9.85013
86772110202755,0.028801758,0.10272114,9.718161
86772130061668,-0.09601182,0.050086606,9.703428
86772149920740,-0.21869022,0.03266837,9.786962
86772169779685,-0.13068181,0.036742654,9.718052
86772189638756,-0.08630301,0.107551344,9.673583
86772209497700,0.0123237185,0.04297808,9.656043
86772229356773,-0.06825088,-0.0035284278,9.798564
86772249218459,-0.21854527,0.024484938,9.954341
86772269077531,-0.10322034,0.04187357,9.865191
86772288936604,-0.10920664,0.08233246,9.743131
86772308795675,-0.1975469,0.05035491,9.7197695
86772328652754,-0.096470885,-0.022305425,9.750413
86772348511827,-0.15679319,0.044165865,9.751842
86772368370898,0.03121832,0.07539704,9.723679
86772388229970,0.040357914,0.058525044,9.749132
86772408089043,-0.115863495,0.077590905,9.703
86772427932437,0.0035161227,0.07854096,9.72842
86772447791253,-0.059064552,0.034650903,9.822221
86772467649942,-0.036816735,0.0057567973,9.76802
86772487508757,-0.068038665,-0.0345627,9.768361
86772507367445,-0.06702458,0.0057435534,9.71956
86772527226134,0.038145117,-0.0514779,9.733304
86772547077738,-0.07538816,-0.0011201636,9.727965
86772566930000,-0.114162445,0.0078068725,9.733241
86772586788561,-0.087764494,0.035918348,9.714422
86772606647120,-0.086395994,0.069255985,9.754362
86772626499341,-0.124345705,0.048992623,9.802698
86772646357774,-0.10217376,-0.0011563253,9.858192
86772666216205,-0.014446318,-0.04961344,9.804791
86772686074765,-9.62723E-4,-0.02401549,9.738904
86772705933198,-0.037539117,0.01398783,9.736521
86772725791757,-0.18176436,3.5486498E-4,9.755128
86772745644903,-0.18049414,-0.06582709,9.759011
86772765503208,0.02041253,-0.017592326,9.779005
86772785361511,-0.015511109,-0.014345756,9.810356
86772805219815,-0.052659817,0.012479854,9.792601
86772825078120,0.059303045,0.029961918,9.7475195
86772844927999,0.01710174,0.026873194,9.738513
86772864786175,-0.0060686395,0.017897438,9.793385
86772884644224,-7.160484E-4,-0.02704523,9.825684
86772904502399,0.07123286,0.041372567,9.740818
86772924356052,0.063405715,0.07612487,9.791901
86772944213973,-0.115782335,0.014963726,9.7750845
86772964071894,-0.04934076,-0.045674663,9.736886
86772983929815,0.050756067,-0.010567536,9.752848
86773003787736,0.06101158,0.061513487,9.727288
86773023645652,-0.07706995,0.0945431,9.820505
86773043509356,-0.25035813,0.08347252,9.835856
86773063367405,-0.08052756,0.027728584,9.779431
86773083225452,-0.049847208,-0.014210532,9.747065
86773103083372,-0.11193503,-0.0033612552,9.70843
86773122941421,-0.1559018,0.015283936,9.749663
86773142802388,-0.21492454,0.0065473984,9.805445
86773162660436,-0.11141679,-0.022549158,9.807897
86773182518485,-0.10874197,0.025186148,9.788811
86773202376404,-0.07072629,0.05358041,9.752268
86773222239675,-0.06728615,0.026943078,9.747526
86773242097852,-0.11068926,0.0080563985,9.787271
86773261956027,-0.041742597,0.029657377,9.733381
86773281814075,-0.008180609,0.045974966,9.786396
86773301672252,-0.045658097,0.026534455,9.761363
86773321530427,0.01723861,-0.01129953,9.782686
86773341386122,-0.022035092,0.007864088,9.775534
86773361244171,-0.039150193,0.015606853,9.757693
86773381102346,0.027540125,0.03675331,9.739572
86773400960394,-0.054493412,0.02345679,9.737028
86773420818571,-0.1217499,0.062185645,9.749224
86773440681951,-0.13724855,1.6121344E-4,9.85196
86773460540127,-0.0028606015,0.024184879,9.779145
86773480398304,0.02813459,0.0020915235,9.767805
86773500256479,-0.035355374,0.0048313793,9.836486
86773520121951,-0.03252241,0.0020908816,9.782419
86773539980256,-0.07153102,0.008783067,9.738263
86773559838559,-0.047483098,0.09276672,9.71358
86773579696864,-0.042795762,0.019367246,9.767239
86773599555169,-0.0023474449,-0.06267751,9.789485
86773619413474,0.03996951,-0.037684266,9.7088
86773639272425,0.019753983,-0.013185172,9.740765
86773659130858,-0.10349443,0.042816967,9.763996
86773678989291,-0.17285785,0.032387447,9.720405
86773698847596,-0.08914195,0.045096897,9.709953
86773718706029,-0.0070359185,0.007998158,9.762139
86773738571030,-0.09487414,-0.044610802,9.787645
86773758429591,-0.13348326,-0.015328876,9.784571
86773778288152,-0.09997401,0.0034490202,9.745969
86773798146702,-0.15769775,0.0037248507,9.791075
86773818005262,-0.080727264,0.025107976,9.789687
86773837863823,-0.1010938,0.033905346,9.810455
86773857731592,-0.15318514,0.055355534,9.814619
86773877590408,-0.0722089,0.045648627,9.822223
86773897449225,-0.07751224,-0.005470375,9.782975
86773917308040,-0.04020198,0.057100646,9.722105
86773937175133,-0.10416947,0.11189435,9.762098
86773957034206,-0.13432857,0.055908285,9.778164
86773976893277,-0.026280753,0.038618557,9.741508
86773996752349,-0.056479592,0.041894794,9.750563
86774016611294,-0.050404385,0.04864543,9.800031
86774036467695,-0.10831788,0.019244581,9.768285
86774056326639,-0.13062583,0.10558707,9.745612
86774076185584,-0.13104387,0.084008776,9.83999
86774096044655,-0.19703376,0.031423837,9.848537
86774115903599,-0.0905359,0.03993328,9.71244
86774135762544,0.0093364455,0.063274845,9.761238
86774155620262,-0.113892265,0.095210314,9.776372
86774175479206,-0.12220618,-0.00678596,9.731329
86774195338151,-0.026058089,0.03096635,9.612229
86774215197222,0.049127392,0.028683743,9.618063
86774235061526,-0.16297585,-0.010033245,9.771436
86774254920599,-0.2240479,-0.04802545,9.869078
86774274779670,-0.08970919,-0.03351131,9.854631
86774294638742,-0.025470011,0.028309003,9.764944
86774314497687,-0.10268105,0.00762839,9.764048
86774334356758,-0.2103569,0.016997779,9.744657
86774354212700,-0.23878482,-0.001716908,9.752801
86774374071645,-0.13658503,0.003532469,9.737222
86774393930716,-0.11027263,0.013053706,9.822331
86774413789788,-0.1214178,0.0063933455,9.803414
86774433648733,-0.09635371,0.021522183,9.765881
86774453496065,0.04190269,-0.032480564,9.691873
86774473354753,0.11994158,-0.04373526,9.668415
86774493213570,-0.1986231,0.0838375,9.792629
86774513072385,-0.23645513,0.09970255,9.81915
86774532926599,-0.16043329,0.06236421,9.80805
86774552785160,-0.09885651,0.07622264,9.737225
86774572643847,-0.015305609,0.0068071852,9.670044
86774592501882,-0.07252307,-0.050973773,9.727288
86774612360571,-0.048055336,-0.06660684,9.679505
86774632219130,-0.1503515,0.0067271027,9.770221
86774652076239,-0.1965154,0.027971582,9.850612
86774671934928,-0.0731037,-0.01709673,9.900086
86774691793615,-0.04237716,-0.0152608,9.804251
86774711652303,0.043993182,0.022161594,9.658259
86774731510864,-0.11385509,0.02238398,9.679449
86774751365693,-0.2409862,-0.051809616,9.705485
86774771224381,-0.11756798,-0.07513543,9.756598
86774791082942,0.073783986,-0.008323016,9.834297
86774810941501,0.04106303,0.025603704,9.823312
86774830795788,0.006956511,0.04258234,9.822333
86774850654221,-0.10867459,0.0026160192,9.763054
86774870512780,-0.0859947,0.042466383,9.748033
86774890371212,-0.09116005,0.03212406,9.766105
86774910229645,-0.10300276,0.028744075,9.70441
86774930088204,-0.025481993,0.031549364,9.752267
86774949941656,-0.06419141,0.0090728775,9.838705
86774969799961,0.008819019,-0.018617285,9.822634
86774989658264,-0.17724983,0.013520408,9.828472
86775009516568,-0.14104368,0.033068478,9.732756
86775029374873,-0.024764696,-0.01070264,9.770461
86775049238022,-0.11118318,0.07196585,9.770256
86775069096455,-0.022898251,0.02914414,9.779693
86775088954760,-0.0348547,0.041474856,9.767581
86775108813193,-0.04297537,0.0334158,9.737081
86775128671626,-0.018303031,0.0250562,9.719368
86775148530059,-0.12389894,0.042308997,9.790505
86775168384956,-0.08692504,0.036679152,9.803211
86775188243389,-0.11928163,0.027694512,9.857267
86775208101694,-0.06259791,0.064630434,9.786341
86775227959999,-0.017625447,-0.0029466243,9.755548
86775247812332,-0.09853433,-0.039499395,9.684064
86775267670509,0.001147847,0.024426395,9.631795
86775287528686,-0.055782832,0.0794757,9.727945
86775307386735,-0.13993782,0.08995776,9.793281
86775327244912,-0.058807515,0.02102024,9.87697
86775347102791,-0.05489135,0.020076707,9.857934
86775366960968,0.012361338,0.032848585,9.797912
86775386819017,-0.12960382,-0.040126666,9.821139
86775406677194,-0.05926593,-0.010539646,9.66389
86775426535243,0.0025715448,0.08302981,9.67348
86775446393420,-0.20631965,0.053172067,9.778736
86775466256785,-0.064435996,0.004785441,9.804899
86775486114962,-0.03055125,-0.022276474,9.793624
86775505973139,0.03236022,-0.06875336,9.725401
86775525831421,-0.11213862,-0.08354783,9.805492
86775545692734,-0.27063146,-0.010873541,9.800714
86775565551039,-0.14331454,0.040775258,9.801337
86775585409344,-0.102117516,0.039950427,9.774029
86775605267649,-0.123272315,0.053589236,9.790016
86775625125954,-0.13183492,0.020596711,9.745116
86775644981339,-0.17281999,0.015066643,9.786379
86775664839516,-0.117937945,0.007514682,9.757443
86775684697821,-0.07655413,0.05888053,9.766232
86775704555998,-0.05177375,0.121342726,9.7622385
86775724414303,-0.041709766,0.049159177,9.739902
86775744272480,-0.053489015,0.004357533,9.766126
86775764137501,0.10507043,0.020573888,9.735341
86775783995806,-0.014924549,0.040948123,9.780559
86775803854111,-0.09756004,-0.009248577,9.772518
86775823712531,0.077710725,-0.05361854,9.692107
86775843576132,-0.08325921,-0.06844483,9.749667
86775863434693,-0.15893717,-0.03836045,9.778485
86775883293252,-0.106444076,-0.044743378,9.783517
86775903151812,-0.06367151,-0.002141698,9.733689
86775923010373,0.03895867,0.03589189,9.713713
86775942867870,-0.08444934,0.07164265,9.72135
86775962726430,-0.1450499,0.09942301,9.741773
86775982584991,-0.12679225,0.060126472,9.744875
86776002443550,-0.05240649,0.036264703,9.797967
86776022302110,4.5587178E-4,0.006550142,9.768905
86776042160671,-0.079711236,0.03774953,9.826329
86776062020784,-0.046839677,-0.031254355,9.844988
86776081879344,-0.022160763,-0.065730445,9.781394
86776101737905,-0.06623122,0.117462315,9.776127
86776121596464,-0.080178045,0.09115764,9.726375
86776141452871,-0.15199645,0.024693672,9.751865
86776161311432,-0.057028797,0.026584981,9.701281
86776181169863,-0.007861124,1.4492359E-4,9.788918
86776201028424,-0.15297149,0.0077108825,9.873867
86776220886985,0.034524564,-0.060447626,9.742001
86776240745546,0.11217651,0.06602221,9.717528
86776260610320,-0.10928826,0.15205425,9.806486
86776280469009,-0.14040491,0.0586385,9.838606
86776300327696,-9.270835E-4,0.0687366,9.754386
86776320186256,0.20421,0.110768415,9.646126
86776340044945,-0.0039481916,0.085647754,9.745948
86776359899688,-0.098828375,0.09313442,9.763654
86776379758377,-0.019201929,0.08392691,9.774061
86776399617066,0.070469536,0.10710556,9.853115
86776419475755,0.10315296,0.011865091,9.84012
86776439332310,-0.030743886,0.006117423,9.873455
86776459190999,0.011998169,0.04005308,9.711481
86776479049560,0.068204105,0.021393286,9.69209
86776498908249,-0.013064157,0.08574791,9.738629
86776518766810,0.021570617,0.053861134,9.742505
86776538625499,0.010713172,0.0959203,9.73712
86776558482756,0.091100916,0.063468404,9.79665
86776578341317,0.03960194,0.007859295,9.857076
86776598199878,-0.068972066,0.029797468,9.909657
86776618058567,0.08067982,0.026310723,9.773508
86776637917128,0.13575979,0.059737813,9.673222
86776657771777,-0.0324976,0.099954106,9.665083
86776677630338,-0.121823974,0.050510757,9.688027
86776697489027,-0.05604384,0.12549715,9.80446
86776717347588,0.058172144,0.022799643,9.756314
86776737200419,0.05765033,-0.030865902,9.880391
86776757058852,-0.014829648,0.07956941,9.824943
86776776917393,-0.07290075,0.0050351694,9.798749
86776796775825,-0.10769348,0.05589334,9.739887
86776816634258,0.032179374,0.0011956176,9.666392
86776836492689,-0.0538565,0.05127428,9.745088
86776856343746,-0.13914368,0.062350854,9.767583
86776876202051,-0.035835944,0.006645897,9.713578
86776896060354,-0.07269125,0.03359727,9.832088
86776915918530,-0.103032365,-0.018027969,9.787989
86776935776835,-0.14625503,-0.01745571,9.829489
86776955636278,-0.008445532,-0.024692802,9.745929
86776975494582,-0.014198372,-0.008540763,9.723839
86776995352887,-0.105048865,0.075031966,9.7276
86777015211190,-0.10508061,0.019297363,9.684119
86777035073121,-0.036143042,0.0034839313,9.689656
86777054931426,-0.056637127,0.058949694,9.698107
86777074789857,-0.11002589,0.015534358,9.754442
86777094648161,-0.1535407,0.024538608,9.964783
86777114506466,-0.06496686,-0.06691759,9.845821
86777134364897,0.057437148,-0.05262883,9.700779
86777154225738,-0.04904912,0.08118344,9.673006
86777174084171,-0.18126309,0.11536951,9.701728
86777193942474,-0.22361149,0.16897975,9.772656
86777213800906,-0.09362492,0.05832861,9.738609
86777233659339,-3.7254742E-4,0.029645424,9.80263
86777253515576,-0.030564021,0.0418117,9.821637
86777273373880,-0.12141849,0.032017272,9.799173
86777293232185,-0.15528704,0.121533304,9.84182
86777313090488,-0.19378462,0.14733413,9.790874
86777332948792,-0.15484937,0.105922244,9.804572
86777352807097,-0.076718464,0.0672511,9.76008
86777372669006,0.005061145,0.005206593,9.764486
86777392527438,0.03207852,0.0822352,9.771139
86777412385743,-0.019197745,0.10734334,9.715807
86777432244176,-0.0756448,0.114909984,9.787
86777452102347,-0.04580635,0.08367851,9.798669
86777471960652,-0.0070399065,0.0501922,9.825714
86777491819085,-0.033668235,0.1325469,9.93234
86777511677518,-0.006231929,0.11170519,9.847694
86777531535823,0.020061666,0.10618816,9.910706
86777551400838,-0.080263875,0.13253193,10.0332575
86777571259271,-0.18437727,0.14100346,10.082269
86777591117832,-0.15103187,0.19367835,10.13405
86777610976265,-0.027553134,0.077306,9.988583
86777630834698,-0.019927504,0.044699322,10.043538
86777650693259,-0.029262751,0.1285872,9.988144
86777670556032,-0.067121394,-5.7713536E-4,9.865092
86777690414593,-0.0706652,0.15614831,10.0498
86777710273154,-0.021098794,0.046324663,9.963879
86777730131843,0.019533988,-0.016373303,9.929599
86777749994192,-0.12394668,0.18978326,10.057317
86777769852881,0.010119833,-0.14021774,9.937794
86777789711570,0.011382781,0.014711666,10.012008
86777809570112,-0.20221071,0.20076449,9.875062
86777829428801,-0.2904956,-0.013640879,10.020176
86777849286349,-0.25909042,0.074416526,10.063482
86777869145037,0.026006835,-0.10619249,9.813708
86777889003726,0.29573148,-0.19568597,10.033447
86777908862413,0.22824623,-0.08973284,9.925095
86777928721101,0.00852062,-0.274313,9.980625
86777948579790,-0.3826017,-0.004747898,10.073568
86777968432248,-0.36161175,-0.0030423324,9.844841
86777988290808,-0.31050864,-0.08189236,9.939705
86778008149497,-0.47293872,0.23031509,10.052564
86778028008184,-0.27924487,0.14782415,10.019762
86778047869158,-0.16527304,-0.111200266,9.958525
86778067727975,-0.117854156,-0.1412368,9.91727
86778087586662,-0.111182466,0.021819696,10.06571
86778107445350,-0.21161108,0.0849198,10.035734
86778127304039,-0.20088048,-0.077041775,9.938599
86778147161563,-0.28251213,0.03587457,9.972772
86778167020251,-0.21708314,0.11994095,9.955601
86778186878940,-0.10818305,0.078109376,10.049021
86778206737627,-0.18969093,0.031447865,9.978074
86778226596315,-0.2687464,0.046604678,10.029915
86778246455132,-0.23463266,0.20017503,10.026014
86778266311308,-0.07256661,-0.030355848,9.969964
86778286169868,-0.109267205,-0.0106552355,10.045802
86778306028557,-0.26152936,0.21044292,10.108078
86778325887244,-0.22199902,0.11688724,10.037291
86778345742260,-0.16629091,0.19172943,10.058092
86778365600693,-0.14342602,0.25970697,9.961657
86778385459252,-0.16209571,0.20475766,10.14498
86778405317812,-0.2149475,0.1538778,10.144285
86778425176373,-0.3038443,0.04155818,10.009823
86778445034934,-0.2784979,0.053345382,10.302102
86778464887435,-0.32983404,0.257625,10.2261915
86778484745868,-0.41693947,0.3649717,10.072531
86778504604173,-0.42974558,0.5810167,10.391458
86778524462472,-0.37442645,0.6756895,10.331345
86778544320905,-0.32498795,1.0078766,10.2206955
86778564174868,-0.7470717,1.9877137,10.911927
86778584033172,-1.2308522,2.4441762,11.26732
86778603891476,-0.20093453,0.8723461,11.010536
86778623749652,1.0489869,-0.18760118,10.173383
86778643607956,0.6723502,-0.89231586,9.868072
86778663466193,-0.09784589,-0.18092899,10.563799
86778683324369,0.60699594,1.2382451,10.312487
86778703182673,1.7672111,1.4278872,9.207483
86778723040977,1.523017,1.4621177,9.154573
86778742899153,0.20536974,0.98627037,9.270154
86778762758310,-0.5770123,0.10672024,9.577204
86778782616706,-0.6552113,-1.2473865,9.5013
86778802475010,-1.1454756,-0.8576303,9.573289
86778822333186,-1.1603208,-0.15918116,9.530482
86778842191490,-1.0692073,1.4868283E-4,9.457167
86778862047035,-0.91947436,0.39261478,9.745931
86778881905211,-1.1394747,0.5583705,9.857846
86778901763387,-1.661708,0.9462464,9.873138
86778921621563,-1.9004922,1.2888172,9.833708
86778941479739,-1.6611164,1.3128291,9.929834
86778961337454,-1.0813777,1.5840445,9.761069
86778981195631,-1.9662442,2.210487,9.295819
86779001053805,-3.699873,3.2604396,9.788313
86779020911981,-4.5421906,1.9030286,8.952847
86779040770029,-3.1966274,0.34493998,8.272495
86779060628108,-3.2708962,-0.9741503,8.262675
86779080486156,-5.5899625,-1.8872001,4.294086
86779100344332,-2.2320328,-1.5285767,1.8899862
86779120202381,-0.3153407,-0.94621134,14.635191
86779140060558,1.1114901,8.722572,31.436214
86779159917815,11.728451,3.2591586,9.798083
86779179775992,2.91405,2.6477787,-1.1749173
86779199634041,0.7103116,6.2309527,4.7748733
86779219492218,4.7874026,-0.22996596,10.1026
86779239350395,6.4247403,-4.7571907,13.681831
86779259210272,2.927881,-4.335705,12.548507
86779279068449,-0.30833355,-2.2733867,10.488107
86779298926626,-2.4451215,0.8255299,10.350403
86779318784803,0.7991289,-0.77584404,9.466801
86779338642980,1.7275552,-2.442072,9.119403
86779358501379,0.86178505,0.5962118,7.8658533
86779378359684,1.6763682,-0.784319,8.568459
86779398217861,0.45972157,0.9448279,9.541068
86779418076166,0.37923723,0.28768384,9.502702
86779437934343,-0.3290459,-2.6971204,9.959547
86779457790824,-1.1107421,-0.7366322,10.234136
86779477649001,-0.9233997,-0.4730362,9.035128
86779497507178,-0.4874849,-0.610554,9.33608
86779517365355,-0.40437847,0.19198626,10.242213
86779537223532,-0.19151387,-0.51241124,9.670477
86779557087067,-0.22311352,-1.2551035,9.217789
86779576945223,-2.7944365,1.4955089,8.751704
86779596803400,-2.4616745,1.4015268,8.600455
86779616661705,-2.112679,0.74938554,8.49012
86779636519882,-2.1152997,1.102274,8.678915
86779656385361,-1.7046518,1.3189611,8.704404
86779676243794,-1.2257863,1.5313272,9.169073
86779696102099,-1.5777684,1.8443652,10.361589
86779715960532,-2.0728514,1.4948286,11.476219
86779735818837,-2.73116,1.7148354,12.080508
86779755677270,-4.352611,2.3915763,11.787462
86779775540017,-4.848361,1.7133608,12.163707
86779795398578,-4.881155,0.15683354,13.462874
86779815257011,-4.669495,0.048138235,13.676302
86779835115432,-4.01184,0.9757807,13.35005
86779854973992,-2.5105052,0.41806683,12.656176
86779874834722,-0.7165811,-0.5164811,10.679234
86779894693282,1.4952483,0.34688655,9.449574
86779914551842,3.520816,0.9889736,9.951243
86779934410402,3.9861097,0.28884163,12.002007
86779954268962,5.045582,1.9805197,12.973379
86779974129695,4.1055202,1.7610601,11.769653
86779993988255,2.0569239,0.22061528,10.508684
86780013846815,0.36157745,-0.042843245,10.102657
86780033705503,-0.4079184,-0.4811969,9.780812
86780053564063,-0.5710693,-3.1342897,8.534158
86780073431156,-1.1255833,-4.1895843,7.2044916
86780093289844,-0.98671967,-2.7450764,7.355427
86780113148660,0.06991555,-1.8768066,6.9666023
86780133007476,1.3527776,-2.753674,6.203704
86780152866292,1.2818186,-3.228104,4.9611106
86780172723651,2.2440763,-1.1789742,4.1480427
86780192582339,3.2836967,1.9055341,4.493423
86780212441156,2.6503701,2.4188254,4.5546184
86780232299973,2.1386693,1.9037839,4.8129435
86780252158659,0.56545204,2.3531244,5.0405083
86780272021880,0.9860692,0.87801856,6.058543
86780291880696,1.1899793,-0.40141353,10.838552
86780311739640,1.6469765,0.7288333,18.831352
86780331598456,-0.6449488,5.3592944,21.654016
86780351452700,-0.72447246,12.34235,10.866524
86780371312155,-3.3053086,6.110044,6.301698
86780391171100,-0.534601,2.091812,14.548395
86780411029917,1.8584609,-1.9728391,21.505991
86780430888862,6.56892,-11.8657055,13.484904
86780450747807,6.7746353,-0.95830816,4.2710643
86780470595628,8.1158495,7.8807855,0.6498196
86780490454317,7.8741183,3.7072225,4.660309
86780510313134,5.766109,-3.705526,9.270634
86780530171823,4.2437716,-8.524737,10.779593
86780550030512,1.2492948,-8.935883,11.883802
86780569890789,0.5184202,-4.1622834,10.596843
86780589749478,0.83383673,-2.0644836,9.781817
86780609608295,-0.42953375,3.3815994,9.903005
86780629467112,-0.37358266,-0.29961812,10.244839
86780649325929,-0.97751045,-4.859828,7.515764
86780669176542,-0.5953749,-2.880622,9.388254
86780689035231,0.8345487,-1.9488175,9.941434
86780708893920,-0.12141271,-4.6653247,8.238552
86780728752481,-0.633672,-2.1958983,8.56672
86780748611170,0.597102,2.1233492,10.9814205
86780768461399,-0.44144234,-0.1544256,11.202763
86780788319832,-1.8574574,-0.91924804,9.991869
86780808178244,-0.68388134,3.6708617,9.281805
86780828036676,0.07786,3.9856126,10.39754
86780847895236,2.0254745,4.0390587,11.171953
86780867744892,2.336219,4.0763597,11.919955
86780887603068,3.9688354,4.267972,10.502791
86780907461372,5.5051,3.5384772,9.025801
86780927319548,3.4195836,2.054603,9.050428
86780947177852,2.0542455,0.7624111,9.260062
86780967033517,0.8505971,-1.123237,10.3262415
86780986891693,2.905418,-1.5634372,13.055079
86781006749741,1.9495431,-1.4537446,14.635045
86781026607917,-0.99670565,-2.9392614,14.019696
86781046465965,-1.0954057,-4.4379983,15.591974
86781066324251,3.7395866,-7.144038,15.332727
86781086182299,9.117096,-4.8037324,12.063101
86781106040347,2.572008,-1.7657248,9.519603
86781125898395,-2.4785411,-1.371394,8.666494
86781145756443,-1.8298599,-0.70119834,8.507332
86781165614997,-2.20885,-0.977042,9.537656
86781185473045,-2.7428575,-0.8509168,8.662483
86781205331093,-4.385962,0.8143186,5.3050113
86781225189141,-3.2712207,1.5958877,3.8586824
86781245047189,-1.7491498,0.8455159,3.8579912
86781264911499,0.5784508,-0.6278298,3.42333
86781284769675,1.8625846,-1.4067565,4.0678554
86781304627851,2.3989677,0.03565327,5.636301
86781324486027,2.0677822,1.1210015,5.904011
86781344344203,1.2321801,1.0684121,5.8689966
86781364201322,1.7300115,0.73020834,8.584664
86781384059498,6.395767,-0.45592895,16.468336
86781403917546,8.044983,1.1628668,22.031721
86781423775722,4.9645705,5.8485217,16.171597
86781443633898,3.9775834,0.13564192,8.320012
86781463492557,3.0294967,-5.1544456,6.3968387
86781483350733,-3.288297,-2.8249705,9.543644
86781503208781,-10.912874,-5.3313675,12.45404
86781523066957,-3.2324142,-14.229297,14.599954
86781542925005,5.6858816,-1.3136812,10.312918
86781562782832,-1.4827868,-2.666017,4.419122
86781582641008,-2.223469,-3.8659225,6.7385283
86781602499056,-5.145994,-4.3963966,10.345643
86781622357104,-7.9069486,-1.1847869,11.06343
86781642215280,-5.7155066,-0.49256667,9.900675
86781662076272,0.9059335,0.0986328,10.004584
86781681934576,4.244218,0.3221283,10.320477
86781701792752,1.3565756,1.2384146,8.338054
86781721650928,-1.1810625,1.6544266,9.830367
86781741509104,-1.575731,0.7160718,8.868588
86781761374176,-0.48301405,-0.41091213,6.918374
86781781232480,0.03706591,0.21562427,9.153409
86781801090912,1.8672782,-0.88130933,10.728864
86781820949216,0.045377243,0.41075528,9.20558
86781840807520,1.3941566,-0.45887962,8.348521
86781860667622,4.1132264,-1.9863874,9.35271
86781880526054,2.9479628,-0.74132264,10.251065
86781900384486,1.8166727,-0.25286397,10.113076
86781920243046,2.6857522,-0.8874675,10.390858
86781940101478,3.6497457,-0.17111984,10.743273
86781959970565,3.9658737,1.4665673,11.167451
86781979829253,2.3135664,2.073251,13.414651
86781999687941,1.028579,0.9658142,16.24232
86782019546629,3.4052222,-3.4170737,13.52681
86782039405317,0.99765253,-6.661271,9.879827
86782059265719,-0.64114,-7.180993,8.948033
86782079124407,-2.6600044,-7.748543,9.917198
86782098983224,-3.9698963,-5.8439612,11.075992
86782118841913,-2.940902,-0.63106096,10.651505
86782138700602,-1.7177515,1.650086,11.662725
86782158547365,1.5191064,3.1749835,11.310742
86782178405925,1.10031,1.7240146,7.9743257
86782198264485,-1.4891657,-1.18652,6.7681837
86782218123045,-2.106037,-1.0241536,6.0083838
86782237981605,-1.0720797,0.33066952,5.931994
86782257838422,-0.07449583,0.3353813,7.075848
86782277696854,0.33300838,0.3153599,6.110975
86782297555414,-0.8215622,-1.3408018,5.142164
86782317413846,-1.4307741,-1.8608735,6.0602036
86782337272406,-0.97254956,-1.4633994,6.891349
86782357129263,-0.058671474,-1.2834423,7.4491997
86782376987695,0.44530532,-0.77261,8.274084
86782396846255,2.1040275,-0.46046752,9.816183
86782416704687,4.0277715,-1.0048548,11.338299
86782436563119,4.9025984,-1.984595,12.338126
86782456414893,4.602451,-2.3901713,11.401195
86782476273069,1.6246034,-1.7261806,11.087791
86782496131373,0.42102918,-0.7803068,13.028726
86782515989677,1.7183515,1.2470847,13.977689
86782535847853,-1.1104908,4.4831314,13.127133
86782555701335,-4.904788,1.5850614,12.289647
86782575559511,-7.1761227,-2.7026646,11.255653
86782595417687,-2.3543897,-4.968031,8.141899
86782615275863,2.1543844,-6.0618086,4.82934
86782635134039,-5.181052,-1.1612563,5.989767
86782654993170,-3.9986813,3.6669338,8.693885
86782674851346,-2.1336405,4.781305,12.221107
86782694709522,-0.4772259,3.7660947,13.087063
86782714567698,0.22441375,1.9178873,11.883667
86782734425874,1.426463,-1.0374936,10.446758
86782754281154,2.0538297,-2.3657503,9.301531
86782774139330,-0.9483134,-1.5612854,9.112307
86782793995671,-1.1980532,0.18593939,7.6327057
86782813853719,-2.1176758,1.6799723,8.26208
86782833711895,-2.2311993,1.5710787,9.270897
86782853572239,-1.0690613,0.5869114,10.314341
86782873430287,-0.1486396,-0.15827914,10.410716
86782893288463,-0.3074968,0.4147381,9.603659
86782913146639,1.2727805,-1.0792226,9.92113
86782933004815,2.0201538,-2.0472205,10.601974
86782952865167,0.9610949,-0.7970654,10.575583
86782972723343,0.16274647,0.33866534,9.97359
86782992581519,-0.50131965,0.2804287,9.455921
86783012439695,-0.85959274,-0.3180189,9.448079
86783032297871,-0.78123206,-0.15784061,8.998045
86783052156047,-0.5821214,0.6238453,8.881757
86783072022579,-0.097607724,0.96326005,9.747848
86783091880883,0.7203321,0.43650255,10.744621
86783111739315,0.51543033,0.14108497,10.355598
86783131597619,-0.48123708,0.092647426,9.709019
86783151455923,-1.0824072,-0.5299063,9.383531
86783171311909,-0.79464924,-0.6899811,8.778006
86783191170213,-0.08418162,-0.9536029,8.764215
86783211028389,0.033397302,-0.72751623,9.130089
86783230886693,-0.11678234,-0.24940383,9.607673
86783250744997,0.42548743,-0.19405036,10.463017
86783270602953,0.92741865,0.16574612,11.045029
86783290461257,1.0204971,0.3012736,10.978393
86783310319433,0.4654832,0.5118524,10.120621
86783330177737,-0.21737124,0.30332235,9.248527
86783350035913,-0.2963434,-0.6550234,9.235534
86783369886579,-0.5570447,-1.1536912,9.464388
86783389744627,-0.84790987,-1.204905,9.476187
86783409602803,-0.015254729,-1.3562144,9.657568
86783429460979,0.5275768,-0.91105264,9.644897
86783449319027,0.7551911,-0.61231345,9.555025
86783469179349,1.108037,-1.0694592,9.616363
86783489037397,0.9805921,-1.1844383,9.604783
86783508895573,0.04500813,-0.57457125,9.438103
86783528753749,0.08069719,-0.40642413,9.378128
86783548611797,0.18968819,0.008977034,9.438508
86783568486607,0.091569565,0.6968387,9.660795
86783588345167,0.91626745,0.95870286,10.307815
86783608203727,1.6129302,1.026262,11.067093
86783628062287,0.3633833,0.25192225,11.325482
86783647920719,-1.6161629,-0.8001539,10.77778
86783667782510,-2.1164117,-0.7605408,9.579823
86783687641198,-1.7497469,0.56352526,8.327379
86783707500014,-1.0873338,1.6459728,7.9476557
86783727358702,-1.386677,2.2699723,7.723006
86783747217390,-0.15130281,1.1097583,8.369402
86783767072731,0.5970792,1.1755815,8.819065
86783786931291,0.43395144,1.1291667,9.492407
86783806789723,0.20701116,0.5754765,9.299967
86783826648283,-0.030505367,0.22878163,8.508411
86783846506843,-0.49337038,-0.10521081,8.416532
86783866364659,-0.85597914,-0.2098228,9.091709
86783886223219,-0.76371336,-0.20831932,9.709674
86783906081779,-0.5378008,-0.06849178,9.726492
86783925940339,-0.4261726,0.03460664,9.421337
86783945798899,-0.13422257,0.13942763,9.521946
86783965661779,0.26873866,0.22089942,9.675685
86783985520467,0.5883314,-0.12102365,9.783238
86784005379027,0.49490318,-0.5106502,9.746675
86784025237715,0.00982085,-0.28597927,9.480688
86784045096403,-0.5779537,0.005699498,9.3108635
86784064955176,-0.80651206,-0.13061297,9.557101
86784084813864,-0.36850092,-0.6659529,10.033144
86784104672552,-0.22691901,-1.046516,10.171681
86784124531240,-0.16359515,-0.26971057,9.855728
86784144389928,0.37212297,-0.15987806,9.79815
86784164248390,0.4818258,-0.10229228,9.940288
86784184107078,0.14804496,0.26162907,9.9620285
86784203965638,-0.122726575,0.010314124,10.239623
86784223824326,-0.16383125,-0.2731808,10.459306
86784243683014,0.010804758,-0.062392406,10.173976
86784263538409,0.31591788,-0.10369455,10.051183
86784283396969,0.37635976,-0.45937073,10.006673
86784303255657,0.30577344,-0.52709365,9.820925
86784323114217,0.114786424,-0.09130707,9.685773
86784342972777,-0.01291179,0.2759913,9.670157
86784362826997,-0.11572485,0.46806556,9.623092
86784382685429,-0.11261035,0.2903477,9.641623
86784402543861,-0.026712932,0.06934294,9.738259
86784422402421,0.19393864,-0.17133301,9.81622
86784442260853,0.23897994,-0.23227867,9.826832
86784462112403,-0.009532692,-0.062164307,9.833336
86784481970835,-0.26449353,0.05423803,9.8570385
86784501829139,-0.27972373,-0.011451021,9.863852
86784521687443,-0.17878659,-0.11058678,9.828553
86784541545747,5.474835E-4,-0.17439054,9.647876
86784561403515,-0.0055512376,-0.07195108,9.644323
86784581261819,-0.08506887,-0.07683859,9.672726
86784601120123,-0.030124525,-0.068634614,9.837173
86784620978555,0.06507085,-0.08278898,9.955312
86784640836859,0.08270734,-0.047279555,9.939693
86784660696217,0.07912522,-0.10059487,9.778542
86784680554649,-0.033088706,-0.034447215,9.8104515
86784700413081,-0.13671467,0.01849385,9.84203
86784720271513,-0.12217559,0.09776216,9.901566
86784740129945,-0.037916545,0.09531897,9.8925495
86784759982489,0.11020124,-0.21155226,9.763992
86784779840665,0.1497013,-0.0621261,9.769351
86784799692873,0.17678529,0.12649679,9.747216
86784819551177,0.15626714,0.435244,9.678083
86784839409481,0.06893579,0.5681977,9.670018
86784859267486,0.02375213,0.41930926,9.751895
86784879125662,0.19452362,0.16626465,9.713361
86784898983966,0.29926533,0.14523125,9.724199
86784918842270,0.28619578,0.3314821,9.774252
86784938700446,0.2815358,0.46836656,9.768486
86784958548254,0.31990272,0.23696725,9.807448
86784978406174,0.34386107,0.06645479,9.744621
86784998264094,0.22893508,0.2011356,9.675697
86785018122014,0.09908075,0.29990315,9.72801
86785037980062,0.058038574,0.25769266,9.721549
86785057843333,0.091417834,0.13777034,9.734203
86785077701381,0.06960438,0.073331766,9.682574
86785097559301,0.056927584,0.18510517,9.724068
86785117417349,0.01876889,0.24197999,9.727717
86785137275397,0.0067848577,0.21984138,9.75104
86785157135784,0.114720516,0.21498345,9.807283
86785176993960,0.07035635,0.08299308,9.756704
86785196852008,5.534842E-4,0.14277984,9.775473
86785216710184,-0.03517075,0.10337506,9.807488
86785236568232,-0.043487307,-5.4798386E-4,9.735164
86785256423957,-0.056508675,8.5788174E-4,9.7595625
86785276282005,-0.0844579,-0.114488274,9.817982
86785296140053,-0.13029045,-0.1043962,9.864537
86785315998101,-0.087643124,-0.0961254,9.866297
86785335856149,-0.06499028,-0.08895717,9.795691
86785355711271,-0.15539776,-0.0061379857,9.848311
86785375569191,-0.15446912,0.05156844,9.871198
86785395427111,-0.013851396,-0.013612678,9.870323
86785415285159,-0.03919535,-0.03906477,9.83272
86785435143079,-0.10493581,0.056568813,9.728749
86785455006215,-0.056854576,0.008584022,9.713787
86785474864263,0.04127454,-0.11660006,9.713167
86785494722311,0.045474168,-0.05711973,9.827841
86785514580231,-0.018679459,-0.058676526,9.7963705
86785534438279,0.0016445428,0.091716744,9.776785
86785554308395,0.04681687,0.07829578,9.756778
86785574166699,0.085413724,0.019737687,9.721918
86785594025003,0.16984215,0.11477311,9.722187
86785613883307,0.2394242,0.10173179,9.713305
86785633741611,0.25164583,0.17255753,9.708769
86785653598470,0.26892245,0.2352159,9.751459
86785673456774,0.2335492,0.20002179,9.702126
86785693315078,0.23937228,0.1659057,9.729756
86785713173382,0.25115082,0.120774165,9.724461
86785733031686,0.2579115,0.087807454,9.769148
86785752889990,0.2507988,0.07500744,9.726925
86785772753560,0.22008137,-0.0041893325,9.744073
86785792611992,0.27335325,0.064914666,9.788023
86785812470424,0.33321664,-0.01782014,9.800459
86785832328856,0.34534055,0.05446391,9.736859
86785852187288,0.36375734,0.15658137,9.673609
86785872044591,0.44252315,0.061349466,9.668288
86785891903023,0.44172454,0.07211754,9.772069
86785911761455,0.2326412,-0.1519882,9.866609
86785931619887,0.046571214,-0.27736488,9.8599615
86785951478319,-0.00838414,-0.3884791,9.840284
86785971339920,-0.056850407,-0.36771727,9.789807
86785991198480,-0.048282657,-0.08540548,9.773717
86786011056912,-0.041652154,0.037015438,9.787244
86786030915472,0.0047032605,0.05875249,9.761535
86786050774032,0.049281403,0.12551895,9.699959
86786070640302,-0.007335599,0.030528365,9.724664
86786090498990,0.06715187,-0.0067681028,9.782215
86786110357678,0.12225002,-0.047178242,9.796422
86786130216238,0.059142306,0.031083133,9.757411
86786150074926,0.05698332,0.15140347,9.683499
86786169924471,0.047249068,0.08386069,9.776309
86786189783031,0.20231162,0.009754856,9.777676
86786209641463,0.23433393,-0.037471235,9.85412
86786229500023,0.15992995,0.028221458,9.76118
86786249358583,0.052227646,0.18757391,9.746126
86786269221798,0.03233024,0.14819832,9.651572
86786289080358,0.088598035,0.062396828,9.750328
86786308939046,0.13959463,-0.10906343,9.784081
86786328797606,0.09426733,0.0076693017,9.778544
86786348656294,-0.03835137,0.1843326,9.819709
86786368514628,-0.06582843,0.033809885,9.782764
86786388373316,-0.067248724,0.03145571,9.8105135
86786408231876,-0.02167624,-0.13944028,9.786091
86786428090436,-0.041848987,-0.104566224,9.785224
86786447949124,-0.018521456,0.05055026,9.78493
86786467804118,0.01831084,-0.0015127473,9.757112
86786487662550,-0.005181641,0.16167277,9.723542
86786507521110,-0.044787377,0.035776906,9.717676
86786527379670,-0.043169137,-0.06958793,9.738845
86786547238230,0.1227803,-0.03598313,9.762182
86786567094509,0.08896425,0.018679436,9.737269
86786586952941,-0.0043579335,0.21395133,9.848129
86786606811373,0.056534722,0.13168888,9.85184
86786626669933,0.1130917,0.015445629,9.793307
86786646528365,0.16670431,-0.039368715,9.833524
86786666388680,0.09824572,-0.0873963,9.735797
86786686247240,0.011820257,0.14055577,9.719484
86786706105800,-0.012645357,0.10564675,9.745335
86786725964360,0.004428048,-0.059665527,9.770244
86786745822920,0.04451841,-0.027375,9.805891
86786765668655,0.015185538,-0.010869966,9.776173
86786785526959,-0.026044264,0.092193335,9.791809
86786805376983,-0.028845035,0.1293606,9.801535
86786825235287,0.012531238,0.080049306,9.762122
86786845093591,0.055504728,0.10608901,9.812286
86786864945591,-0.017768826,0.108830735,9.701335
86786884803767,-0.051345766,0.105568126,9.709697
86786904661943,-0.02009782,0.09883004,9.7487545
86786924519991,-0.005926055,0.0110468455,9.742978
86786944378167,-0.024224265,0.07252067,9.811001
86786964233630,-0.012945892,0.027813902,9.729693
86786984091550,-0.0050256643,0.06600868,9.730902
86787003949598,0.0028441,-0.05398101,9.808718
86787023807646,0.017799972,-0.055331968,9.891414
86787043665566,-0.012960972,0.1072535,9.786817
86787063528496,-0.07963794,0.05458756,9.752527
86787083386544,-0.035197977,-0.039455675,9.710021
86787103244720,0.13369538,-0.10652967,9.736292
86787123102768,0.08217129,-0.05399166,9.770733
86787142960816,-0.024271598,0.12143118,9.828853
86787162819320,0.049371965,0.04789295,9.765121
86787182677496,0.043218948,-5.539471E-4,9.750737
86787202535672,0.032479946,-0.055604406,9.726802
86787222393848,-0.012357133,-0.08230768,9.743475
86787242252024,0.031110568,-0.016552825,9.807992
86787262107191,0.02220831,-0.043938477,9.753362
86787281965239,-0.004492003,0.11682749,9.73538
86787301823287,-0.0559575,0.08465599,9.791933
86787321681335,-0.050884858,-0.03239051,9.765838
86787341539383,0.031655874,0.0013894747,9.776508
86787361394723,-0.058446303,-0.0925378,9.749406
86787381252771,-0.052874967,0.07773357,9.719603
86787401110691,0.05715352,0.06395745,9.738476
86787420968739,0.06293658,-0.091771774,9.796862
86787440826659,0.098609075,-0.026913187,9.845435
86787460686223,0.11285104,-0.020370783,9.807254
86787480544271,0.098493695,0.07546294,9.7260895
86787500402191,0.08957061,0.07412186,9.710789
86787520260111,0.08566696,-0.12913112,9.743966
86787540118159,0.20940088,-0.08653128,9.828586
86787559984051,0.14706086,-0.013053372,9.777739
86787579842099,0.0592656,0.115287535,9.798371
86787599700275,0.09801507,0.02675544,9.76449
86787619558323,0.1293343,-0.12498502,9.748434
86787639416499,0.10198122,-0.021118166,9.694274
86787659283432,0.049507674,0.03628,9.754785
86787679141736,0.10778952,0.017496001,9.7364855
86787699000168,0.10667538,-0.04889232,9.756797
86787718858472,0.034766003,-0.016678117,9.831214
86787738716904,0.06871364,0.06421101,9.853246
86787758574507,0.0022709446,-0.011547616,9.745393
86787778432811,0.06443264,-0.038676456,9.662477
86787798291115,0.102045335,-0.03717645,9.717988
86787818149419,0.055691894,-0.058065165,9.77032
86787838007723,0.117845565,0.11511391,9.853003
86787857865770,0.0236433,-0.020518806,9.83413
86787877724074,0.043837365,-0.046135783,9.739701
86787897582379,0.1155734,-0.049288545,9.743941
86787917440810,0.085218966,-7.410912E-6,9.714772
86787937308438,0.08086099,0.11336987,9.761881
86787957166999,0.06656557,-0.04927545,9.776176
86787977025558,0.08684917,-0.04648387,9.751184
86787996884118,0.08944102,0.05215353,9.742056
86788016742807,0.08059779,0.005194944,9.774182
86788036601366,0.1106999,-0.045034125,9.804579
86788056465629,0.056426845,-0.12366116,9.772291
86788076324318,0.062461827,0.0058566364,9.757486
86788096183005,0.12749259,0.0750865,9.7645235
86788116041821,0.06450584,0.00245092,9.702758
86788135900510,0.059116326,0.020973781,9.776036
86788155760415,0.005319427,-0.09994786,9.776497
86788175619231,0.060672972,-0.04545367,9.691964
86788195478048,0.06558948,0.15210156,9.642423
86788215336863,0.009906555,-0.05359434,9.714403
86788235196866,0.15687612,-0.024518652,9.791496
86788255055811,0.08859517,-0.13826253,9.809215
86788274914628,-0.017540516,0.011569665,9.760871
86788294773570,0.06853548,-0.029840574,9.804733
86788314632387,0.13752405,-0.1867569,9.760917
86788334491330,0.17790891,-0.12130102,9.694608
86788354350078,0.050904375,0.037400022,9.816701
86788374208895,0.026618652,-0.08102192,9.813903
86788394067710,0.14281695,-0.12307346,9.75928
86788413926526,0.1544632,-0.07163108,9.686966
86788433785343,0.037318643,0.09701858,9.784638
86788453643450,0.023047417,0.05904576,9.780411
86788473502267,0.08958776,-0.02793996,9.680419
86788493361084,0.07621743,-0.023099562,9.687504
86788513219901,0.104611784,-0.0556857,9.773068
86788533075688,0.09169777,0.071844555,9.846168
86788552934377,0.01928075,0.017042164,9.823049
86788572793194,-0.03920351,-0.04684287,9.702886
86788592651883,0.12576753,0.06426846,9.716468
86788612510700,0.19239672,-0.011620212,9.715936
86788632369389,0.070635006,0.067566864,9.791528
86788652221974,0.08252702,0.10299726,9.849678
86788672080663,0.11079487,0.024087114,9.756145
86788691939352,0.058038242,0.056739606,9.650467
86788711798041,0.107051305,0.024807068,9.615807
86788731656730,0.13488908,0.04991821,9.746724
86788751509317,0.09825103,0.09694403,9.825193
86788771367862,0.046409726,0.08141186,9.763879
86788791226295,-0.0038103203,0.04904517,9.697693
86788811086160,0.095143564,-0.08065666,9.731515
86788830944720,0.1739851,0.048249636,9.964164
86788850803281,0.14888503,0.03196118,9.866645
86788870651391,-0.017659264,0.02735364,9.781368
86788890509695,0.080431074,-0.0059887585,9.817018
86788910368000,0.25341377,-0.026061976,9.834806
86788930226303,0.069997355,0.063298136,9.740188
86788950075752,-0.073319785,0.022363493,9.680884
86788969933801,0.040916204,0.044714168,9.706994
86788989791848,0.14425898,0.016705537,9.7080965
86789009650024,0.054514255,0.033424888,9.777923
86789029508073,-0.061918963,0.059966587,9.87825
86789049368107,0.005817569,0.017334985,9.856797
86789069226155,0.09613752,-0.08643625,9.788699
86789089084204,0.007533243,-0.02820845,9.70562
86789108942251,-0.13656943,0.039032154,9.683827
86789128800299,-0.1045863,0.06656026,9.677589
86789148658476,0.0870942,0.060199343,9.749507
86789168512383,0.13599403,0.03272906,9.816573
86789188370303,-0.013954631,0.0206953,9.8199005
86789208228352,-0.05925056,0.017461052,9.808048
86789228086271,0.03976894,0.054894365,9.797011
86789247949926,0.12425158,0.056873146,9.758748
86789267807975,0.045265127,0.04647212,9.7187805
86789287666150,-0.027365053,0.14964244,9.674078
86789307524198,0.013815446,0.06465052,9.72136
86789327382247,0.089599214,0.033784855,9.792757
86789347240296,0.0838037,0.1799619,9.8678875
86789367096929,0.025087858,0.136209,9.816173
86789386954978,-0.023349019,0.10500996,9.691809
86789406813027,0.047485746,0.043192267,9.692412
86789426671076,0.10637473,0.021723546,9.724907
86789446529125,0.0020318897,0.13259019,9.841972
86789466390848,-0.011034775,0.0721909,9.82716
86789486248897,-0.02721809,0.037759483,9.768072
86789506106946,0.032025456,-0.009002006,9.667941
86789525964995,0.0816368,0.035288177,9.75028
86789545829128,0.052488707,0.12513608,9.799975
86789565687305,0.020770049,0.08730092,9.799452
86789585545482,0.040575378,0.038961433,9.737447
86789605403659,0.06605222,0.023582114,9.743605
86789625261836,0.04211169,0.07620652,9.779393
86789645120013,0.0640088,0.13548908,9.821948
86789664985394,0.08283897,0.070621714,9.797218
86789684843699,0.10673011,0.06250172,9.725608
86789704702004,0.0903919,-0.002880192,9.764978
86789724560437,0.08813239,0.030444229,9.717832
86789744418742,0.09484897,0.0940657,9.75299
86789764280905,0.030596713,0.05573633,9.6995325
86789784139317,0.09981387,0.055123687,9.724617
86789803997750,0.18876156,0.087997586,9.837396
86789823856181,0.152483,0.12129862,9.887988
86789843714846,0.05781895,0.094688065,9.807927
86789863573279,0.064723104,0.011990523,9.711994
86789883431710,0.12054335,0.050966986,9.754574
86789903290142,0.05530234,0.1473517,9.699588
86789923148575,-0.007982715,0.10184746,9.701744
86789943007006,0.17621896,0.03594867,9.760394
86789962864841,0.22018895,0.048016265,9.774646
86789982723274,0.07465852,0.20198403,9.736928
86790002581833,0.059952766,0.05406184,9.764781
86790022440393,0.17562152,-0.017610235,9.739656
86790042298826,0.20706727,0.04450791,9.774274
86790062158257,0.0614673,0.039199185,9.791216
86790082016945,0.009550889,0.08855962,9.805678
86790101875506,0.14853813,0.019745775,9.757491
86790121734065,0.12568519,-0.038286895,9.733585
86790141596618,0.11347024,0.12297805,9.823371
86790161455307,0.065651186,0.092693076,9.797746
86790181313996,-0.020514758,0.050449844,9.691267
86790201172682,0.08150098,-0.020474419,9.6095705
86790221031371,0.13108763,0.02342476,9.695437
86790240890058,0.1373693,0.095043704,9.854252
86790260749168,0.05748751,0.098190814,9.889886
86790280607857,0.04271379,0.06492397,9.79316
86790300466544,0.06352565,-0.04271668,9.72565
86790320325232,0.14327514,-0.073354445,9.715575
86790340183921,0.1045496,0.12128608,9.773002
86790360041749,-0.034226526,0.09848996,9.767525
86790379900437,-0.025584245,0.015504505,9.74755
86790399759126,0.11430796,-0.046093732,9.812297
86790419617813,0.13458782,-0.02381868,9.779541
86790439476629,0.0029597243,0.17015482,9.746416
86790459335318,-0.046081208,0.085931376,9.702509
86790479180505,-0.010410074,0.02198437,9.712284
86790499038937,0.074032925,-0.075475164,9.733576
86790518897242,0.07403012,-0.087793715,9.796877
86790538755673,0.0038756228,0.042875443,9.835131
86790558603091,0.012876904,0.042035516,9.744325
86790578461140,0.02208822,0.016550355,9.730365
86790598319315,0.080029435,-0.042489048,9.822024
86790618177491,0.06474064,-8.4012754E-5,9.7605295
86790638035668,0.013484126,0.12809671,9.7456455
86790657887248,-0.009261896,-0.056432027,9.715872
86790677745168,0.085554905,0.006380415,9.775053
86790697603217,0.14614764,0.0128887715,9.808715
86790717461264,-0.00994635,0.10666398,9.692522
86790737319312,-0.08185595,0.14042217,9.742743
86790757177233,0.09898311,-0.13821957,9.767201
86790777034482,0.14081174,-0.008690528,9.7906885
86790796892402,0.01797597,0.055877566,9.779881
86790816750323,-0.08890432,0.032617383,9.734552
86790836610634,0.06894998,-8.7734417E-4,9.757638
86790856468583,0.14257461,-0.10623769,9.73371
86790876326504,-0.0037571029,-0.0038360683,9.773564
86790896184423,0.0039950893,0.10875009,9.794498
86790916042343,0.052069373,-0.09286388,9.704561
86790935900136,0.10786689,-0.08658037,9.753373
86790955751867,0.16986741,-0.07543833,9.784757
86790975609531,0.117175415,0.08595118,9.841666
86790995467324,0.054354366,0.08008916,9.772251
86791015324987,0.11488529,-0.043927744,9.734642
86791035182779,0.23634173,-0.07358134,9.747322
86791055040444,0.13036717,0.012608849,9.807104
86791074898839,0.05708367,0.08855247,9.819699
86791094756631,0.060040586,0.12418836,9.79828
86791114614296,0.031003978,-0.1225284,9.660148
86791134472087,0.05819552,0.0034320108,9.686354
86791154336329,0.030383116,-0.0030054504,9.762056
86791174194122,0.04026259,0.09992337,9.820035
86791194052041,0.04672743,0.005199769,9.773903
86791213909833,-0.007405058,-0.06908776,9.775861
86791233767626,0.04288433,0.08330321,9.748918
86791253626935,0.093673825,0.04408817,9.743752
86791273484855,0.04758206,0.10753075,9.764022
86791293342776,0.081314795,0.055469777,9.833976
86791313200567,0.120112225,-0.037472896,9.746011
86791333058487,0.16247213,0.063201666,9.803984
86791352916408,0.098250784,0.05780729,9.79538
86791372773911,0.05224096,0.06162475,9.721694
86791392631831,0.10886444,0.05032085,9.71838
86791412489752,0.08339784,-0.122314684,9.706585
86791432347671,0.08631266,0.06785622,9.787204
86791452207352,0.1302902,0.023428358,9.799643
86791472065273,0.05915732,-0.020644046,9.7660885
86791491923192,0.0743533,3.187078E-4,9.852
86791511781240,0.088698,-0.059439603,9.820122
86791531639161,0.04831939,0.029040704,9.726595
86791551497080,0.021845816,-0.023489535,9.731601
86791571356408,0.11231769,-0.063670605,9.748147
86791591214329,0.1642501,0.081651,9.817156
86791611072248,0.042596933,-0.017950883,9.738155
86791630930168,0.029344419,0.027586572,9.772658
86791650788089,0.0650236,-0.109583095,9.786804
86791670653024,0.14076053,-0.13612817,9.826693
86791690511072,0.10681884,0.114758916,9.738823
86791710369121,-0.055935636,0.096561775,9.682029
86791730227168,-0.072936274,0.0713418,9.840967
86791750097144,-0.018697651,-0.11912745,9.881911
86791769955577,-0.02038337,0.022947742,9.820358
86791789813880,-0.0886947,0.33325896,9.778683
86791809672184,-0.12016395,0.21159497,9.669708
86791829530489,0.06910121,0.031845044,9.632961
86791849388920,0.16649742,-0.027196663,9.739654
86791869253965,0.055621654,0.073968075,9.771627
86791889112526,0.07138857,0.30183712,9.847307
86791908971085,-0.027237361,-0.090414196,9.739838
86791928829645,-0.06769308,-0.233538,9.750494
86791948688206,-0.032022685,-0.19542885,9.7210655
86791968548166,-0.06870445,-0.094863094,9.718914
86791988406854,-0.023224857,0.038869742,9.825579
86792008265543,0.010526317,-0.087796114,9.786565
86792028124230,0.084916376,-0.050948855,9.752075
86792047981492,0.13303638,-0.02010098,9.773377
86792067840181,0.09469603,0.0071677244,9.7741375
86792087698868,0.11233306,0.030078096,9.718844
86792107557428,0.086463705,-0.042777706,9.680534
86792127416117,0.085183024,-0.023831943,9.728323
86792147274676,0.08862732,0.120111324,9.771937
86792167133949,0.06844321,0.053306427,9.726298
86792186992638,0.07740983,0.0792115,9.705147
86792206851197,0.021727147,-0.015621146,9.710911
86792226709885,0.098969065,-0.0024687345,9.757604
86792246568574,0.16676258,0.0452434,9.825764
86792266431467,0.1365452,0.020212743,9.769406
86792286290155,0.08887026,-0.027001739,9.653305
86792306148844,0.1272063,-0.101935565,9.725746
86792326007403,0.18423337,-0.04857274,9.743627
86792345869486,0.16995904,0.02689778,9.758987
86792365728303,0.031754524,-0.012990604,9.729287
86792385587118,0.11364931,-0.07227015,9.772302
86792405445934,0.22433569,-0.17194787,9.820753
86792425304751,0.15772134,-0.18054475,9.788664
86792445163566,0.08841812,-0.052373204,9.741639
86792465019237,0.011988036,-0.018102728,9.726259
86792484877926,0.06514256,0.007189345,9.800695
86792504736741,0.12082866,-0.087794736,9.810534
86792524595557,0.10610423,-0.17248935,9.711573
86792544454374,0.068757296,-0.14559028,9.705373
86792564303345,0.16814917,-0.21823741,9.793219
86792584161905,0.38916996,-0.08194351,9.884647
86792604020466,0.34908676,0.080176115,9.826379
86792623879025,0.21361828,0.115748264,9.675762
86792643725766,0.13032775,-0.033666473,9.640507
86792663584071,0.12942733,-0.28430414,9.751024
86792683442374,0.16255483,-0.106135055,9.809314
86792703300678,0.13811274,0.09255117,9.800502
86792723158983,0.10917184,0.21022984,9.744345
86792743017286,0.037870366,0.012586531,9.736145
86792762876693,0.014045988,-0.1232735,9.724461
86792782734998,0.031209776,-0.112477005,9.813119
86792802593429,0.0019039352,0.06580465,9.836993
86792822451733,-0.08784024,0.12796,9.756451
86792842310166,-0.12490228,0.052982237,9.715142
86792862163320,-0.041510675,-0.109536484,9.741227
86792882021496,0.12365081,-0.1181816,9.821171
86792901879673,0.13250642,0.07023499,9.868125
86792921737848,0.065008834,0.16073504,9.771104
86792941596152,0.04650546,0.109616496,9.744857
86792961454329,-8.7558804E-4,-0.1343606,9.743282
86792981311381,0.051459435,-0.07560244,9.738079
86793001169557,0.054262612,0.08651347,9.744954
86793021027606,-0.03472692,0.103496976,9.741449
86793040885781,-0.022940913,0.1120652,9.824703
86793060740088,-8.5968E-4,-0.0959268,9.73445
86793080598009,0.060429987,0.028973542,9.810623
86793100456056,8.373124E-4,-0.01458476,9.771742
86793120313976,0.0017401327,0.01346547,9.815699
86793140172025,0.032775797,0.012072104,9.703114
86793160027383,0.014835412,-0.05705608,9.659644
86793179885175,0.12493696,0.015938694,9.745224
86793199743096,0.15573637,-0.015055718,9.770699
86793219601015,0.058215257,0.045014296,9.820908
86793239458935,-0.07591866,0.023197524,9.879298
86793259316728,-0.18938349,-0.05728229,9.8315525
86793279173908,-0.17110865,-0.14775547,9.817524
86793299031828,-0.04310164,-0.13061471,9.792631
86793318889621,0.015601982,0.013567357,9.749716
86793338747540,0.040893164,0.18068235,9.786584
86793358604582,-0.069591954,-0.032740448,9.725922
86793378462503,0.007416562,-0.1105547,9.757654
86793398320294,0.09552154,-0.07235261,9.831337
86793418178214,-0.018032582,0.05631269,9.746375
86793438036135,-0.06959975,0.18154895,9.69705
86793457897479,-0.092354566,-0.10126346,9.75758
86793477755399,0.045053087,-0.21033145,9.823913
86793497613320,0.11795053,-0.09325845,9.814905
86793517471239,0.0023900871,0.1299843,9.751219
86793537329159,-0.059554968,0.18550646,9.720639
86793557187080,-0.020830633,-0.17130297,9.743183
86793577040903,0.06954274,-0.30392864,9.795252
86793596898696,0.10644336,-0.028605644,9.831467
86793616756489,-0.057571013,0.16370554,9.699768
86793636614282,0.022694971,0.2533718,9.72081
86793656478475,0.10112287,0.056711193,9.703831
86793676336396,0.19117704,-0.07977939,9.768292
86793696194317,0.1731535,0.043930065,9.757225
86793716052238,0.0446487,0.09597672,9.71486
86793735910159,0.042332187,0.10220506,9.720872
86793755768080,0.13304849,-0.023948777,9.798732
86793775623193,0.16981211,0.060666557,9.820005
86793795480986,0.020694636,0.15211768,9.771009
86793815338905,-0.0867931,0.07400923,9.704476
86793835196825,0.017332792,-0.11487852,9.711749
86793855054618,0.08672464,-0.14927433,9.762853
86793874920619,0.054188397,0.124075115,9.818972
86793894778667,-0.009509957,0.17326595,9.791536
86793914636716,-0.020636274,-0.098005675,9.742483
86793934494891,0.09653479,-0.14067164,9.762853
86793954360674,-9.7111345E-4,-0.010004114,9.734718
86793974218979,-0.07362992,0.11413654,9.799958
86793994077282,0.026520925,-0.037028268,9.814181
86794013935586,0.01762526,-0.15353787,9.742178
86794033793891,0.018442139,-0.015379289,9.782909
86794053652194,0.00369408,0.064422,9.760369
86794073519909,0.07022826,-0.049998965,9.772413
86794093378342,0.121765055,-0.100070685,9.775694
86794113236901,0.12359204,-0.116986185,9.802632
86794133095333,0.1471584,0.09073303,9.7538
86794152953894,0.0801812,0.039156217,9.687549
86794172814262,0.0448117,-0.17132585,9.7490015
86794192672823,0.13585675,-0.16501567,9.75997
86794212531384,0.0549194,-0.024915027,9.759203
86794232389942,-0.039634716,0.15901457,9.763096
86794252253183,-0.039490666,0.044570044,9.785974
86794272111872,-0.007746027,-0.12051253,9.77723
86794291970431,0.0031355633,-0.026965313,9.821689
86794311828991,-0.058390565,-9.933773E-4,9.84414
86794331687680,-0.010909564,0.10749722,9.771771
86794351546241,-0.005738213,-0.039948832,9.65653
86794371401668,0.14999963,-0.09022091,9.681996
86794391260229,0.27841333,-0.03875522,9.82763
86794411118790,0.19161731,0.058509834,9.860062
86794430977351,0.12229495,0.121763326,9.7917
86794450836040,0.10879434,-0.0028790047,9.688803
86794470690649,0.15290637,-0.17706098,9.693934
86794490549210,0.24015938,0.020033777,9.73412
86794510407643,0.059288476,0.07568578,9.759676
86794530266204,-0.0029305376,0.13012901,9.791753
86794550120311,0.022776289,-0.0042694462,9.815439
86794569978744,0.008523682,-0.1357986,9.780353
86794589837305,-0.0030320617,0.16037863,9.755237
86794609695738,-0.13766219,0.10105887,9.69045
86794629554299,-0.13287538,0.079568975,9.673264
86794649412732,-0.09138282,-0.1216411,9.703451
86794669265259,-0.025767315,-0.19638906,9.754448
86794689123564,0.024633495,0.0575983,9.849404
86794708981997,-0.024868598,-0.021731686,9.851372
86794728840302,0.023659151,-0.05016659,9.838365
86794748698735,0.06517545,-0.15703182,9.7519245
86794768552504,-0.023741134,-0.15039685,9.662792
86794788410788,-3.0802627E-4,-0.04420517,9.738126
86794808269093,0.07528967,-0.19599628,9.82015
86794828127268,0.10912511,-0.012759511,9.821457
86794847985572,0.01725305,0.09624021,9.720085
86794867843877,-0.06003087,-0.003267715,9.681355
86794887697230,0.12115621,-0.15510899,9.775504
86794907555406,0.19675145,-0.17326874,9.769052
86794927413583,0.10832529,0.0014855369,9.794942
86794947271758,0.07630028,0.10719137,9.743754
86794967132421,0.033205766,-0.08069447,9.754165
86794986990598,0.05224542,-0.13086168,9.75365
86795006848773,0.060718033,0.041410364,9.787184
86795026706949,0.031361356,0.23000187,9.7169075
86795046565126,0.02263147,0.15397051,9.741207
86795066419923,-0.0053972728,-0.040915214,9.7043915
86795086277971,0.07742401,-0.025799744,9.778753
86795106136020,0.08635785,0.06875938,9.811617
86795125994195,0.06329094,0.116272986,9.84598
86795145852243,0.13001819,0.080500096,9.789979
86795165710292,0.08837019,-0.048692208,9.641897
86795185568243,0.16616756,0.032492492,9.697468
86795205426292,0.10494929,-0.06297898,9.713105
86795225284341,0.05022133,0.070246115,9.792451
86795245142387,0.02308973,0.031133885,9.806538
86795265004058,-0.04564288,-0.039287593,9.780043
86795284862235,0.048289973,-0.063686304,9.787619
86795304720282,0.06452982,-0.019888872,9.739974
86795324578458,-0.013791877,0.09568817,9.6780815
86795344436507,-0.008056495,0.03009332,9.760741
86795364294777,0.012027336,-0.10451949,9.725727
86795384152826,0.046413057,-0.11159596,9.775915
86795404010747,-0.012236265,-0.025927588,9.837206
86795423868796,-0.02466962,0.050639823,9.834805
86795443726845,0.054022558,-0.08100787,9.770673
86795463584894,0.05020948,-0.13585784,9.799608
86795483442815,0.11421025,-0.04636845,9.780037
86795503300736,0.16719899,0.09667367,9.728701
86795523158785,0.06048724,0.024722219,9.663889
86795543016706,0.08449758,-0.15223062,9.785581
86795562872431,0.15328535,-0.1118927,9.755342
86795582730352,0.15051262,0.040029615,9.659571
86795602588273,0.11482608,0.008562773,9.727243
86795622446194,0.16251424,-0.19100381,9.877183
86795642304243,0.26561424,-0.20759918,9.867638
86795662162164,0.08830367,0.046912014,9.747279
86795682030173,0.0064292727,0.061593875,9.731611
86795701888350,0.12537427,-0.19941477,9.791724
86795721746527,0.1297532,-0.18572444,9.782767
86795741604704,0.12173877,0.078655675,9.735932
86795761462881,0.021824647,0.12396011,9.650655
86795781324116,0.0027196964,-0.064438716,9.699294
86795801182292,0.012129223,-0.24065912,9.803054
86795821040597,-0.012767288,-0.065350816,9.837691
86795840898900,-0.044847816,0.108459696,9.763917
86795860766847,-0.09443779,0.011807354,9.784523
86795880625408,-0.017360518,-0.21016607,9.736653
86795900484095,0.08194702,-0.13588242,9.794169
86795920342655,0.04632225,0.099691264,9.787155
86795940201216,0.054352406,-0.018974135,9.833341
86795960059775,0.011588078,-0.0791555,9.698326
86795979925602,-0.05430121,-0.14586827,9.634486
86795999784419,0.07130409,-0.14704321,9.724047
86796019643106,0.11779814,-0.05828015,9.771659
86796039501794,0.13778214,0.0047058235,9.829349
86796059360611,0.0435483,-0.09950718,9.837845
86796079217354,0.02538906,-0.06952887,9.770644
86796099076042,0.039519098,-0.012296482,9.750807
86796118934859,0.05267637,0.014535559,9.754445
86796138793546,0.081893876,0.022926832,9.700259
86796158654264,0.037546556,0.043008216,9.689575
86796178512953,0.0020005915,1.7493953E-4,9.733272
86796198371768,0.057830937,0.04866499,9.77552
86796218230584,0.03493565,0.10898036,9.884671
86796238089273,0.059382573,-0.046977658,9.74975
86796257948088,0.033032283,-0.045661937,9.719505
86796277808629,-0.052778024,-0.08370821,9.771014
86796297667446,0.0029818593,0.053154834,9.7561655
86796317526261,0.029301763,0.10030457,9.793112
86796337385077,0.00491946,-0.005418164,9.810099
86796357243894,0.065299965,-0.01504511,9.721345
86796377098351,0.16378728,0.12179401,9.577413
86796396957040,0.12757902,0.1607292,9.598989
86796416815857,0.014267391,-0.08793267,9.769558
86796436674546,0.15555108,-0.13768253,9.856363
86796456523635,0.17179662,0.11089619,9.876637
86796476382068,0.0037958464,0.11486424,9.796241
86796496240629,0.036767792,-0.14744456,9.812355
86796516099062,0.08082436,-0.16613811,9.775662
86796535957623,0.09862008,0.10521401,9.76728
86796555816184,0.10403032,0.14515604,9.73326
86796575670405,0.0073201824,0.009336616,9.679143
86796595528838,-0.0062320502,-0.11683672,9.7703
86796615387271,0.039667796,-0.13156337,9.838544
86796635245704,0.21276224,0.04882611,9.819719
86796655104265,0.1371379,0.060674407,9.768998
86796674954688,-0.015817277,-0.048987847,9.744234
86796694812993,0.09659443,-0.17293024,9.753505
86796714671298,0.08487472,0.009912391,9.865145
86796734529475,0.0059024063,0.0065754545,9.802976
86796754387780,0.028827883,-0.059409942,9.798616
86796774245957,0.031445395,-0.09413366,9.701107
86796794106638,0.10240475,0.077184044,9.653534
86796813964924,0.13005647,-0.11092033,9.746145
86796833823229,0.11663694,-0.11283009,9.7571125
86796853681532,0.01534227,0.0681452,9.815169
86796873537276,-0.018495362,0.0375445,9.797114
86796893395453,0.015666788,-0.066029295,9.812888
86796913251096,0.09594296,-0.08358542,9.828513
86796933109272,0.094155855,0.08140925,9.761957
86796952967449,-0.012518668,0.101399936,9.744113
86796972823168,-0.058038965,-0.018328413,9.704393
86796992681472,0.013434581,-0.04162003,9.712732
86797012539649,0.08174445,0.071675725,9.7216215
86797032397824,0.054184005,0.081351,9.681598
86797052256000,0.023941236,-0.019853374,9.801421
86797072114177,0.021066086,-0.12578836,9.814127
86797091969256,0.10337224,-0.084425375,9.815009
86797111827304,0.11938155,0.014504376,9.804554
86797131685481,0.10225622,-0.06237919,9.754754
86797151543528,0.12162868,-0.048423383,9.737186
86797171400067,0.11017021,-0.088865146,9.672113
86797191257988,0.14181024,0.009076474,9.645534
86797211116035,0.07398506,-0.059328757,9.72586
86797230973955,-0.049319986,-0.20516269,9.822379
86797250831876,0.047431424,-0.20304288,9.88062
86797270696992,0.10578423,-0.04603793,9.776879
86797290555168,0.061220825,0.050521586,9.701284
86797310413217,-0.07154625,-0.09265869,9.725597
86797330271392,-0.09014729,-0.16303267,9.719745
86797350129568,-0.02708865,-0.10806124,9.769739
86797369987617,0.025205495,-0.044159383,9.725814
86797389843254,0.036594525,0.056737073,9.756432
86797409701302,-0.21327595,0.03498808,9.80327
86797429559351,-0.29254255,-0.030565597,9.7900505
86797449417400,-0.12265294,-0.006712732,9.7942705
86797469274235,-0.1372116,-0.15051775,9.733358
86797489132284,0.028239112,-0.011683777,9.740749
86797508990333,-0.017288191,-0.03504424,9.858386
86797528848382,-0.015960308,-0.07117513,9.938472
86797548706303,0.08530597,-0.10949403,9.848882
86797568564352,0.08242968,-0.03692619,9.686347
86797588431805,0.021059392,0.049070884,9.60619
86797608290110,-0.05135253,0.021308366,9.735465
86797628148287,-0.057878286,-0.104585275,9.8847
86797648006592,0.034254935,-0.011875898,10.009372
86797667864769,0.005593882,0.046238255,9.786737
86797687725128,0.09429863,0.15168276,9.79939
86797707583433,0.03786584,0.029410679,9.939196
86797727441610,-0.029797517,-0.11559591,9.992219
86797747299915,0.04900692,0.054101735,10.101422
86797767162584,-0.06829177,-0.0352186,9.887374
86797787021017,0.05292429,0.10697284,9.991486
86797806879432,-0.038971562,-0.11547292,10.055774
86797826737864,-0.078834586,-0.26735532,9.898225
86797846596169,0.0016601868,-0.12275482,10.098581
86797866454600,-0.09011457,-0.18480755,9.99505
86797886315196,-6.921936E-4,-0.086760946,10.017167
86797906173757,-0.0569857,-0.22254853,9.9852915
86797926032316,-0.08157164,-0.20547017,9.832328
86797945890748,0.022502394,-0.033022944,10.216597
86797965749309,-0.08664451,-0.31748983,9.824185
86797985607050,0.052978076,-0.09234055,9.79465
86798005465610,0.077072054,-0.10004991,10.168785
86798025324171,0.08581444,-0.21938357,9.806755
86798045182602,0.21823762,-0.011280691,9.997617
86798065037688,-0.0041026995,-0.30726168,10.152955
86798084896121,0.11838366,-0.14114006,9.871935
86798104754552,0.19559796,-0.04292795,10.099233
86798124612984,0.027740685,-0.2821085,9.962599
86798144471417,0.09118965,-0.13693616,9.806552
86798164329976,0.106018,-0.19001794,9.935783
86798184182758,0.12314035,-0.2013577,9.985974
86798204041063,0.20357114,-0.15099357,10.129054
86798223899366,0.13063523,-0.29296798,9.895672
86798243757670,0.12485732,-0.22845657,10.010059
86798263615975,0.090340964,-0.30491853,10.060185
86798283479373,0.15364076,-0.18565665,9.944986
86798303337677,0.12996638,-0.12680444,9.883058
86798323196110,0.007761755,-0.1765824,9.981734
86798343054541,0.047322292,-0.20396861,10.042734
86798362912532,0.05695545,-0.23300277,9.859511
86798382770965,0.017622337,-0.13469024,9.958905
86798402629396,-0.020603023,-0.15894897,10.092066
86798422487700,-0.01813214,-0.23851213,9.971361
86798442346133,-0.026781894,-0.2791212,10.124801
86798462204564,7.9903734E-4,-0.33731586,10.068058
86798482060814,0.070798896,-0.29151118,9.97674
86798501919119,0.05846815,-0.33496767,10.144225
86798521777550,0.019258091,-0.42628628,9.993814
86798541635854,-0.03388482,-0.46330586,10.057088
86798561494287,0.023721183,-0.5389068,10.179166
86798581343179,-0.016469557,-0.6090795,10.162678
86798601201355,-0.09470067,-0.62659115,10.387674
86798621059532,-0.16546099,-0.7839347,10.257105
86798640917707,-0.29501584,-0.88874674,10.438867
86798660771048,-0.3987481,-0.99031836,10.582028
86798680629097,-0.3245845,-0.96669286,10.340656
86798700487144,-0.40017557,-0.965663,10.475196
86798720345192,-1.0870947,-1.4930365,10.761256
86798740203112,-0.27242032,-1.116849,10.85984
86798760061160,1.1078994,0.46595332,10.976919
86798779915740,1.5980688,1.4201897,10.491949
86798799773660,-0.2831188,-0.6740387,10.358892
86798819631580,-0.3366637,-1.077651,10.06831
86798839489500,-0.8162596,-1.0759296,10.130189
86798859347548,-0.42095038,0.46238738,9.336727
86798879205468,-0.82224816,1.1346819,8.975063
86798899065990,-1.0080839,0.0038902618,9.3113575
86798918927374,-0.2639429,-0.35657415,9.300574
86798938785422,0.08875819,-0.65798444,10.101213
86798958643470,0.057287786,-0.6025208,10.171459
86798978501390,0.11453905,-0.3874364,9.427925
86798998359263,-0.6384795,-0.787554,9.045999
86799018217183,-0.8340388,-1.1340904,8.9781275
86799038075231,-1.1616942,-0.96083194,9.279215
86799057933152,-1.9857315,-1.3467171,9.56276
86799077791073,-2.2407963,-1.4316878,9.301444
86799097645581,-2.4410944,-1.4070717,9.1885605
86799117503373,-2.1762633,-3.4803176,9.089948
86799137361293,-0.647089,-5.8636117,8.166987
86799157219085,1.5136088,-7.262308,4.070453
86799177077005,4.2496166,-2.4248164,3.5359983
86799196940047,6.712971,7.384187,13.981534
86799216798095,-3.4694839,6.9286346,26.138748
86799236656016,-3.1982262,5.40062,8.222577
86799256513937,-2.8960402,2.4621449,0.016408684
86799276371986,-5.781295,2.6866462,6.455588
86799296232617,-1.2538762,6.8801394,9.346542
86799316090666,3.6235647,8.118923,10.541107
86799335948710,8.235762,2.3561265,11.217584
86799355806630,3.9289691,-3.8832088,10.565349
86799375664678,2.0843062,-2.7533429,8.481796
86799395526188,2.9672866,0.07504655,7.2245903
86799415384236,2.8337057,0.5643124,9.1310005
86799435242412,0.37159464,0.6725845,9.06259
86799455100460,-2.2238848,1.0113184,9.444448
86799474958636,-0.20183443,1.1045489,9.970799
86799494815812,2.164557,-0.5472291,9.17442
86799514673860,0.5482077,-1.145506,9.746993
86799534532036,0.32989225,-0.37603614,9.484637
86799554390084,1.443614,0.8676612,8.738871
86799574248132,0.9294368,1.3098797,9.2722435
86799594103772,0.10744562,1.0911484,9.704839
86799613961820,0.34948486,1.4288982,9.298297
86799633819868,0.31292024,1.1899765,9.936983
86799653677916,-0.70105064,-0.02893387,10.458577
86799673535964,-0.8555969,-0.57950824,11.030316
86799693399345,-1.3179954,-1.1951007,11.4176035
86799713257521,-1.5875661,-1.8689941,11.885395
86799733115570,-1.8234218,-2.60582,11.6391115
86799752973747,-1.3659674,-1.9084686,10.862156
86799772831921,-0.79101384,-0.6762504,11.427384
86799792691901,-0.4062154,-0.30007184,12.840428
86799812550077,0.7355669,-0.12043545,13.451303
86799832408253,1.3031636,-0.5049121,12.4889555
86799852266301,0.8553969,-0.19501372,10.459885
86799872124477,0.94245034,1.9811505,9.877391
86799891989271,1.1140794,3.7117615,10.381318
86799911847703,1.9824916,6.183972,13.242179
86799931706007,4.28612,8.801485,13.031782
86799951564439,0.30986091,6.9930296,11.416832
86799971422743,0.3600221,3.6050162,10.354198
86799991283333,2.2280912,2.2410064,9.248876
86800011141765,2.260739,1.687026,9.181954
86800031000197,2.270775,0.16674693,9.53819
86800050858629,2.551498,-0.37393975,7.7653728
86800070717061,4.5238676,0.6565393,5.9323826
86800090573061,2.1460366,1.1296512,5.9123344
86800110431493,1.6808196,0.903773,4.992852
86800130289925,1.0141064,1.898035,3.33466
86800150148357,-1.820893,2.3950088,2.9910676
86800170006789,-2.1204414,1.8761259,3.5903056
86800189862484,-1.0818586,0.7175978,3.5504544
86800209720788,-0.72987413,0.9964774,3.810151
86800229579220,-0.24877423,1.1689134,5.0865583
86800249437524,0.19988464,1.7731185,9.366329
86800269295828,-4.376898,0.34872317,20.678764
86800289155960,-7.1464624,-4.677131,28.312143
86800309014392,-3.9304879,-10.275404,16.595871
86800328872824,-4.1707225,-5.258427,7.6639047
86800348731128,0.46444342,6.181538,8.420902
86800368589560,3.8444912,8.189444,13.516707
86800388448797,9.911085,14.043231,13.7012205
86800408307101,3.0440757,13.73544,7.426402
86800428165533,-3.563625,-1.7076374,3.3350775
86800448023965,-1.6534802,1.8288339,4.3228416
86800467882269,0.97655016,6.9147625,7.5779333
86800487740901,4.5735345,6.356237,10.3992815
86800507599333,9.313032,6.2247486,10.166388
86800527457637,7.5073385,1.3116181,9.097936
86800547316069,5.323954,-0.49033964,7.894906
86800567174501,-1.3628261,-0.96641594,8.235333
86800587025643,-4.5917153,0.28933477,9.467127
86800606883947,3.7831757,1.0772111,9.136225
86800626742251,-2.1784477,0.52967995,9.988192
86800646600428,-2.4762464,0.79877585,9.265549
86800666458733,4.5228176,1.2216022,9.075421
86800686313993,-1.2686783,-0.29359165,8.847923
86800706172169,-6.351448,0.8972446,10.09208
86800726030345,-1.5581735,-0.74849945,9.96358
86800745888521,-1.3603461,-0.35758662,9.165187
86800765746697,-2.026556,0.40896195,9.47854
86800785604611,-3.0814426,0.3451637,9.555624
86800805462787,-3.1732771,1.1322782,11.367249
86800825320963,-2.4014308,1.9856555,11.524926
86800845179139,-3.946088,1.0585116,10.358719
86800865037443,-4.4235034,0.54548556,10.818947
86800884895928,-4.27293,2.550853,10.218651
86800904754104,-2.4557676,2.897509,10.45087
86800924612280,0.7265283,1.4249173,12.532469
86800944470632,1.2083569,-0.34189722,12.251114
86800964328808,0.059509523,1.821537,11.416952
86800984191000,2.2772934,2.0366404,11.9653
86801004049176,5.3944917,-1.4414575,15.482085
86801023907480,6.048086,2.407879,17.373264
86801043765784,5.5985565,12.435061,14.398161
86801063623960,2.322098,9.336872,12.013632
86801083474243,1.0323514,3.8222015,10.727659
86801103332292,3.1657784,1.713337,9.155859
86801123190341,3.8362572,0.77130944,9.3842535
86801143048515,5.5519094,-0.41758698,8.128614
86801162906563,4.1672735,-3.0722063,5.596822
86801182764391,0.9553745,-2.9141178,3.4907115
86801202622311,-1.0448478,-0.21906543,2.2950368
86801222480359,-1.2303164,1.8930063,2.5021641
86801242338407,-1.3082519,1.6404929,3.724725
86801262196456,-0.049329285,1.4967386,3.1329274
86801282058473,0.21408075,1.9787891,2.5900736
86801301916522,-0.51895916,1.2377063,3.0180948
86801321774699,0.4990537,0.33669555,4.78004
86801341632748,0.3949504,1.1271993,10.824304
86801361490925,-8.705901,2.7462862,22.86396
86801381346992,-11.2879095,-0.78786826,24.35203
86801401205041,-8.4803505,-4.799015,13.570309
86801421063090,-4.4320164,1.4458739,7.9722285
86801440921267,2.836624,5.691212,7.9985723
86801460779316,3.1584709,4.1275797,12.933594
86801480643275,9.8297205,2.9233122,17.482027
86801500501452,10.348708,8.644733,14.164853
86801520359629,-4.470511,5.721549,4.6598234
86801540217806,0.63362044,2.4286304,-0.13399205
86801560075983,3.611911,2.989131,4.621035
86801579934092,6.564995,2.3226168,10.689175
86801599792269,11.344681,0.012914889,13.03639
86801619650574,7.238787,-2.7089994,11.45001
86801639508751,3.5103536,-1.6383107,9.886539
86801659366928,-0.78193057,-0.38894767,10.279399
86801679225225,-1.7285677,0.9423326,10.59646
86801699083402,3.7441921,1.7950249,9.26629
86801718941685,3.5736356,0.11899515,6.6235933
86801738799862,4.518487,-1.5905582,6.7796917
86801758658039,3.1440983,-0.9971296,9.822035
86801778529776,1.6731985,0.118090965,10.469504
86801798388209,2.289057,-0.38479295,8.258156
86801818246642,1.5368823,-0.1883371,8.777545
86801838105070,-3.3688245,0.6165791,9.949301
86801857963502,-0.73598623,0.29363427,9.684504
86801877818708,0.04836466,0.3957349,8.752121
86801897677140,-2.0914762,1.1118279,8.678807
86801917535572,-2.3632064,0.41703957,9.556164
86801937394004,-1.798443,-0.09845305,10.117466
86801957252436,-1.7651519,0.53452194,10.157564
86801977119608,-2.392006,1.1391466,9.855621
86801996978296,-3.2113998,1.498025,9.665935
86802016836984,-3.7206106,1.5716327,9.535331
86802036695544,-3.5121496,1.5847642,8.981064
86802056554232,-3.3465781,1.0655835,9.311446
86802076412920,-2.0426464,-0.35265583,11.903315
86802096267396,-0.31231502,-2.846824,14.712444
86802116125956,-1.3956877,-1.9890419,13.738492
86802135984644,-1.2644902,2.265958,10.772505
86802155843204,2.524628,2.7159333,9.562297
86802175701892,4.0657654,3.6570177,9.948732
86802195563636,5.1524887,4.86426,11.169466
86802215422324,2.2496657,2.0941384,11.0941
86802235280884,0.53557026,-1.7356982,11.475219
86802255139572,0.94902384,-1.2685156,11.238825
86802274998260,0.41700128,0.18431838,11.339568
86802294855642,1.049879,1.1786678,10.429514
86802314714330,1.4927816,0.421483,8.855363
86802334573018,0.44943088,-0.4940603,8.354625
86802354431578,-0.23380971,-0.27913862,8.643832
86802374290266,0.03187791,-0.36530757,8.550145
86802394144358,-0.19805957,-0.80580395,8.0944605
86802414002918,-0.012226,-0.8205275,7.357984
86802433861478,0.49607188,0.50906825,6.8615828
86802453720038,0.5596212,1.5448128,6.2407904
86802473578598,-0.25530088,0.7854118,7.013444
86802493436510,-1.0972004,0.0049937475,9.054703
86802513295070,-1.1266102,-0.11681005,10.266092
86802533153630,-1.243632,0.7536452,11.208728
86802553012190,-1.153832,1.9460491,10.884495
86802572870750,-0.9868064,1.938549,9.229313
86802592727335,0.37984955,0.69253117,8.909388
86802612585895,0.88089633,0.27874783,9.245677
86802632444455,0.5335167,-7.0506625E-4,9.1987
86802652303015,0.24031937,-0.16030227,9.119155
86802672161575,-0.45630214,0.46566036,9.783053
86802692006347,-1.300212,1.6752208,10.452801
86802711864523,1.3891457,1.7786487,9.7093525
86802731722827,3.279894,0.8501271,8.993952
86802751581003,0.3973022,2.6333683,10.599767
86802771439307,-2.8144655,1.2862766,11.286747
86802791296776,-0.2665471,-0.9288209,10.20523
86802811154952,-1.3295202,0.71300656,10.352744
86802831013256,-1.73617,-0.44572383,9.785971
86802850871432,-2.3374157,-1.1899264,8.986841
86802870729608,-3.4802313,1.2509087,7.62869
86802890587644,-2.8905764,2.382297,5.91608
86802910445948,-1.5649728,0.61517423,5.533301
86802930304124,-0.31881842,-0.21505213,7.5376186
86802950163114,-1.2905403,-0.25601542,11.976461
86802970021290,-0.54741985,-3.1096268,13.858846
86802989875236,1.4038166,-1.8810031,12.618353
86803009733284,2.623464,0.5777147,11.687944
86803029591332,1.1771946,0.73621,10.6572485
86803049449380,-0.6164165,1.132726,9.726006
86803069307428,-0.15004611,0.6322107,10.387399
86803089147160,1.4976867,-0.7468352,10.210387
86803109004824,0.8550308,-2.9345021,9.034555
86803128862616,0.32053325,-2.4275439,8.793539
86803148720280,0.4631342,-1.909623,9.249278
86803168577944,-0.192575,-0.8367441,10.306563
86803188434840,-0.4028453,0.03848634,12.080514
86803208292376,-0.86172456,1.612118,11.783041
86803228150040,-0.54647505,2.0036404,10.285968
86803248007576,0.035812754,1.2948115,9.122164
86803267865240,0.16743062,-0.10643891,9.004034
86803287731134,0.09250728,-0.7233887,9.531379
86803307588798,0.30582315,-0.9496848,9.9148
86803327446590,-0.034102738,-1.1873403,9.53841
86803347304254,-0.19510484,-0.39330822,9.634657
86803367161918,-0.870823,0.43832764,9.793714
86803387030074,-1.4408659,0.6412892,10.095649
86803406887994,-1.6907008,-0.008625009,10.118666
86803426746042,-1.0840085,-0.60737085,10.090402
86803446603962,-0.2187565,-0.9378354,10.18375
86803466462010,-0.172815,-0.879486,9.971521
86803486323010,-0.61286944,-0.11335985,9.775095
86803506180930,-1.0929401,0.9609859,9.604981
86803526038978,-1.4086151,1.324027,9.510424
86803545896898,-0.85221887,0.7755299,9.5068245
86803565754946,-0.09450015,-0.38295823,9.546093
86803585616530,0.7007061,-1.4460127,9.549232
86803605474706,0.654792,-1.4870896,9.744491
86803625332754,0.35662866,-0.8674509,10.06925
86803645190930,-0.13646917,-0.06808988,10.007901
86803665048978,0.0095600225,0.33447468,9.704196
86803684905294,0.3520049,0.38347596,9.489385
86803704763342,0.3550935,0.5329114,9.438111
86803724621262,0.24669348,0.5901194,9.40121
86803744479310,0.4062751,0.3662443,9.482213
86803764337358,0.38416055,0.12429848,9.549756
86803784207223,-0.04971248,0.1020408,9.64264
86803804065527,-0.47713235,0.16283108,9.750719
86803823923831,-0.45996088,0.006985446,9.738389
86803843782135,-0.084536344,-0.15817308,9.641522
86803863640567,0.018888494,-0.039913826,9.551274
86803883497348,-0.26743445,0.16744705,9.520159
86803903355652,-0.36599562,0.2653782,9.603929
86803923214084,-0.20239218,0.20092794,9.681514
86803943072388,-0.076926,0.06798619,9.649722
86803962930692,-0.12773748,0.032135103,9.58157
86803982791763,-0.32471853,0.13825658,9.565152
86804002650195,-0.32173645,0.11026319,9.647444
86804022508627,-0.15906093,-0.018555434,9.642214
86804042366931,-0.21697955,0.027054954,9.655143
86804062225363,-0.22550364,0.21700473,9.608985
86804082087641,-0.14491309,0.17945743,9.699423
86804101946201,-0.3043022,0.1540436,9.707634
86804121804633,-0.3399932,0.10360903,9.651288
86804141663193,-0.23181997,0.02544112,9.611016
86804161521753,-0.3808466,0.066003755,9.620753
86804181383683,-0.31686682,-0.0039573973,9.665357
86804201242371,-0.3643777,-0.08972596,9.6218405
86804221101059,-0.3626395,-0.08751189,9.60241
86804240959619,-0.3248959,-0.056638107,9.505163
86804260818307,-0.45839,-0.019773677,9.524401
86804280674342,-0.53259486,-0.033673,9.601648
86804300532902,-0.48171136,-0.080460094,9.618945
86804320391334,-0.39991468,-0.10936511,9.61295
86804340249894,-0.3525298,-0.11096489,9.609736
86804360108454,-0.4360818,-0.045119263,9.580846
86804379969677,-0.6117351,0.09172742,9.700926
86804399828365,-0.67488813,0.15346885,9.7241955
86804419687053,-0.56125903,0.10678696,9.723094
86804439545613,-0.42048523,0.06284785,9.625461
86804459404301,-0.2861465,0.043355785,9.464743
86804479263537,-0.34902206,0.04380866,9.524996
86804499122353,-0.40403318,0.08361239,9.653884
86804518981041,-0.41433063,0.092898615,9.713237
86804538839729,-0.44086397,0.092187434,9.663132
86804558698417,-0.38732976,0.07827547,9.666917
86804578551930,-0.4387168,0.0352946,9.6245575
86804598410618,-0.3806553,-0.022980345,9.633479
86804618269178,-0.32778797,0.054431375,9.64326
86804638127866,-0.3606124,0.05627949,9.662157
86804657986554,-0.33476308,0.098328516,9.622
86804677832002,-0.2870951,0.08492113,9.527794
86804697690178,-0.354554,0.07388052,9.576206
86804717548354,-0.33420095,0.08841778,9.716504
86804737406658,-0.22103673,0.007988153,9.693168
86804757264834,-0.22187114,-0.0019418481,9.619815
86804777123735,-0.25613764,0.1466069,9.640558
86804796981911,-0.34194973,0.15639575,9.574569
86804816840087,-0.31302568,0.09212377,9.529044
86804836698263,-0.1282606,0.021732667,9.557222
86804856556439,-0.08931737,0.066778906,9.652881
86804876411384,-0.21916221,0.158742,9.708037
86804896269560,-0.28121316,0.17123042,9.612154
86804916127736,-0.24048467,0.08104163,9.631095
86804935985912,-0.18278542,0.1051814,9.588486
86804955846312,-0.111836895,-0.053684182,9.579018
86804975702147,-0.3026308,0.09787301,9.693558
86804995560323,-0.30589193,0.14522381,9.631589
86805015418371,-0.2849306,0.035465356,9.619446
86805035276547,-0.27427715,0.1519008,9.661828
86805055134595,-0.24068913,0.028545456,9.583414
86805074989679,-0.3365778,0.07001426,9.59636
86805094847727,-0.2880975,0.1642645,9.666235
86805114705775,-0.21054567,0.011444182,9.626743
86805134563823,-0.31511524,0.0726553,9.699732
86805154421999,-0.27158144,0.13801771,9.871501
86805174280967,-0.28384337,0.1646238,9.829355
86805194139015,-0.42875278,0.27142546,9.698963
86805213997063,-0.36033064,0.15115269,9.531803
86805233855111,-0.32164568,0.16390674,9.496745
86805253713159,-0.32479617,0.11869276,9.713333
86805273571755,-0.3173399,0.13158764,9.844864
86805293429675,-0.3425337,0.14534773,9.807524
86805313287723,-0.42001373,0.17514622,9.750243
86805333145771,-0.41292784,0.14408766,9.713852
86805353003819,-0.3931019,0.10349987,9.714768
86805372860866,-0.37443745,0.11328135,9.741298
86805392718786,-0.3187593,0.0534892,9.731913
86805412576834,-0.31013042,0.07750426,9.748039
86805432434882,-0.30274788,0.10230747,9.710144
86805452292930,-0.32870707,0.14509419,9.77069
86805472150978,-0.3327217,0.20399855,9.842002
86805492011683,-0.29866505,0.24434347,9.73513
86805511869731,-0.23978466,0.22652033,9.728806
86805531727779,-0.17876224,0.28152746,9.715558
86805551585699,-0.19552782,0.23991898,9.737163
86805571443747,-0.17470552,0.24074194,9.730968
86805591304379,-0.17024755,0.27233383,9.755998
86805611162427,-0.119803555,0.16870107,9.787058
86805631020475,-0.16225368,0.1722526,9.843022
86805650878523,-0.15596846,0.24733348,9.828757
86805670736699,-0.2505471,0.23649289,9.696572
86805690594837,-0.34159335,0.21353754,9.59439
86805710452885,-0.40454328,0.16697326,9.638219
86805730311061,-0.43479776,0.21971504,9.754361
86805750169109,-0.39475045,0.21682692,9.810324
86805770027157,-0.42104846,0.20407547,9.811189
86805789890745,-0.4213849,0.21386714,9.755348
86805809748921,-0.42342684,0.19064654,9.665095
86805829607097,-0.46140236,0.22737637,9.746967
86805849465273,-0.50180775,0.26809415,9.821609
86805869323449,-0.53654754,0.25727996,9.7445135
86805889189652,-0.45376885,0.16984962,9.7204075
86805909048084,-0.39681378,0.19796324,9.737475
86805928906388,-0.4104242,0.24904719,9.718187
86805948764820,-0.4792675,0.25968426,9.725083
86805968623124,-0.46570742,0.2671764,9.74089
86805988487991,-0.41531602,0.32898757,9.812605
86806008346551,-0.41035187,0.32287148,9.794638
86806028205111,-0.34511635,0.3030093,9.707509
86806048063671,-0.26566097,0.34526575,9.73171
86806067922231,-0.30034086,0.29272747,9.801013
86806087777956,-0.39181513,0.24639028,9.7569065
86806107636388,-0.386375,0.26917854,9.695307
86806127494948,-0.34681496,0.2981442,9.701578
86806147353508,-0.35539278,0.35359612,9.724811
86806167212068,-0.42139217,0.29589218,9.746267
86806187069055,-0.40903825,0.29479513,9.805951
86806206927487,-0.32232255,0.2773957,9.768941
86806226786047,-0.2667899,0.357175,9.733077
86806246644607,-0.25291,0.38241935,9.763671
86806266503039,-0.21713658,0.3488705,9.710033
86806286369771,-0.24657872,0.40782726,9.76553
86806306228459,-0.33887655,0.37349412,9.8175535
86806326087147,-0.30926812,0.21197346,9.695098
86806345945707,-0.26471302,0.22304842,9.704858
86806365804395,-0.22190286,0.32001492,9.766144
86806385662150,-0.21319696,0.37149566,9.691585
86806405520838,-0.1995759,0.33764026,9.6848755
86806425379526,-0.19413134,0.34356213,9.726598
86806445238214,-0.21735857,0.28788748,9.748921
86806465097030,-0.24400319,0.32597315,9.783155
86806484950945,-0.21302335,0.3198351,9.744739
86806504809505,-0.14707664,0.32403275,9.694581
86806524668065,-0.14207152,0.31937346,9.788163
86806544526753,-0.14268515,0.3438526,9.870028
86806564385313,-0.10583988,0.36266705,9.819951
86806584231158,-0.051071156,0.3577107,9.74002
86806604089462,-0.07099906,0.31583777,9.719936
86806623947894,-0.119577475,0.3586118,9.719684
86806643806198,-0.13218425,0.34099528,9.733735
86806663664630,-0.11733882,0.30534333,9.770368
86806683519574,-0.07098055,0.29027793,9.772983
86806703377878,-0.049378533,0.32987934,9.806568
86806723236054,-0.09381647,0.34476438,9.7541275
86806743094358,-0.118001565,0.29214463,9.718042
86806762952534,-0.107836574,0.32375345,9.766595
86806782811502,-0.070181794,0.41216186,9.786839
86806802669806,-0.05515877,0.38509738,9.783893
86806822528110,-0.050538458,0.35978684,9.80513
86806842386286,-0.082342505,0.3334482,9.808382
86806862244590,-0.075282514,0.4093605,9.749665
86806882101132,-0.06730144,0.38623363,9.714987
86806901959308,-0.072326966,0.3417595,9.735566
86806921817612,-0.06859486,0.3400136,9.748705
86806941675788,-0.091464676,0.3617194,9.751161
86806961524393,-0.105428524,0.32959172,9.794134
86806981376505,-0.09069561,0.32422334,9.769865
86807001234553,-0.023065936,0.35569164,9.718372
86807021092601,0.0053182216,0.36720678,9.767632
86807040950649,0.0065462063,0.30645034,9.757505
86807060808697,-0.023213472,0.29692784,9.716909
86807080664714,0.014406387,0.33762845,9.717295
86807100522762,-0.038307946,0.34544626,9.792873
86807120380810,-0.020954844,0.33834672,9.8835945
86807140238730,-0.007883716,0.2919687,9.756256
86807160096778,0.034817033,0.23187815,9.679665
86807179954271,0.07762165,0.30706543,9.728896
86807199812319,-0.009666132,0.35567364,9.719297
86807219670239,-0.044831354,0.25352854,9.682935
86807239528287,0.0393759,0.31327194,9.756883
86807259386207,0.013002636,0.3469661,9.824718
86807279243669,0.0028627333,0.38247642,9.788725
86807299101589,-0.019898223,0.26287216,9.734588
86807318959509,0.08820836,0.26451144,9.748563
86807338817301,0.094686836,0.36856282,9.735392
86807358675221,0.019183531,0.38768616,9.705889
86807378535731,0.019561969,0.2744139,9.757425
86807398393651,0.00875075,0.25263748,9.814041
86807418251571,0.057801887,0.35692164,9.8295765
86807438109491,0.07149921,0.33567014,9.7097
86807457967411,0.0041091284,0.31972042,9.670186
86807477833382,0.02046187,0.35393,9.715786
86807497691558,-0.0130258845,0.35456744,9.718684
86807517549734,-0.073522754,0.33863094,9.744942
86807537407782,0.008213736,0.3314623,9.8160925
86807557265958,0.021002093,0.3920571,9.78655
86807577121834,-2.6746742E-5,0.44569063,9.746714
86807596979882,0.029419065,0.3751771,9.701254
86807616838058,0.07474029,0.36567333,9.766046
86807636696106,0.051791377,0.50489885,9.804737
86807656554282,-0.03390637,0.42860633,9.807838
86807676399729,-0.0042087757,0.38904953,9.786502
86807696257522,0.01737041,0.40183118,9.646186
86807716115443,-0.01321056,0.4422264,9.71331
86807735973233,0.055294015,0.4299903,9.760036
86807755831026,0.0150743695,0.34928882,9.798101
86807775696600,0.039930183,0.39508396,9.799961
86807795554520,0.051442534,0.39556766,9.720197
86807815412568,0.12132882,0.366644,9.768546
86807835270488,0.11982475,0.44057232,9.740852
86807855128408,-0.01637937,0.37107638,9.679246
86807874991178,-0.024599036,0.3373352,9.719334
86807894849354,0.059059206,0.393292,9.82119
86807914707402,0.047216266,0.43799612,9.778751
86807934565578,0.037416697,0.35677904,9.703092
86807954423754,0.08761738,0.30527896,9.699277
86807974288305,0.14895491,0.40620252,9.84301
86807994146609,0.16645756,0.47816953,9.855204
86808014004913,0.06280038,0.364094,9.68064
86808033863217,0.02336278,0.2309193,9.626586
86808053721393,0.09763235,0.2919979,9.678497
86808073578098,0.14233561,0.46241048,9.826136
86808093436402,0.09857826,0.45677108,9.804136
86808113294706,0.010998382,0.2725622,9.811435
86808133153010,0.0447421,0.2746698,9.780456
86808153011186,0.092498355,0.36841232,9.67922
86808172875266,0.14071321,0.43021592,9.668232
86808192733571,0.10081794,0.37302774,9.794994
86808212591876,0.027152112,0.31483182,9.784969
86808232450178,0.049425337,0.33346313,9.774341
86808252308483,0.110842004,0.36450312,9.791182
86808272176952,0.13317613,0.38927704,9.7321825
86808292035512,0.10561877,0.34068313,9.79449
86808311893945,0.09921024,0.34564036,9.742314
86808331752504,0.021478456,0.28740156,9.747378
86808351609910,0.16040415,0.31659907,9.77347
86808371468471,0.13553922,0.3227032,9.769521
86808391327030,0.12852025,0.3635106,9.796765
86808411185590,0.06240542,0.33346188,9.764948
86808431044151,-0.017163642,0.30408537,9.77164
86808450902710,0.06587321,0.3301699,9.812867
86808470761562,0.10244212,0.33167577,9.737605
86808490620123,0.10241073,0.37028998,9.766944
86808510478682,0.109296985,0.31018928,9.735029
86808530337242,0.084294826,0.25969252,9.756778
86808550195931,0.14299767,0.33250266,9.768272
86808570043212,0.047419522,0.2723921,9.754835
86808589901516,0.07062627,0.3174153,9.747183
86808609759949,0.06064438,0.30163142,9.735401
86808629618252,0.064512014,0.32506377,9.77066
86808649476726,0.14425287,0.29028472,9.777927
86808669335031,0.1264294,0.20371428,9.777243
86808689193462,0.15824121,0.33656493,9.733097
86808709051766,0.071231395,0.26124996,9.820905
86808728910071,0.10708421,0.3124501,9.73072
86808748768502,0.05047243,0.26095185,9.672794
86808768623531,0.12438524,0.24011272,9.749249
86808788481836,0.18009059,0.3398153,9.824685
86808808340139,0.12994994,0.29227906,9.738269
86808828198443,0.09224273,0.18747276,9.75919
86808848056748,0.091469646,0.2630711,9.712901
86808867915922,0.14546552,0.38254833,9.726256
86808887774226,0.19485193,0.3357003,9.816948
86808907632531,0.10213122,0.25898844,9.82343
86808927490834,0.13684724,0.28399298,9.790381
86808947349138,0.18823312,0.25751024,9.724759
86808967207443,0.16526811,0.31035858,9.699968
86808987066228,0.14476697,0.32754803,9.71615
86809006924660,0.09968076,0.22416538,9.695344
86809026783093,0.10330905,0.27832812,9.794651
86809046641524,0.17622136,0.3315243,9.911509
86809066497291,0.13707577,0.3324877,9.802588
86809086355724,0.1292069,0.31629896,9.666715
86809106214155,0.1144677,0.2552553,9.581612
86809126072587,0.14029661,0.32243842,9.663406
86809145931020,0.24249265,0.29891726,9.773338
86809165786726,0.12843159,0.28887355,9.898028
86809185645030,0.17541546,0.31325015,9.831004
86809205503463,0.1278287,0.27356875,9.6862545
86809225361766,0.20479135,0.30154914,9.651523
86809245220198,0.12479577,0.3018412,9.755859
86809265078503,0.12641786,0.28229588,9.7449
86809284886632,0.20611483,0.25328532,9.747216
86809304744040,0.23299353,0.2978724,9.778449
86809324601321,0.1886278,0.33330348,9.624421
86809344458600,0.14223658,0.30683175,9.735694
86809364328898,0.2327991,0.3787904,9.94406
86809384186435,0.14052561,0.4367895,9.969654
86809404043842,0.07552225,0.3264186,9.794225
86809423901378,0.059073605,0.16973677,9.653363
86809443758915,0.27929378,0.36262393,9.704292
86809463623959,0.17338125,0.5270955,9.741111
86809483481495,0.0553226,0.2555096,9.673767
86809503339032,0.025147146,0.2139473,9.708894
86809523196567,0.19239044,0.4594706,9.8341
86809543054231,0.22107626,0.46119952,9.817235
86809562911768,0.109147154,0.2799391,9.802448
86809582774940,0.14714514,0.21677092,9.770654
86809602632604,0.28127348,0.36528406,9.754623
86809622490269,0.29675868,0.37365294,9.708307
86809642347932,0.0946083,0.225715,9.686476
86809662215274,0.112885915,0.2309374,9.709103
86809682073067,0.26589188,0.31462163,9.842146
86809701930858,0.32935232,0.34956482,9.881248
86809721788650,0.12284632,0.2811564,9.77475
86809741646443,0.035225615,0.17130059,9.67956
86809761504234,0.1538714,0.18789718,9.681444
86809781382221,0.2962008,0.34747902,9.741063
86809801240398,0.1512597,0.27605644,9.72624
86809821098573,0.10987194,0.14513306,9.722687
86809840956877,0.17260157,0.18080108,9.818143
86809860815054,0.30261728,0.26470125,9.80955
86809880685078,0.228124,0.18721732,9.719849
86809900543638,0.15888251,0.17874812,9.692754
