UPTIMENANO,Ax,Ay,Az
69141093162022,-1.3124708,9.635164,-0.977168
69141113017895,-1.346001,9.632769,-0.99393314
69141132869638,-1.4034815,9.601633999999999,-0.98435307
69141152725255,-1.3986914,9.589659,-0.9364527
69141172581000,-1.3507911,9.620794,-0.9508228000000001
69141192436745,-1.3100758,9.642349000000001,-0.9699829
69141212292362,-1.2981006000000002,9.620794,-0.9867481
69141232140997,-1.3412110000000002,9.604028999999999,-0.93405765
69141251996486,-1.3891114,9.604028999999999,-0.91250247
69141271851955,-1.3891114,9.589659,-0.9388476999999998
69141291707444,-1.3507911,9.620794,-0.98435307
69141311562933,-1.3507911,9.654325,-0.9963281999999999
69141331418422,-1.3531861,9.620794,-0.9268726
69141351264359,-1.3819263000000002,9.596844,-0.8861573
69141371119720,-1.3867163999999998,9.601633999999999,-0.9580079
69141390974953,-1.3388159,9.613608000000001,-0.9987232
69141410830314,-1.3244458000000001,9.635164,-0.98195803
69141430683175,-1.3555812,9.599238,-0.9196875
69141450538408,-1.3795313,9.616004,-0.91250247
69141470393641,-1.346001,9.625584,-0.95561284
69141490248874,-1.3052857,9.644744000000001,-0.9699829
69141510104107,-1.2933106,9.632769,-0.9436377
69141529962594,-1.2981006000000002,9.604028999999999,-0.9364527
69141549817827,-1.331631,9.613608000000001,-0.92926764
69141569673188,-1.3651612,9.620794,-0.9316626
69141589528421,-1.3939015,9.611214,-0.9436377
69141609383654,-1.3747413,9.587264,-0.96040285
69141629239015,-1.3100758,9.613608000000001,-0.9915381
69141649089950,-1.2741505,9.68067,-0.9532178
69141668945055,-1.331631,9.690249,-0.9268726
69141688800288,-1.3891114,9.656719,-0.8909473
69141708655521,-1.3915064,9.635164,-0.8981324
69141728515228,-1.3412110000000002,9.613608000000001,-0.977168
69141748370569,-1.3148658000000002,9.611214,-1.0130934
69141768225802,-1.3100758,9.580078,-1.0154883
69141788081035,-1.3579761000000001,9.544153,-0.974773
69141807936396,-1.3819263000000002,9.570497999999999,-0.95561284
69141827789251,-1.3699511999999998,9.604028999999999,-0.98435307
69141847644612,-1.3268408999999999,9.613608000000001,-1.0083033000000001
69141867499845,-1.3076807,9.637559,-1.0035132
69141887355078,-1.3100758,9.651928999999999,-0.9580079
69141907210311,-1.3436059999999999,9.639954,-0.9436377
69141927065544,-1.3507911,9.649534,-0.9484278
69141946920741,-1.3268408999999999,9.649534,-0.9627979
69141966775974,-1.2957056999999998,9.618399,-0.93405765
69141986631207,-1.3436059999999999,9.604028999999999,-0.9532178
69142006486312,-1.3436059999999999,9.580078,-1.0633887
69142026350871,-1.3675561999999999,9.596844,-1.0633887
69142046206232,-1.3388159,9.601633999999999,-1.0202783000000002
69142066061721,-1.3148658000000002,9.639954,-0.90771246
69142085917082,-1.3148658000000002,9.627979,-0.9196875
69142105772443,-1.3292358999999998,9.64714,-0.974773
69142125627804,-1.3507911,9.687855,-0.90771246
69142145492301,-1.3028906999999998,9.64714,-0.95561284
69142165347918,-1.3124708,9.601633999999999,-0.9915381
69142185203535,-1.3076807,9.5633135,-0.9388476999999998
69142205059152,-1.2765454,9.5489435,-0.9364527
69142224914748,-1.2741505,9.601633999999999,-0.9532178
69142244771949,-1.2981006000000002,9.630374,-0.977168
69142264627566,-1.3436059999999999,9.630374,-0.9364527
69142284483183,-1.3675561999999999,9.637559,-0.8981324
69142304338800,-1.3268408999999999,9.589659,-0.93405765
69142324190375,-1.2957056999999998,9.594449000000001,-0.977168
69142344045992,-1.2885206,9.620794,-0.96040285
69142363901481,-1.3004956,9.606423,-0.9699829
69142383757098,-1.3843212999999999,9.72857,-0.9388476999999998
69142403612587,-1.3843212999999999,9.769285,-0.91729254
69142423468076,-1.3100758,9.68067,-0.9364527
69142443325265,-1.346001,9.616004,-0.9508228000000001
69142463180754,-1.3651612,9.587264,-0.9436377
69142483036371,-1.3507911,9.630374,-0.9412427
69142502891988,-1.3052857,9.587264,-0.90771246
69142522747477,-1.3004956,9.568104,-0.9915381
69142542612118,-1.3675561999999999,9.587264,-0.9963281999999999
69142562467991,-1.3723463,9.627979,-0.9580079
69142582323736,-1.3531861,9.587264,-0.88376224
69142602179609,-1.3364209999999999,9.582474000000001,-0.8909473
69142622033854,-1.3627661,9.627979,-0.92926764
69142641889727,-1.3364209999999999,9.697434,-0.91729254
69142661745600,-1.331631,9.6758795,-0.87178713
69142681601345,-1.3412110000000002,9.651928999999999,-0.8909473
69142701457198,-1.3364209999999999,9.663903999999999,-0.9580079
69142721313071,-1.3268408999999999,9.608819,-0.9867481
69142741172424,-1.3699511999999998,9.575289,-0.9412427
69142761028297,-1.3627661,9.584868,-0.93405765
69142780884298,-1.331631,9.601633999999999,-0.98195803
69142800740171,-1.3172607,9.642349000000001,-0.96040285
69142820596172,-1.3412110000000002,9.625584,-0.89573735
69142840446591,-1.3579761000000001,9.601633999999999,-0.8885523000000001
69142860302464,-1.3412110000000002,9.611214,-0.88376224
69142880158337,-1.2957056999999998,9.584868,-0.92926764
69142900014210,-1.2454101999999998,9.611214,-0.9484278
69142919870083,-1.2933106,9.635164,-0.95561284
69142939725956,-1.3819263000000002,9.673484,-0.93405765
69142959575515,-1.4202466,9.704619000000001,-0.84544194
69142979431260,-1.3867163999999998,9.699829,-0.86939216
69142999286877,-1.3292358999999998,9.659114,-0.9651929
69143019142622,-1.3244458000000001,9.651928999999999,-0.977168
69143038995149,-1.3436059999999999,9.611214,-0.92208254
69143058850894,-1.3603711,9.560919,-0.8765772
69143078706511,-1.3819263000000002,9.544153,-0.8646021
69143098562128,-1.3747413,9.5489435,-0.9412427
69143118417745,-1.3268408999999999,9.570497999999999,-0.9627979
69143138269516,-1.2837305,9.592053,-0.9196875
69143158125133,-1.3124708,9.632769,-0.90771246
69143177980600,-1.3436059999999999,9.635164,-0.90771246
69143197836217,-1.3675561999999999,9.659114,-0.9316626
69143217691706,-1.3531861,9.68067,-0.92208254
69143237547323,-1.3388159,9.671089,-0.8861573
69143257393108,-1.3507911,9.695039999999999,-0.87178713
69143277248469,-1.3388159,9.690249,-0.8909473
69143297103830,-1.3388159,9.637559,-0.91010743
69143316959063,-1.3555812,9.611214,-0.9699829
69143336809730,-1.3052857,9.582474000000001,-0.977168
69143356664963,-1.2693603999999998,9.606423,-0.9148975
69143376520196,-1.2933106,9.592053,-0.83586186
69143396375429,-1.3172607,9.575289,-0.85741705
69143416230534,-1.3388159,9.582474000000001,-0.92208254
69143436077613,-1.3124708,9.611214,-0.95561284
69143455932590,-1.2693603999999998,9.656719,-0.9484278
69143475787567,-1.2981006000000002,9.6758795,-0.8813671999999999
69143495642544,-1.3196558,9.649534,-0.8478370000000001
69143515497521,-1.3603711,9.6615095,-0.91250247
69143535352498,-1.3962965,9.64714,-0.95561284
69143555212181,-1.3699511999999998,9.651928999999999,-0.9364527
69143575067158,-1.3723463,9.649534,-0.86939216
69143594922263,-1.3292358999999998,9.584868,-0.8909473
69143614777240,-1.3196558,9.565708,-0.9508228000000001
69143634633137,-1.3148658000000002,9.572892999999999,-0.974773
69143654488093,-1.3196558,9.599238,-0.9436377
69143674343198,-1.3172607,9.616004,-0.8765772
69143694198175,-1.3292358999999998,9.601633999999999,-0.8909473
69143714053280,-1.3364209999999999,9.601633999999999,-0.9484278
69143733908257,-1.3244458000000001,9.637559,-0.94603276
69143753767090,-1.3483961000000002,9.654325,-0.8981324
69143773622195,-1.3507911,9.687855,-0.87897223
69143793477300,-1.3436059999999999,9.663903999999999,-0.89573735
69143813332405,-1.3292358999999998,9.630374,-0.9196875
69143833187510,-1.3052857,9.642349000000001,-0.9508228000000001
69143853041633,-1.2741505,9.673484,-0.9436377
69143872896738,-1.3076807,9.635164,-0.9651929
69143892751843,-1.3771361999999998,9.582474000000001,-0.92208254
69143912607076,-1.3651612,9.572892999999999,-0.91250247
69143932459287,-1.2789403999999998,9.625584,-0.9699829
69143952314264,-1.2478052,9.6758795,-0.97237796
69143972169241,-1.2597803,9.711803999999999,-0.9388476999999998
69143992024346,-1.3220508,9.699829,-0.9029224
69144011879323,-1.346001,9.695039999999999,-0.8669971
69144031734300,-1.3292358999999998,9.730965,-0.9316626
69144051595007,-1.2669654,9.656719,-0.98914313
69144071450112,-1.2909156000000002,9.572892999999999,-0.9651929
69144091305217,-1.3436059999999999,9.491463000000001,-0.9196875
69144111160322,-1.3412110000000002,9.453142,-0.9532178
69144131015405,-1.2933106,9.496253,-0.9987232
69144150873880,-1.2573853000000002,9.534574000000001,-1.0130934
69144170729113,-1.2813355,9.546548,-0.977168
69144190584346,-1.346001,9.616004,-0.90771246
69144210439579,-1.3603711,9.685459,-0.90052736
69144230295744,-1.3292358999999998,9.769285,-0.9508228000000001
69144250150977,-1.3052857,9.78605,-0.95561284
69144270006210,-1.3388159,9.759705,-0.9580079
69144289861443,-1.3627661,9.695039999999999,-0.91729254
69144309716676,-1.334026,9.644744000000001,-0.9412427
69144329571909,-1.3172607,9.589659,-0.98435307
69144349433074,-1.3004956,9.529783,-1.0226734
69144369288435,-1.2885206,9.522598,-1.0130934
69144389143924,-1.2813355,9.539363,-0.9436377
69144408999285,-1.2669654,9.527389,-0.9196875
69144428854646,-1.2454101999999998,9.599238,-0.96040285
69144448712849,-1.2525953,9.635164,-0.98435307
69144468568210,-1.3124708,9.637559,-0.9867481
69144488423699,-1.3819263000000002,9.68067,-0.91729254
69144508279188,-1.3483961000000002,9.718989,-0.8885523000000001
69144528134677,-1.3292358999999998,9.778865,-0.8813671999999999
69144547990038,-1.3244458000000001,9.750125,-0.95561284
69144567850427,-1.3699511999999998,9.702225,-1.0106983
69144587706044,-1.3771361999999998,9.639954,-0.9436377
69144607561512,-1.3579761000000001,9.604028999999999,-0.8933423
69144627417129,-1.3196558,9.546548,-0.9244776
69144647273934,-1.2957056999999998,9.517808,-1.0035132
69144667129551,-1.3052857,9.522598,-0.9987232
69144686985168,-1.2909156000000002,9.551338000000001,-0.97956306
69144706840785,-1.2909156000000002,9.577683,-0.9412427
69144726696402,-1.3172607,9.637559,-0.92926764
69144746552019,-1.3292358999999998,9.6615095,-0.92208254
69144766409976,-1.3412110000000002,9.687855,-0.9268726
69144786265721,-1.3771361999999998,9.721385,-0.89573735
69144806121338,-1.3986914,9.711803999999999,-0.89573735
69144825977083,-1.3747413,9.685459,-0.90052736
69144845832828,-1.3483961000000002,9.64714,-0.93405765
69144865689189,-1.3028906999999998,9.592053,-0.9651929
69144885544934,-1.2813355,9.594449000000001,-0.9915381
69144905400679,-1.2717555,9.582474000000001,-0.9532178
69144925256296,-1.2789403999999998,9.592053,-0.94603276
69144945106641,-1.3004956,9.601633999999999,-0.9029224
69144964962258,-1.3100758,9.572892999999999,-0.87897223
69144984817875,-1.3004956,9.520203,-0.9244776
69145004673492,-1.3004956,9.601633999999999,-0.94603276
69145024529109,-1.2885206,9.656719,-0.9580079
69145044384726,-1.3244458000000001,9.687855,-0.93405765
69145064236991,-1.3843212999999999,9.769285,-0.8981324
69145084092459,-1.3483961000000002,9.721385,-0.8981324
69145103947948,-1.3244458000000001,9.659114,-0.9412427
69145123803437,-1.3244458000000001,9.627979,-0.9388476999999998
69145143659054,-1.3100758,9.654325,-0.97237796
69145163508125,-1.3268408999999999,9.711803999999999,-0.9508228000000001
69145183363486,-1.3052857,9.671089,-0.9244776
69145203218975,-1.2741505,9.582474000000001,-0.95561284
69145223074336,-1.3148658000000002,9.558523,-0.9963281999999999
69145242926657,-1.3292358999999998,9.565708,-0.96040285
69145262782018,-1.3124708,9.560919,-0.91729254
69145282637251,-1.3268408999999999,9.5489435,-0.9508228000000001
69145302492612,-1.3483961000000002,9.604028999999999,-1.0274634
69145322347973,-1.3483961000000002,9.644744000000001,-1.0035132
69145342203334,-1.3531861,9.666299,-0.97956306
69145362053175,-1.3699511999999998,9.642349000000001,-1.0011181999999998
69145381908408,-1.3795313,9.666299,-1.0274634
69145401763769,-1.3507911,9.704619000000001,-1.0083033000000001
69145421619002,-1.3651612,9.656719,-0.97237796
69145441474235,-1.3675561999999999,9.632769,-0.97956306
69145461328614,-1.3675561999999999,9.635164,-1.0298585
69145481183847,-1.3723463,9.601633999999999,-0.98914313
69145501038952,-1.3555812,9.541758999999999,-0.92208254
69145520894185,-1.3579761000000001,9.532178,-0.91729254
69145540749290,-1.3603711,9.604028999999999,-0.9484278
69145560604501,-1.331631,9.606423,-0.9532178
69145580466950,-1.3364209999999999,9.570497999999999,-0.9412427
69145600322183,-1.3747413,9.637559,-0.92926764
69145620177544,-1.4082716,9.632769,-0.9364527
69145640032777,-1.3939015,9.594449000000001,-0.977168
69145659881836,-1.3771361999999998,9.599238,-1.0202783000000002
69145679737069,-1.3483961000000002,9.637559,-1.0250684
69145699592174,-1.3124708,9.68067,-0.9963281999999999
69145719447407,-1.3651612,9.673484,-0.8981324
69145739302512,-1.3962965,9.644744000000001,-0.8981324
69145759160731,-1.3699511999999998,9.630374,-0.9268726
69145779015964,-1.334026,9.594449000000001,-0.9364527
69145798871197,-1.3148658000000002,9.582474000000001,-1.0035132
69145818726302,-1.3603711,9.570497999999999,-1.0130934
69145838581535,-1.4274316999999999,9.584868,-0.9651929
69145858436768,-1.453777,9.541758999999999,-0.9364527
69145878287819,-1.4202466,9.589659,-0.96040285
69145898142796,-1.3962965,9.623189,-0.9987232
69145917997901,-1.3867163999999998,9.608819,-1.0442286
69145937853006,-1.4106666,9.618399,-1.0562036
69145957708921,-1.4441968,9.651928999999999,-1.0083033000000001
69145977564026,-1.453777,9.68067,-0.977168
69145997419131,-1.4394068000000002,9.685459,-0.9699829
69146017274236,-1.4322218,9.644744000000001,-0.9867481
69146037129322,-1.4274316999999999,9.620794,-1.0035132
69146056986277,-1.4226416000000002,9.632769,-0.99393314
69146076841510,-1.4082716,9.608819,-0.977168
69146096696615,-1.3915064,9.594449000000001,-0.99393314
69146116551720,-1.4322218,9.587264,-1.0274634
69146136406825,-1.4394068000000002,9.613608000000001,-1.0585986
69146156262058,-1.4441968,9.601633999999999,-1.0178833
69146176120923,-1.4250367,9.568104,-1.0202783000000002
69146195976156,-1.4130616000000003,9.582474000000001,-1.0777588
69146215831389,-1.453777,9.589659,-1.089734
69146235686622,-1.5064673000000002,9.582474000000001,-1.0873389
69146255541797,-1.4920973,9.592053,-1.0801538
69146275397030,-1.4202466,9.632769,-1.0585986
69146295252263,-1.3867163999999998,9.637559,-1.0226734
69146315107496,-1.4394068000000002,9.644744000000001,-0.9867481
69146334962729,-1.4873072,9.630374,-1.0514137
69146354817962,-1.4968873,9.589659,-1.094524
69146374671469,-1.465752,9.592053,-1.0633887
69146394526702,-1.4106666,9.570497999999999,-1.0657837
69146414381935,-1.3795313,9.575289,-1.0538087
69146434237168,-1.4489869,9.568104,-1.0083033000000001
69146454092401,-1.465752,9.572892999999999,-1.0370435
69146473950214,-1.4178516,9.616004,-1.0777588
69146493805447,-1.3771361999999998,9.654325,-1.0346485
69146513660786,-1.3507911,9.623189,-0.99393314
69146533516147,-1.3843212999999999,9.627979,-0.9987232
69146553365742,-1.4202466,9.613608000000001,-1.0370435
69146573220975,-1.4058765,9.613608000000001,-1.0083033000000001
69146593076208,-1.4106666,9.623189,-0.95561284
69146612931441,-1.4010864,9.630374,-0.9651929
69146632786546,-1.3699511999999998,9.620794,-0.98914313
69146652641779,-1.3747413,9.604028999999999,-1.0322535
69146672500254,-1.4010864,9.596844,-1.0705738
69146692355487,-1.4178516,9.577683,-1.0059083
69146712210848,-1.4226416000000002,9.606423,-0.94603276
69146732066081,-1.3675561999999999,9.613608000000001,-0.9244776
69146751921442,-1.3603711,9.599238,-0.9867481
69146771782277,-1.3747413,9.5561285,-1.0538087
69146791637638,-1.3962965,9.616004,-1.0394385
69146811492999,-1.3939015,9.644744000000001,-0.9580079
69146831348360,-1.3843212999999999,9.616004,-0.974773
69146851198955,-1.3651612,9.608819,-1.0035132
69146871054188,-1.346001,9.618399,-0.9987232
69146890909421,-1.3483961000000002,9.659114,-1.0083033000000001
69146910764654,-1.3986914,9.663903999999999,-0.9053174
69146930619887,-1.4250367,9.623189,-0.93405765
69146950475248,-1.4034815,9.601633999999999,-1.0202783000000002
69146970322197,-1.3819263000000002,9.572892999999999,-1.0490186000000001
69146990177281,-1.3507911,9.570497999999999,-1.0777588
69147010032258,-1.3771361999999998,9.584868,-1.0490186000000001
69147029887363,-1.3867163999999998,9.558523,-1.0298585
69147049742340,-1.4034815,9.577683,-1.0154883
69147069588047,-1.3819263000000002,9.608819,-1.0298585
69147089442896,-1.334026,9.618399,-1.0681788
69147109297745,-1.3124708,9.630374,-1.0657837
69147129152594,-1.3579761000000001,9.663903999999999,-1.0035132
69147149007443,-1.3891114,9.678274,-0.9627979
69147168862292,-1.3939015,9.6758795,-0.9699829
69147188721151,-1.4010864,9.644744000000001,-0.98914313
69147208576128,-1.3843212999999999,9.599238,-1.0585986
69147228431105,-1.3843212999999999,9.580078,-1.0394385
69147248286082,-1.3915064,9.572892999999999,-0.98914313
69147268141229,-1.4058765,9.568104,-1.0154883
69147287996078,-1.3819263000000002,9.572892999999999,-1.0633887
69147307851055,-1.3675561999999999,9.577683,-1.0849438999999999
69147327705904,-1.3795313,9.635164,-1.0705738
69147347560881,-1.3843212999999999,9.616004,-1.0106983
69147367420892,-1.3915064,9.584868,-0.9651929
69147387275997,-1.3651612,9.606423,-0.977168
69147407130974,-1.3196558,9.637559,-1.0825489
69147426986079,-1.3268408999999999,9.599238,-1.1112891000000003
69147446841056,-1.4010864,9.601633999999999,-1.0562036
69147466696140,-1.4178516,9.592053,-1.0130934
69147486551867,-1.3867163999999998,9.637559,-1.0083033000000001
69147506406844,-1.3268408999999999,9.637559,-1.0322535
69147526261821,-1.3028906999999998,9.611214,-1.0729688
69147546116926,-1.3292358999999998,9.599238,-1.0466236
69147565970165,-1.3531861,9.611214,-1.0394385
69147585825142,-1.3986914,9.64714,-1.0442286
69147605680247,-1.3699511999999998,9.632769,-0.9915381
69147625535224,-1.3771361999999998,9.606423,-0.98435307
69147645390201,-1.3795313,9.580078,-1.0322535
69147665247782,-1.3531861,9.568104,-1.0873389
69147685102759,-1.3244458000000001,9.572892999999999,-1.1064991000000002
69147704957864,-1.3124708,9.589659,-1.0801538
69147724812841,-1.3603711,9.642349000000001,-1.0418334999999999
69147744667946,-1.4034815,9.711803999999999,-1.0418334999999999
69147764523051,-1.3699511999999998,9.6686945,-1.0394385
69147784388176,-1.3412110000000002,9.649534,-1.0585986
69147804243537,-1.3507911,9.637559,-1.0585986
69147824098770,-1.346001,9.642349000000001,-1.0250684
69147843954003,-1.3172607,9.589659,-0.98435307
69147863805660,-1.3220508,9.560919,-1.0585986
69147883660893,-1.3603711,9.551338000000001,-1.1160791
69147903515998,-1.3747413,9.580078,-1.1184741000000002
69147923371231,-1.3603711,9.582474000000001,-1.0442286
69147943226442,-1.3675561999999999,9.580078,-1.0609937
69147963081675,-1.3891114,9.553733,-1.096919
69147982941678,-1.3867163999999998,9.623189,-1.0633887
69148002796911,-1.3436059999999999,9.68067,-1.0777588
69148022652272,-1.3771361999999998,9.659114,-1.1280543
69148042507505,-1.4346168,9.623189,-1.1088941
69148062362866,-1.4250367,9.601633999999999,-1.0490186000000001
69148082216033,-1.3843212999999999,9.642349000000001,-1.0059083
69148102071266,-1.3603711,9.642349000000001,-1.0035132
69148121926499,-1.3531861,9.599238,-1.0873389
69148141781732,-1.3867163999999998,9.568104,-1.0777588
69148161637515,-1.3962965,9.570497999999999,-1.0753639
69148181492748,-1.3819263000000002,9.596844,-1.0585986
69148201347981,-1.3412110000000002,9.592053,-1.0562036
69148221203342,-1.3627661,9.572892999999999,-1.0490186000000001
69148241058575,-1.4034815,9.596844,-1.0322535
69148260913808,-1.3986914,9.582474000000001,-1.0274634
69148280779829,-1.4034815,9.606423,-1.0562036
69148300635318,-1.3723463,9.632769,-1.0538087
69148320490807,-1.3795313,9.639954,-1.0490186000000001
69148340346296,-1.3986914,9.64714,-1.0226734
69148360201785,-1.4106666,9.663903999999999,-1.0083033000000001
69148380065758,-1.4010864,9.663903999999999,-1.0298585
69148399921631,-1.3962965,9.630374,-1.0681788
69148419777354,-1.4034815,9.625584,-1.0729688
69148439633099,-1.3819263000000002,9.606423,-1.0322535
69148459488844,-1.4034815,9.553733,-1.0250684
69148479344589,-1.3819263000000002,9.534574000000001,-1.0514137
69148499197298,-1.3603711,9.553733,-1.1064991000000002
69148519053043,-1.3747413,9.577683,-1.0849438999999999
69148538908788,-1.3962965,9.606423,-1.0226734
69148558764533,-1.3986914,9.632769,-0.9867481
69148578619492,-1.3819263000000002,9.606423,-0.9963281999999999
69148598475237,-1.3651612,9.637559,-1.0298585
69148618330982,-1.3699511999999998,9.68067,-1.0370435
69148638186727,-1.4010864,9.632769,-1.0370435
69148658042472,-1.463357,9.604028999999999,-1.0298585
69148677893435,-1.4370118,9.601633999999999,-1.0202783000000002
69148697748924,-1.3699511999999998,9.604028999999999,-1.0154883
69148717604541,-1.3244458000000001,9.592053,-1.0178833
69148737460030,-1.3603711,9.584868,-1.0394385
69148757315647,-1.3939015,9.580078,-1.0466236
69148777171264,-1.4130616000000003,9.589659,-1.0298585
69148797027129,-1.3891114,9.613608000000001,-1.0130934
69148816882746,-1.3747413,9.613608000000001,-1.0562036
69148836738235,-1.3675561999999999,9.604028999999999,-1.096919
69148856593852,-1.3939015,9.608819,-1.1041040000000002
69148876446629,-1.4226416000000002,9.601633999999999,-1.0801538
69148896302225,-1.4010864,9.613608000000001,-1.0538087
69148916157714,-1.3962965,9.611214,-1.0418334999999999
69148936013203,-1.4106666,9.608819,-1.0609937
69148955868820,-1.4106666,9.608819,-1.0801538
69148975716349,-1.4178516,9.606423,-1.0538087
69148995571710,-1.4034815,9.594449000000001,-1.0418334999999999
69149015427071,-1.3891114,9.584868,-1.0466236
69149035282432,-1.4106666,9.582474000000001,-1.0825489
69149055137921,-1.3962965,9.592053,-1.0801538
69149074993282,-1.3962965,9.596844,-1.0442286
69149094837733,-1.3843212999999999,9.587264,-1.0298585
69149114692966,-1.3915064,9.608819,-1.0490186000000001
69149134548071,-1.3939015,9.623189,-1.0921290000000001
69149154403304,-1.4082716,9.639954,-1.0562036
69149174248919,-1.3939015,9.635164,-1.0370435
69149194103896,-1.4058765,9.613608000000001,-0.9963281999999999
69149213958873,-1.4130616000000003,9.599238,-1.0154883
69149233813722,-1.4106666,9.639954,-1.0753639
69149253668699,-1.3891114,9.601633999999999,-1.089734
69149273523676,-1.4106666,9.589659,-1.0585986
69149293381889,-1.4082716,9.589659,-1.0035132
69149313236866,-1.3795313,9.639954,-0.9987232
69149333091715,-1.3675561999999999,9.692644,-1.0490186000000001
69149352946692,-1.3939015,9.685459,-1.0418334999999999
69149372801647,-1.4346168,9.594449000000001,-1.0370435
69149392658324,-1.4441968,9.553733,-1.0154883
69149412513301,-1.4082716,9.527389,-0.9987232
69149432368278,-1.3675561999999999,9.510622999999999,-1.0585986
69149452223383,-1.3651612,9.529783,-1.0873389
69149472080038,-1.4154567,9.551338000000001,-1.0514137
69149491935015,-1.4489869,9.580078,-1.0777588
69149511789992,-1.4226416000000002,9.606423,-1.1064991000000002
69149531644969,-1.4226416000000002,9.632769,-1.0681788
69149551499946,-1.4202466,9.644744000000001,-1.0346485
69149571354923,-1.4418018,9.6615095,-1.0011181999999998
69149591205898,-1.4441968,9.651928999999999,-1.0083033000000001
69149611060875,-1.4418018,9.651928999999999,-1.0394385
69149630915724,-1.4298267,9.654325,-1.0873389
69149650770701,-1.4322218,9.618399,-1.0849438999999999
69149670625550,-1.4322218,9.575289,-1.0490186000000001
69149690478577,-1.4106666,9.560919,-1.0633887
69149710333426,-1.4202466,9.5561285,-1.0657837
69149730188147,-1.4058765,9.565708,-1.0538087
69149750042996,-1.3986914,9.575289,-1.0370435
69149769902185,-1.4082716,9.606423,-1.0490186000000001
69149789757034,-1.4034815,9.630374,-1.0657837
69149809611883,-1.3962965,9.611214,-1.0777588
69149829466732,-1.3986914,9.613608000000001,-1.0657837
69149849321560,-1.4106666,9.666299,-1.0466236
69149869176409,-1.4178516,9.630374,-1.0418334999999999
69149889034044,-1.4154567,9.623189,-1.0514137
69149908889021,-1.3819263000000002,9.620794,-1.0753639
69149928743870,-1.3292358999999998,9.625584,-1.0753639
69149948598847,-1.3627661,9.642349000000001,-1.0705738
69149968453824,-1.4202466,9.594449000000001,-1.0825489
69149988315113,-1.4609618999999998,9.534574000000001,-1.0681788
69150008170218,-1.4489869,9.541758999999999,-1.0777588
69150028025323,-1.4082716,9.551338000000001,-1.094524
69150047880428,-1.3962965,9.582474000000001,-1.099314
69150067735533,-1.4010864,9.613608000000001,-1.0873389
69150087590510,-1.4154567,9.604028999999999,-1.0825489
69150107442111,-1.4394068000000002,9.613608000000001,-1.1160791
69150127297088,-1.4441968,9.630374,-1.0873389
69150147152065,-1.4250367,9.659114,-1.0442286
69150167007170,-1.3986914,9.630374,-1.0322535
69150186868907,-1.4130616000000003,9.625584,-1.0753639
69150206724140,-1.4298267,9.594449000000001,-1.1041040000000002
69150226579245,-1.4274316999999999,9.601633999999999,-1.0801538
69150246434478,-1.4034815,9.577683,-1.0490186000000001
69150266289583,-1.3915064,9.539363,-1.099314
69150286150490,-1.4202466,9.539363,-1.1328443000000001
69150306005723,-1.4226416000000002,9.546548,-1.1160791
69150325861062,-1.4226416000000002,9.551338000000001,-1.0873389
69150345716423,-1.4489869,9.553733,-1.0705738
69150365571784,-1.4370118,9.596844,-1.0777588
69150385427017,-1.4274316999999999,9.692644,-1.0825489
69150405282732,-1.4202466,9.7740755,-1.0825489
69150425138093,-1.3962965,9.754914999999999,-1.0394385
69150444993582,-1.4346168,9.687855,-1.0322535
69150464848943,-1.4250367,9.611214,-1.0562036
69150484705694,-1.4250367,9.575289,-1.0562036
69150504561055,-1.4226416000000002,9.541758999999999,-1.0322535
69150524416544,-1.3819263000000002,9.513017999999999,-1.0226734
69150544272033,-1.3364209999999999,9.534574000000001,-1.0466236
69150564127522,-1.3531861,9.608819,-1.0633887
69150583980883,-1.3603711,9.596844,-1.0538087
69150603836372,-1.4034815,9.618399,-1.0298585
69150623691733,-1.4250367,9.627979,-1.0322535
69150643547222,-1.4274316999999999,9.663903999999999,-1.0202783000000002
69150663402583,-1.4034815,9.695039999999999,-1.0274634
69150683258072,-1.4130616000000003,9.666299,-1.089734
69150703107715,-1.4465919,9.618399,-1.1256591999999999
69150722962948,-1.465752,9.630374,-1.1112891000000003
69150742818181,-1.4370118,9.584868,-1.0753639
69150762673542,-1.4394068000000002,9.575289,-1.0538087
69150782532545,-1.4418018,9.541758999999999,-1.0657837
69150802387758,-1.4202466,9.539363,-1.1280543
69150822242991,-1.4178516,9.529783,-1.089734
69150842098352,-1.4130616000000003,9.517808,-1.0250684
69150861953585,-1.4178516,9.5489435,-1.0154883
69150881808818,-1.4178516,9.570497999999999,-1.0585986
69150901668549,-1.3843212999999999,9.599238,-1.0753639
69150921524038,-1.4202466,9.64714,-1.094524
69150941379399,-1.453777,9.685459,-1.0825489
69150961234760,-1.463357,9.702225,-1.0538087
69150981090249,-1.4441968,9.68067,-1.0418334999999999
69151000943994,-1.4346168,9.673484,-1.0681788
69151020799355,-1.4226416000000002,9.639954,-1.0825489
69151040654716,-1.3962965,9.587264,-1.0394385
69151060510077,-1.3986914,9.599238,-1.0322535
69151080357912,-1.3771361999999998,9.536968,-1.099314
69151100213145,-1.4154567,9.469908,-1.1160791
69151120068378,-1.4010864,9.469908,-1.0705738
69151139923739,-1.346001,9.510622999999999,-1.0346485
69151159778972,-1.3651612,9.584868,-1.0274634
69151179634205,-1.3723463,9.639954,-1.0346485
69151199482880,-1.3891114,9.671089,-1.0777588
69151219337985,-1.4441968,9.704619000000001,-1.0753639
69151239193090,-1.4705421,9.6758795,-1.0226734
69151259048067,-1.456172,9.673484,-0.98435307
69151278903150,-1.3891114,9.663903999999999,-1.0202783000000002
69151298762845,-1.4034815,9.637559,-1.1280543
69151318618078,-1.4513819,9.594449000000001,-1.1735597
69151338473183,-1.4705421,9.5489435,-1.1639795
69151358328416,-1.4729371,9.544153,-1.1041040000000002
69151378183887,-1.477727,9.565708,-1.0849438999999999
69151398039120,-1.4705421,9.536968,-1.1160791
69151417894225,-1.4753321000000001,9.532178,-1.1280543
69151437749458,-1.463357,9.568104,-1.0849438999999999
69151457604691,-1.4346168,9.582474000000001,-1.0729688
69151477459796,-1.4226416000000002,9.592053,-1.1280543
69151497310853,-1.4250367,9.627979,-1.1280543
69151517165958,-1.456172,9.635164,-1.0609937
69151537021063,-1.463357,9.644744000000001,-1.0202783000000002
69151556876168,-1.4609618999999998,9.656719,-1.0681788
69151576731273,-1.4394068000000002,9.639954,-1.1160791
69151596583650,-1.4202466,9.616004,-1.0825489
69151616438755,-1.4202466,9.592053,-1.0250684
69151636293732,-1.3867163999999998,9.546548,-1.0514137
69151656148837,-1.3915064,9.503438000000001,-1.099314
69151676003814,-1.3891114,9.587264,-1.099314
69151695858919,-1.3986914,9.565708,-1.0418334999999999
69151715708774,-1.4441968,9.5489435,-1.0298585
69151735563623,-1.4370118,9.568104,-1.0370435
69151755418578,-1.3771361999999998,9.611214,-1.0274634
69151775273427,-1.3651612,9.656719,-1.0106983
69151795130556,-1.4130616000000003,9.692644,-1.0059083
69151814985533,-1.453777,9.673484,-1.0442286
69151834840510,-1.4729371,9.64714,-1.0466236
69151854695487,-1.4681469999999999,9.639954,-1.0178833
69151874550336,-1.4513819,9.630374,-1.0298585
69151894405423,-1.4346168,9.592053,-1.0298585
69151914260400,-1.4513819,9.575289,-1.0274634
69151934115377,-1.4394068000000002,9.551338000000001,-1.0681788
69151953970354,-1.4226416000000002,9.534574000000001,-1.101709
69151973825331,-1.4298267,9.546548,-1.0657837
69151993680308,-1.4370118,9.5633135,-1.0274634
69152013538259,-1.465752,9.580078,-0.9963281999999999
69152033393236,-1.477727,9.599238,-1.0130934
69152053248213,-1.4489869,9.637559,-1.0538087
69152073103190,-1.4418018,9.649534,-1.0585986
69152092960063,-1.4585668999999999,9.651928999999999,-1.0394385
69152112815040,-1.4465919,9.606423,-1.0322535
69152132670017,-1.4513819,9.613608000000001,-1.0370435
69152152525122,-1.4274316999999999,9.601633999999999,-1.0322535
69152172380099,-1.4418018,9.604028999999999,-1.0466236
69152192236472,-1.4346168,9.575289,-1.0514137
69152212091577,-1.4106666,9.594449000000001,-1.0418334999999999
69152231946533,-1.3962965,9.613608000000001,-1.0418334999999999
69152251801510,-1.3747413,9.599238,-1.0538087
69152271656615,-1.3867163999999998,9.587264,-1.0585986
69152291511592,-1.4010864,9.625584,-1.0370435
69152311370641,-1.4130616000000003,9.596844,-1.0322535
69152331225746,-1.4609618999999998,9.594449000000001,-1.0274634
69152351080851,-1.4585668999999999,9.611214,-1.0633887
69152370935956,-1.4034815,9.651928999999999,-1.0825489
69152390795035,-1.4202466,9.663903999999999,-1.0154883
69152410650268,-1.4154567,9.627979,-1.0059083
69152430505501,-1.4154567,9.616004,-1.0298585
69152450360734,-1.4130616000000003,9.599238,-1.0777588
69152470215967,-1.3962965,9.604028999999999,-1.1088941
69152490071200,-1.3891114,9.594449000000001,-1.0753639
69152509933483,-1.3986914,9.601633999999999,-1.0178833
69152529788844,-1.4298267,9.589659,-1.0106983
69152549644333,-1.4322218,9.587264,-1.0418334999999999
69152569499694,-1.4202466,9.592053,-1.0633887
69152589355183,-1.4010864,9.618399,-1.0250684
69152609213336,-1.3962965,9.618399,-1.0154883
69152629068953,-1.4106666,9.620794,-1.0490186000000001
69152648924442,-1.4130616000000003,9.608819,-1.0562036
69152668779931,-1.4250367,9.613608000000001,-1.0226734
69152688636414,-1.4250367,9.606423,-0.9987232
69152708491882,-1.4082716,9.601633999999999,-0.9987232
69152728347371,-1.3843212999999999,9.580078,-1.0418334999999999
69152748202860,-1.3651612,9.604028999999999,-1.0298585
69152768058349,-1.3675561999999999,9.625584,-1.0106983
69152787913838,-1.3915064,9.620794,-1.0011181999999998
69152807767431,-1.3867163999999998,9.596844,-1.0011181999999998
69152827622920,-1.3651612,9.627979,-1.0083033000000001
69152847478409,-1.3723463,9.637559,-1.0083033000000001
69152867333770,-1.3843212999999999,9.616004,-1.0178833
69152887189259,-1.3771361999999998,9.608819,-1.0346485
69152907048698,-1.3795313,9.639954,-1.0178833
69152926904315,-1.4010864,9.589659,-1.0178833
69152946759804,-1.4202466,9.558523,-1.0035132
69152966615421,-1.3771361999999998,9.551338000000001,-1.0130934
69152986463090,-1.3172607,9.611214,-1.0083033000000001
69153006318451,-1.2933106,9.630374,-0.99393314
69153026173940,-1.3292358999999998,9.572892999999999,-0.98435307
69153046029429,-1.3651612,9.575289,-1.0059083
69153065884918,-1.3795313,9.6615095,-0.98195803
69153085740407,-1.3555812,9.721385,-1.0083033000000001
69153105586206,-1.3364209999999999,9.6758795,-1.0130934
69153125441567,-1.3843212999999999,9.613608000000001,-1.0011181999999998
69153145296800,-1.4058765,9.589659,-1.0035132
69153165152161,-1.3747413,9.623189,-1.0226734
69153185007371,-1.3196558,9.627979,-1.0466236
69153204860016,-1.3028906999999998,9.627979,-1.0729688
69153224715121,-1.3603711,9.635164,-1.0418334999999999
69153244570354,-1.4058765,9.644744000000001,-0.977168
69153264425587,-1.3819263000000002,9.594449000000001,-0.96040285
69153284280820,-1.3292358999999998,9.587264,-1.0274634
69153304135925,-1.3196558,9.572892999999999,-1.0370435
69153323988304,-1.3364209999999999,9.592053,-1.0226734
69153343843409,-1.346001,9.613608000000001,-0.9699829
69153363698514,-1.334026,9.639954,-0.98435307
69153383553619,-1.3364209999999999,9.64714,-1.0322535
69153403408760,-1.3579761000000001,9.6615095,-1.0538087
69153423263737,-1.3795313,9.651928999999999,-1.0106983
69153443118842,-1.3939015,9.663903999999999,-0.9867481
69153462973947,-1.3603711,9.68067,-0.9987232
69153482829052,-1.3531861,9.637559,-1.0346485
69153502684589,-1.3651612,9.611214,-1.0394385
69153522539566,-1.3699511999999998,9.601633999999999,-1.0346485
69153542394671,-1.3555812,9.5561285,-1.0490186000000001
69153562249648,-1.3747413,9.534574000000001,-1.0346485
69153582104753,-1.3483961000000002,9.546548,-1.0322535
69153601959858,-1.2909156000000002,9.570497999999999,-1.0083033000000001
69153621814233,-1.2957056999999998,9.616004,-1.0274634
69153641669338,-1.3244458000000001,9.649534,-1.0083033000000001
69153661524294,-1.3436059999999999,9.687855,-1.0202783000000002
69153681379399,-1.3675561999999999,9.690249,-1.0035132
69153701232944,-1.3723463,9.7142,-0.9508228000000001
69153721087921,-1.3675561999999999,9.692644,-0.98195803
69153740942898,-1.3651612,9.656719,-1.0298585
69153760797875,-1.3747413,9.599238,-1.0514137
69153780652852,-1.3603711,9.584868,-1.0801538
69153800507939,-1.3388159,9.544153,-1.0705738
69153820362916,-1.3388159,9.575289,-1.0226734
69153840217893,-1.3244458000000001,9.577683,-1.0538087
69153860072870,-1.3220508,9.587264,-1.101709
69153879927847,-1.3364209999999999,9.594449000000001,-1.0370435
69153899782824,-1.3292358999999998,9.616004,-1.0083033000000001
69153919636619,-1.3507911,9.623189,-0.97956306
69153939491596,-1.3483961000000002,9.649534,-0.9915381
69153959346573,-1.3483961000000002,9.656719,-1.0035132
69153979201550,-1.346001,9.666299,-1.0011181999999998
69153999053553,-1.3364209999999999,9.671089,-0.98435307
69154018908402,-1.3364209999999999,9.666299,-0.9963281999999999
69154038763251,-1.3507911,9.659114,-0.98914313
69154058618228,-1.3268408999999999,9.635164,-0.98914313
69154078473077,-1.346001,9.599238,-0.98435307
69154098327926,-1.3388159,9.5561285,-1.0154883
69154118183071,-1.3148658000000002,9.539363,-1.0106983
69154138037897,-1.3364209999999999,9.577683,-0.97956306
69154157892874,-1.3268408999999999,9.582474000000001,-1.0059083
69154177747723,-1.3436059999999999,9.5561285,-1.0346485
69154197602572,-1.4058765,9.620794,-1.0035132
69154217457659,-1.346001,9.68067,-0.99393314
69154237312508,-1.2981006000000002,9.759705,-0.9627979
69154257167357,-1.3172607,9.769285,-0.91010743
69154277022334,-1.3723463,9.702225,-0.94603276
69154296886369,-1.4082716,9.651928999999999,-0.9651929
69154316741474,-1.3867163999999998,9.627979,-0.98195803
69154336596579,-1.346001,9.594449000000001,-1.0250684
69154356451684,-1.3148658000000002,9.534574000000001,-1.0418334999999999
69154376306789,-1.3292358999999998,9.489068,-1.0298585
69154396161894,-1.3603711,9.503438000000001,-1.0250684
69154416017937,-1.3412110000000002,9.541758999999999,-1.0514137
69154435873170,-1.331631,9.568104,-1.0585986
69154455728275,-1.3555812,9.611214,-1.0274634
69154475583508,-1.4034815,9.663903999999999,-0.9580079
69154495438613,-1.4202466,9.707015,-0.9532178
69154515297228,-1.4178516,9.72857,-0.98914313
69154535152589,-1.4082716,9.742939999999999,-1.0370435
69154555007822,-1.3939015,9.697434,-1.0226734
69154574863055,-1.4034815,9.654325,-0.9963281999999999
69154594711876,-1.4202466,9.606423,-1.0035132
69154614566960,-1.3962965,9.613608000000001,-1.0154883
69154634422065,-1.3555812,9.580078,-0.9987232
69154654277170,-1.3483961000000002,9.546548,-1.0059083
69154674132275,-1.3388159,9.539363,-0.98914313
69154693987380,-1.3244458000000001,9.539363,-1.0178833
69154713842523,-1.331631,9.527389,-1.0083033000000001
69154733697628,-1.3603711,9.584868,-0.98195803
69154753552605,-1.3579761000000001,9.632769,-0.9987232
69154773407710,-1.3579761000000001,9.644744000000001,-1.0250684
69154793262815,-1.4202466,9.644744000000001,-1.0130934
69154813127718,-1.4322218,9.6758795,-0.9963281999999999
69154832982951,-1.4034815,9.702225,-1.0083033000000001
69154852838184,-1.3771361999999998,9.72378,-1.0011181999999998
69154872693545,-1.3723463,9.678274,-1.0202783000000002
69154892548778,-1.4010864,9.632769,-1.0585986
69154912404011,-1.4130616000000003,9.606423,-1.0394385
69154932261778,-1.3747413,9.599238,-1.0346485
69154952117139,-1.331631,9.587264,-1.0633887
69154971972372,-1.3292358999999998,9.513017999999999,-1.0849438999999999
69154991827733,-1.3771361999999998,9.503438000000001,-1.101709
69155011682880,-1.3675561999999999,9.5489435,-1.0753639
69155031538113,-1.3388159,9.570497999999999,-1.0873389
69155051393474,-1.3579761000000001,9.568104,-1.0873389
69155071248835,-1.4106666,9.627979,-1.1136841999999998
69155091104174,-1.4394068000000002,9.656719,-1.0849438999999999
69155110956383,-1.4274316999999999,9.678274,-1.0370435
69155130811744,-1.4250367,9.687855,-1.0346485
69155150667105,-1.4130616000000003,9.666299,-1.0777588
69155170522338,-1.4058765,9.613608000000001,-1.0729688
69155190377699,-1.3962965,9.625584,-1.0274634
69155210232932,-1.3795313,9.613608000000001,-1.0011181999999998
69155230085965,-1.3675561999999999,9.620794,-1.0777588
69155249941326,-1.3939015,9.594449000000001,-1.0873389
69155269796559,-1.3891114,9.551338000000001,-1.1088941
69155289651792,-1.3507911,9.560919,-1.0490186000000001
69155309506683,-1.2669654,9.572892999999999,-0.9699829
69155329362044,-1.2525953,9.620794,-0.9196875
69155349217277,-1.3172607,9.683064,-0.8981324
69155369072510,-1.3627661,9.678274,-0.91729254
69155388927871,-1.3795313,9.642349000000001,-0.8981324
69155408777520,-1.3627661,9.608819,-0.92926764
69155428632625,-1.3388159,9.608819,-1.0274634
69155448487858,-1.346001,9.608819,-1.0178833
69155468343091,-1.3507911,9.611214,-0.91250247
69155488198324,-1.3771361999999998,9.613608000000001,-0.8813671999999999
69155508053429,-1.3891114,9.601633999999999,-1.0106983
69155527906078,-1.3747413,9.639954,-1.0849438999999999
69155547761183,-1.3651612,9.623189,-1.0202783000000002
69155567616268,-1.4202466,9.630374,-0.9244776
69155587471373,-1.4322218,9.608819,-0.9699829
69155607321676,-1.3939015,9.599238,-1.0681788
69155627176653,-1.3675561999999999,9.587264,-1.0729688
69155647031630,-1.3531861,9.635164,-0.9987232
69155666886607,-1.3388159,9.599238,-0.98914313
69155686741584,-1.346001,9.5489435,-1.0154883
69155706596689,-1.3699511999999998,9.560919,-1.0202783000000002
69155726451388,-1.3795313,9.642349000000001,-1.0059083
69155746306365,-1.3819263000000002,9.690249,-0.97956306
69155766161214,-1.3867163999999998,9.7142,-0.977168
69155786016191,-1.3843212999999999,9.671089,-1.0130934
69155805871168,-1.3675561999999999,9.613608000000001,-0.9915381
69155825720423,-1.3795313,9.6615095,-0.9699829
69155845575272,-1.3747413,9.704619000000001,-0.9699829
69155865430121,-1.3531861,9.642349000000001,-1.0035132
69155885284842,-1.3771361999999998,9.623189,-1.0178833
69155905142745,-1.3747413,9.627979,-1.0226734
69155924997594,-1.3675561999999999,9.589659,-0.9580079
69155944852443,-1.3244458000000001,9.587264,-0.94603276
69155964707420,-1.2861254999999998,9.551338000000001,-1.0130934
69155984562269,-1.3124708,9.522598,-1.0585986
69156004417118,-1.3483961000000002,9.536968,-1.0083033000000001
69156024272521,-1.346001,9.601633999999999,-0.99393314
69156044127349,-1.3412110000000002,9.616004,-0.98195803
69156063982198,-1.3483961000000002,9.692644,-0.977168
69156083837047,-1.3436059999999999,9.7142,-0.97956306
69156103691896,-1.3555812,9.70941,-0.96758795
69156123549927,-1.346001,9.68067,-0.96758795
69156143404904,-1.3675561999999999,9.6758795,-1.0059083
69156163259753,-1.3771361999999998,9.616004,-0.98195803
69156183114730,-1.3555812,9.606423,-0.9963281999999999
69156202969617,-1.346001,9.596844,-1.0130934
69156222824466,-1.3124708,9.568104,-1.0394385
69156242679315,-1.3220508,9.572892999999999,-1.0442286
69156262534036,-1.3364209999999999,9.620794,-1.0298585
69156282388885,-1.3627661,9.616004,-0.9963281999999999
69156302243734,-1.3627661,9.608819,-0.97956306
69156322094779,-1.3412110000000002,9.592053,-1.0130934
69156341949500,-1.3388159,9.620794,-1.0226734
69156361804221,-1.331631,9.618399,-1.0035132
69156381659070,-1.3244458000000001,9.627979,-1.0083033000000001
69156401513791,-1.3555812,9.651928999999999,-1.0154883
69156421374732,-1.331631,9.625584,-1.0226734
69156441229709,-1.3292358999999998,9.616004,-1.0514137
69156461084686,-1.3412110000000002,9.601633999999999,-1.0418334999999999
69156480939663,-1.3436059999999999,9.616004,-1.0035132
69156500794640,-1.3196558,9.630374,-1.0011181999999998
69156520649594,-1.2861254999999998,9.632769,-1.0250684
69156540510299,-1.2909156000000002,9.625584,-1.0370435
69156560365404,-1.2981006000000002,9.6758795,-1.0394385
69156580220509,-1.3028906999999998,9.627979,-1.0154883
69156600075614,-1.346001,9.608819,-0.99393314
69156619932737,-1.3244458000000001,9.592053,-0.98435307
69156639787842,-1.2693603999999998,9.625584,-1.0011181999999998
69156659643075,-1.2645704,9.654325,-1.0059083
69156679498180,-1.2693603999999998,9.656719,-1.0298585
69156699353413,-1.331631,9.654325,-1.0035132
69156719209792,-1.3483961000000002,9.666299,-0.97956306
69156739064897,-1.3412110000000002,9.635164,-1.0059083
69156758920130,-1.3100758,9.623189,-0.9915381
69156778775363,-1.3052857,9.580078,-1.0298585
69156798630468,-1.3364209999999999,9.553733,-1.0514137
69156818485701,-1.334026,9.558523,-1.0370435
69156838341488,-1.3388159,9.594449000000001,-1.0202783000000002
69156858196721,-1.3148658000000002,9.604028999999999,-1.0130934
69156878051954,-1.3244458000000001,9.613608000000001,-1.0035132
69156897907187,-1.3388159,9.606423,-0.98435307
69156917765266,-1.3627661,9.599238,-0.97237796
69156937620627,-1.3603711,9.623189,-0.974773
69156957475860,-1.3555812,9.64714,-1.0083033000000001
69156977331221,-1.3531861,9.690249,-1.0202783000000002
69156997186562,-1.3507911,9.707015,-0.9987232
69157017041009,-1.3531861,9.7142,-0.9508228000000001
69157036896370,-1.3388159,9.685459,-0.9963281999999999
69157056751603,-1.334026,9.623189,-1.0346485
69157076606836,-1.3603711,9.582474000000001,-1.0011181999999998
69157096462069,-1.3531861,9.594449000000001,-0.9484278
69157116317430,-1.3172607,9.584868,-0.9532178
69157136166045,-1.2957056999999998,9.584868,-1.0202783000000002
69157156021278,-1.2885206,9.627979,-1.0418334999999999
69157175876383,-1.2957056999999998,9.627979,-1.0202783000000002
69157195731616,-1.3172607,9.584868,-0.9867481
69157215584101,-1.3675561999999999,9.587264,-0.977168
69157235439206,-1.3627661,9.611214,-0.9987232
69157255294311,-1.3364209999999999,9.673484,-1.0130934
69157275149416,-1.3507911,9.6758795,-0.98914313
69157295004521,-1.3771361999999998,9.656719,-0.98195803
69157314859498,-1.3627661,9.618399,-1.0035132
69157334715875,-1.346001,9.606423,-1.0011181999999998
69157354571108,-1.3603711,9.635164,-1.0274634
69157374426213,-1.3507911,9.632769,-1.0274634
69157394281318,-1.3723463,9.604028999999999,-0.9963281999999999
69157414136423,-1.3795313,9.589659,-1.0035132
69157433990358,-1.3675561999999999,9.572892999999999,-1.0514137
69157453845463,-1.3603711,9.568104,-1.0346485
69157473700546,-1.3507911,9.582474000000001,-1.0011181999999998
69157493555523,-1.3651612,9.580078,-0.9915381
69157513410938,-1.4034815,9.623189,-1.0250684
69157533266043,-1.4082716,9.654325,-1.0322535
69157553121148,-1.3867163999999998,9.68067,-1.0226734
69157572976125,-1.3915064,9.707015,-1.0274634
69157592831230,-1.3986914,9.683064,-1.0346485
69157612686335,-1.3699511999999998,9.616004,-1.0322535
69157632541866,-1.3507911,9.630374,-1.0178833
69157652396971,-1.3388159,9.587264,-1.0418334999999999
69157672252076,-1.3412110000000002,9.592053,-1.0753639
69157692107053,-1.3388159,9.606423,-1.0250684
69157711962158,-1.3220508,9.620794,-1.0106983
69157731814551,-1.3124708,9.575289,-0.98195803
69157751669656,-1.2981006000000002,9.582474000000001,-1.0298585
69157771524633,-1.2981006000000002,9.627979,-1.0250684
69157791379738,-1.3076807,9.632769,-0.9867481
69157811228997,-1.3747413,9.613608000000001,-0.9867481
69157831083846,-1.3962965,9.654325,-1.0083033000000001
69157850938823,-1.3412110000000002,9.678274,-1.0226734
69157870793800,-1.3196558,9.718989,-1.0130934
69157890648777,-1.3388159,9.683064,-0.9915381
69157910503626,-1.3723463,9.616004,-1.0274634
69157930357421,-1.3651612,9.570497999999999,-1.0202783000000002
69157950212250,-1.334026,9.575289,-1.0178833
69157970067099,-1.3220508,9.584868,-1.0538087
69157989921948,-1.3292358999999998,9.577683,-1.0346485
69158009776797,-1.346001,9.584868,-1.0274634
69158029632964,-1.3436059999999999,9.592053,-1.0083033000000001
69158049487813,-1.3436059999999999,9.613608000000001,-0.99393314
69158069342662,-1.3507911,9.649534,-0.96758795
69158089197511,-1.3675561999999999,9.678274,-0.9244776
69158109052360,-1.3795313,9.663903999999999,-0.90052736
69158128907209,-1.3915064,9.654325,-0.94603276
69158148763386,-1.3843212999999999,9.637559,-0.9867481
69158168618235,-1.3531861,9.632769,-0.9867481
69158188473084,-1.3172607,9.594449000000001,-0.96758795
69158208328061,-1.3124708,9.582474000000001,-0.96758795
69158228188840,-1.3292358999999998,9.584868,-0.98195803
69158248043817,-1.334026,9.623189,-1.0106983
69158267898794,-1.331631,9.637559,-0.974773
69158287753771,-1.3268408999999999,9.64714,-0.97956306
69158307608748,-1.346001,9.616004,-0.98195803
69158327458593,-1.346001,9.568104,-1.0106983
69158347313570,-1.3292358999999998,9.515413,-1.0178833
69158367168419,-1.3196558,9.527389,-1.0059083
69158387023396,-1.3220508,9.589659,-0.99393314
69158406878245,-1.3436059999999999,9.707015,-0.9987232
69158426733200,-1.3436059999999999,9.74773,-1.0059083
69158446590651,-1.3651612,9.74773,-1.0274634
69158466445500,-1.3603711,9.697434,-1.0274634
69158486300477,-1.3172607,9.702225,-1.0178833
69158506155454,-1.3148658000000002,9.718989,-1.0250684
69158526013223,-1.3388159,9.613608000000001,-1.0130934
69158545868200,-1.3939015,9.5633135,-1.0106983
69158565723305,-1.4154567,9.570497999999999,-1.0370435
69158585578282,-1.3627661,9.616004,-1.0609937
69158605433387,-1.3028906999999998,9.584868,-1.0442286
69158625288664,-1.2981006000000002,9.5561285,-1.0801538
69158645143641,-1.3651612,9.532178,-1.0514137
69158664998746,-1.4130616000000003,9.580078,-1.0346485
69158684853851,-1.3651612,9.592053,-1.0346485
69158704708956,-1.3579761000000001,9.592053,-1.0202783000000002
69158724563933,-1.3723463,9.592053,-1.0250684
69158744419148,-1.3771361999999998,9.613608000000001,-1.0370435
69158764274125,-1.3867163999999998,9.625584,-1.0178833
69158784129230,-1.3699511999999998,9.6758795,-1.0106983
69158803984207,-1.346001,9.6758795,-0.9987232
69158823840848,-1.3603711,9.6615095,-1.0106983
69158843695953,-1.3723463,9.651928999999999,-0.9987232
69158863551058,-1.3675561999999999,9.654325,-0.98914313
69158883406035,-1.3627661,9.627979,-0.9580079
69158903261118,-1.3292358999999998,9.594449000000001,-0.96040285
69158923116223,-1.3388159,9.580078,-0.98195803
69158942979372,-1.3436059999999999,9.572892999999999,-1.0083033000000001
69158962834605,-1.3436059999999999,9.589659,-0.9915381
69158982689838,-1.3364209999999999,9.632769,-0.97956306
69159002545071,-1.3483961000000002,9.671089,-0.9963281999999999
69159022400176,-1.334026,9.616004,-1.0106983
69159042251289,-1.3962965,9.683064,-1.0011181999999998
69159062106522,-1.4154567,9.666299,-0.98435307
69159081961627,-1.3675561999999999,9.608819,-0.9196875
69159101816860,-1.3795313,9.572892999999999,-0.8765772
69159121668485,-1.3412110000000002,9.572892999999999,-0.97956306
69159141523590,-1.2837305,9.582474000000001,-1.0154883
69159161378695,-1.2813355,9.630374,-0.97956306
69159181233928,-1.3196558,9.625584,-0.9436377
69159201089033,-1.4010864,9.639954,-0.94603276
69159220944138,-1.4370118,9.604028999999999,-0.90052736
69159240799597,-1.3747413,9.587264,-0.90771246
69159260654702,-1.3004956,9.630374,-0.977168
69159280509807,-1.3651612,9.656719,-0.98195803
69159300365040,-1.456172,9.611214,-0.9436377
69159320220145,-1.4034815,9.599238,-0.93405765
69159340066260,-1.3100758,9.656719,-0.9508228000000001
69159359921237,-1.3579761000000001,9.6758795,-0.9484278
69159379776191,-1.4106666,9.630374,-1.0035132
69159399631168,-1.4058765,9.596844,-0.96040285
69159419485749,-1.3915064,9.64714,-0.8310718
69159439340726,-1.3555812,9.685459,-0.86220706
69159459195575,-1.3555812,9.656719,-1.0059083
69159479050552,-1.3699511999999998,9.671089,-1.0585986
69159498905401,-1.3819263000000002,9.6758795,-0.9532178
69159518760250,-1.3795313,9.637559,-0.8765772
69159538615203,-1.3819263000000002,9.649534,-0.9532178
69159558470180,-1.3819263000000002,9.5561285,-1.0035132
69159578325029,-1.3483961000000002,9.453142,-0.97237796
69159598180006,-1.3507911,9.477093,-0.92208254
69159618034855,-1.3627661,9.517808,-0.9196875
69159637891578,-1.3148658000000002,9.520203,-0.9268726
69159657746555,-1.3100758,9.623189,-0.9388476999999998
69159677601532,-1.3148658000000002,9.618399,-0.9987232
69159697456381,-1.3412110000000002,9.721385,-1.0011181999999998
69159717311358,-1.3747413,9.78605,-0.9388476999999998
69159737166335,-1.4130616000000003,9.745335,-0.92208254
69159757024700,-1.4346168,9.702225,-0.9364527
69159776879805,-1.4058765,9.683064,-0.92926764
69159796734782,-1.3747413,9.697434,-0.9436377
69159816589759,-1.3483961000000002,9.68067,-0.97237796
69159836441316,-1.3436059999999999,9.620794,-1.0298585
69159856296271,-1.3723463,9.580078,-1.0083033000000001
69159876151248,-1.3771361999999998,9.5489435,-0.97956306
69159896006225,-1.3723463,9.544153,-0.94603276
69159915861202,-1.3555812,9.539363,-0.9508228000000001
69159935713527,-1.3436059999999999,9.529783,-0.98914313
69159955568376,-1.3651612,9.596844,-1.0202783000000002
69159975423225,-1.3699511999999998,9.608819,-1.0106983
69159995278202,-1.3723463,9.659114,-0.977168
69160015133051,-1.3819263000000002,9.68067,-0.9627979
69160034987900,-1.3962965,9.7142,-0.96040285
69160054848613,-1.4322218,9.683064,-0.9651929
69160074703590,-1.4202466,9.683064,-0.977168
69160094558567,-1.3915064,9.687855,-0.9987232
69160114413544,-1.3507911,9.690249,-1.0083033000000001
69160134271039,-1.3412110000000002,9.68067,-1.0011181999999998
69160154126144,-1.3292358999999998,9.656719,-0.96040285
69160173981121,-1.3172607,9.625584,-0.9532178
69160193836098,-1.3052857,9.613608000000001,-0.9436377
69160213691203,-1.3076807,9.599238,-0.95561284
69160233552178,-1.3244458000000001,9.553733,-0.94603276
69160253407283,-1.3388159,9.508227999999999,-0.9364527
69160273262388,-1.3483961000000002,9.462723,-0.9508228000000001
69160293117621,-1.3292358999999998,9.422008,-0.974773
69160312972726,-1.3100758,9.455538,-0.9244776
69160332827809,-1.3436059999999999,9.560919,-0.9053174
69160352685834,-1.3531861,9.6758795,-0.91729254
69160372541067,-1.3531861,9.754914999999999,-0.9029224
69160392396172,-1.3723463,9.7621,-0.9196875
69160412251405,-1.3603711,9.766891000000001,-0.9484278
69160432110614,-1.3244458000000001,9.740545,-0.9196875
69160451965975,-1.3364209999999999,9.750125,-0.9148975
69160471821336,-1.3747413,9.695039999999999,-0.9148975
69160491676569,-1.3771361999999998,9.64714,-0.91010743
69160511531930,-1.3819263000000002,9.625584,-0.9364527
69160531387163,-1.3483961000000002,9.606423,-0.9867481
69160551250934,-1.2645704,9.570497999999999,-1.0250684
69160571106551,-1.2597803,9.5633135,-0.977168
69160590962168,-1.3196558,9.524992999999998,-0.9532178
69160610817657,-1.3675561999999999,9.5561285,-0.95561284
69160630673274,-1.3555812,9.580078,-0.9029224
69160650527331,-1.3603711,9.620794,-0.91250247
69160670382820,-1.3867163999999998,9.616004,-0.9627979
69160690238437,-1.3723463,9.635164,-0.99393314
69160710093926,-1.3627661,9.635164,-0.9508228000000001
69160729952261,-1.3483961000000002,9.6615095,-0.9316626
69160749807878,-1.3364209999999999,9.683064,-0.9484278
69160769663495,-1.346001,9.683064,-0.95561284
69160789519112,-1.3579761000000001,9.673484,-0.9412427
69160809374706,-1.3555812,9.659114,-0.9508228000000001
69160829230323,-1.3388159,9.663903999999999,-0.9436377
69160849075998,-1.2957056999999998,9.625584,-0.97237796
69160868931487,-1.3220508,9.620794,-0.98435307
69160888786976,-1.3483961000000002,9.592053,-0.9436377
69160908642465,-1.346001,9.589659,-0.90771246
69160928497826,-1.334026,9.582474000000001,-0.91729254
69160948342617,-1.3220508,9.6686945,-0.974773
69160968197722,-1.3244458000000001,9.6615095,-0.9364527
69160988052955,-1.334026,9.592053,-0.91010743
69161007908188,-1.334026,9.5489435,-0.9053174
69161027763599,-1.3388159,9.541758999999999,-0.91250247
69161047618832,-1.3172607,9.541758999999999,-0.8933423
69161067474065,-1.3292358999999998,9.73815,-0.9053174
69161087329298,-1.2789403999999998,9.726174,-0.9148975
69161107184531,-1.2813355,9.711803999999999,-0.9508228000000001
69161127039764,-1.3148658000000002,9.6615095,-0.94603276
69161146872127,-1.3388159,9.604028999999999,-0.9436377
69161166726848,-1.3986914,9.718989,-0.91010743
69161186581569,-1.3962965,9.726174,-0.83586186
69161206436418,-1.3603711,9.639954,-0.9053174
69161226291139,-1.3603711,9.683064,-0.96758795
69161246132330,-1.3388159,9.656719,-1.0202783000000002
69161265986795,-1.3699511999999998,9.642349000000001,-0.94603276
69161285841240,-1.3699511999999998,9.644744000000001,-0.86220706
69161305695705,-1.3843212999999999,9.64714,-0.91010743
69161325550170,-1.3723463,9.656719,-0.93405765
69161345404635,-1.3675561999999999,9.678274,-0.9484278
69161365241600,-1.3795313,9.73815,-0.9508228000000001
69161385095681,-1.3891114,9.733359,-0.85741705
69161404949762,-1.3699511999999998,9.718989,-0.8382569
69161424803971,-1.3699511999999998,9.75252,-0.8909473
69161444663092,-1.3747413,9.77168,-1.0035132
69161464517173,-1.3891114,9.766891000000001,-0.9580079
69161484371126,-1.4250367,9.812395,-0.84544194
69161504225207,-1.4202466,9.82437,-0.8646021
69161524079288,-1.3747413,9.836346,-0.9053174
69161543938893,-1.3196558,9.81958,-0.9484278
69161563792974,-1.3076807,9.855506,-1.0202783000000002
69161583647055,-1.3795313,9.845925,-1.0154883
69161603501136,-1.4489869,9.857901,-0.9364527
69161623355217,-1.4370118,9.836346,-0.90052736
69161643209298,-1.3819263000000002,9.857901,-1.0035132
69161663067895,-1.3723463,9.850716,-1.1496094
69161682921976,-1.3627661,9.857901,-1.1879296999999998
69161702776057,-1.3603711,9.867481,-1.0729688
69161722630266,-1.3771361999999998,9.850716,-0.9987232
69161742492125,-1.3388159,9.896221,-1.1280543
69161762346312,-1.3100758,9.936936,-1.096919
69161782200521,-1.3028906999999998,9.970467,-1.0490186000000001
69161802054730,-1.3483961000000002,9.956097,-1.0202783000000002
69161821908939,-1.3268408999999999,9.968072,-1.0178833
69161841769006,-1.2789403999999998,10.013577,-0.977168
69161861623471,-1.2981006000000002,10.008787,-0.9316626
69161881477808,-1.3651612,9.982442,-0.89573735
69161901332145,-1.4441968,10.037527,-0.8861573
69161921186482,-1.4465919,10.071057000000001,-0.92208254
69161941040819,-1.4202466,10.059082,-0.9867481
69161960891488,-1.3843212999999999,10.054293,-0.96040285
69161980745825,-1.3962965,10.018367,-0.87178713
69162000600162,-1.4154567,10.049502,-0.8262818000000001
69162020454371,-1.3986914,10.083033,-0.852627
69162040306276,-1.3962965,10.128538,-0.8765772
69162060160485,-1.4082716,10.164463,-0.84065187
69162080014822,-1.3962965,10.157278,-0.7759864000000001
69162099869031,-1.3771361999999998,10.164463,-0.79993653
69162119723368,-1.3603711,10.176438000000001,-0.855022
69162139577577,-1.3675561999999999,10.169253,-0.8909473
69162159430942,-1.3915064,10.169253,-0.8478370000000001
69162179285279,-1.4010864,10.178833000000001,-0.80712163
69162199139488,-1.3939015,10.250684,-0.87178713
69162218993825,-1.3747413,10.257869,-0.93405765
69162238848140,-1.3771361999999998,10.214758999999999,-0.9148975
69162258722671,-1.3915064,10.229128999999999,-0.8981324
69162278577392,-1.3867163999999998,10.212363,-0.91010743
69162298432113,-1.4202466,10.186019,-0.96758795
69162318286834,-1.4681469999999999,10.178833000000001,-0.98435307
69162338160213,-1.4322218,10.157278,-0.94603276
69162358015318,-1.4010864,10.200389,-0.8933423
69162377870551,-1.3723463,10.205178,-0.90771246
69162397725784,-1.3771361999999998,10.226734,-0.9867481
69162417581017,-1.4058765,10.207574000000001,-1.0011181999999998
69162437436122,-1.3962965,10.157278,-1.0130934
69162457285383,-1.3819263000000002,10.214758999999999,-0.96758795
69162477140616,-1.3843212999999999,10.202784,-0.98914313
69162496995721,-1.4178516,10.207574000000001,-1.0178833
69162516850826,-1.453777,10.243499,-1.0298585
69162536705931,-1.4465919,10.219549,-1.0514137
69162556557806,-1.4609618999999998,10.217153999999999,-0.9867481
69162576412911,-1.4489869,10.233919,-1.0106983
69162596268144,-1.463357,10.221944,-1.0442286
69162616123249,-1.477727,10.255474000000001,-0.9915381
69162635991842,-1.463357,10.257869,-1.0011181999999998
69162655847331,-1.4250367,10.243499,-1.0322535
69162675702948,-1.4274316999999999,10.233919,-1.0274634
69162695558437,-1.4154567,10.214758999999999,-1.0250684
69162715413903,-1.4034815,10.233919,-1.0059083
69162735269392,-1.3962965,10.267449000000001,-0.98914313
69162755122853,-1.3915064,10.238708500000001,-1.0059083
69162774978214,-1.4058765,10.176438000000001,-1.0490186000000001
69162794833703,-1.4250367,10.193204,-1.0202783000000002
69162814689064,-1.4274316999999999,10.224339,-0.98435307
69162834544425,-1.4178516,10.190808,-0.98195803
69162854396044,-1.4154567,10.181229,-0.98195803
69162874251277,-1.4681469999999999,10.233919,-1.0083033000000001
69162894106638,-1.4873072,10.214758999999999,-0.9508228000000001
69162913961871,-1.4825171,10.207574000000001,-0.85023195
69162933817232,-1.465752,10.257869,-0.8430469
69162953672465,-1.4082716,10.317744,-0.8646021
69162973523798,-1.3699511999999998,10.303374,-0.82388675
69162993378903,-1.3579761000000001,10.305769999999999,-0.8646021
69163013233880,-1.3939015,10.303374,-0.94603276
69163033088985,-1.4489869,10.257869,-0.94603276
69163052952574,-1.4944923,10.305769999999999,-0.9316626
69163072807807,-1.4968873,10.289003999999998,-0.91729254
69163092663168,-1.4513819,10.181229,-0.9532178
69163112518401,-1.4178516,10.150093,-1.0657837
69163132373762,-1.4010864,10.212363,-1.1543995
69163152220723,-1.3939015,10.265054,-1.1472143999999997
69163172075956,-1.4058765,10.2315235,-1.0705738
69163191931040,-1.453777,10.221944,-1.0394385
69163211786273,-1.4992822000000001,10.214758999999999,-1.1663746000000002
69163231641506,-1.5136524,10.221944,-1.1855347
