UPTIMENANO,Ax,Ay,Az
69132992117277,0.062298235,-0.93751496,8.913403
69133011972766,-0.03523593,-0.1939442,9.856314
69133031821542,-0.13884763,0.17316157,10.446626
69133051677030,-0.14501859,0.3498642,10.49872
69133071532391,-0.45120582,0.1153686,9.767898
69133091394612,-0.16323528,-0.6877882,9.003096
69133111241498,0.6997199,-0.33901885,9.598107
69133131096603,1.1680038,0.4839643,10.363595
69133150951834,0.91130793,0.6361771,10.124797
69133170807066,0.33203864,1.265553,10.603368
69133190662299,0.5404627,-0.7161029,10.34011
69133210514891,-0.42102298,-0.069693044,8.278704
69133230369995,-0.84915835,1.2673782,10.111075
69133250225100,-0.8878057,0.4565907,12.142078
69133270080203,-0.78622496,0.52215177,11.582935
69133289935307,0.41121188,-1.4098347,9.478829
69133309790412,1.8424809,-4.0824,8.055523
69133329637963,0.75322217,-0.062943995,9.428658
69133349492939,-0.37280887,0.56874067,10.515343
69133369347916,-1.3626957,0.6973561,10.6410885
69133389202763,-1.371022,0.88706136,10.617497
69133409053539,-1.3265058,0.40896106,9.664972
69133428908388,-2.206761,-0.3419621,8.529654
69133448763107,-2.4481719,-0.6934452,8.082506
69133468617955,-2.009373,0.07820884,8.663386
69133488472804,-1.1807915,0.23676914,9.24897
69133508326889,-0.074385986,-0.8348115,9.268529
69133528181737,-0.87116104,-0.31739953,9.411174
69133548036458,-2.0272036,1.1456661,10.026855
69133567891177,-0.92788935,0.7107366,10.868271
69133587746025,0.06989965,2.0405848,11.0689745
69133607600746,1.7617965,-0.41499016,9.218375
69133627450235,0.25758335,-1.8213015,8.170622
69133647304955,-0.74253595,-0.40119419,9.967953
69133667159548,0.70775676,0.66813445,10.341694
69133687014139,2.8733308,0.51433825,10.99346
69133706876141,2.000295,-0.56283385,10.297384
69133726730990,-1.0123289,-0.48284498,8.8990555
69133746585709,-0.84391326,-0.14682356,9.606427
69133766440429,-0.02371169,-0.11663363,9.873987
69133786295150,-0.0030245085,-0.47406474,9.745591
69133806149997,0.72346634,-0.5095232,10.317703
69133826003181,0.6386679,-0.23814607,10.967332
69133845857902,0.23039886,0.04225157,10.702471
69133865712621,0.3645388,0.2785257,10.173866
69133885567341,-0.052687425,-0.42181566,9.418955
69133905422062,-0.6738248,-0.04652712,10.1469
69133925282336,-1.3560104,0.3786909,9.8634
69133945137056,-0.93404585,0.17156294,9.194918
69133964991905,0.118105456,0.3687398,8.902288
69133984846752,0.6183107,1.3958173,9.230824
69134004713011,0.11739413,0.9646983,9.926585
69134024567988,0.44223106,0.46469745,10.633298
69134044423091,0.44800237,-0.06473367,10.838743
69134064278067,-0.92251456,-0.49070802,9.09218
69134084133044,-2.935187,-0.8354532,5.68839
69134103988147,-1.579942,-1.9946296,4.7614765
69134123853776,-0.84279776,-0.67883795,5.5556655
69134143709137,-0.76977795,0.13540678,5.8455324
69134163564496,-1.4495424,0.60620403,6.21428
69134183419728,-1.7061002,1.6208342,6.9916363
69134203275089,-0.58735657,3.6498003,7.355112
69134223138244,-0.37869978,4.8393383,6.8637133
69134242993732,0.37962002,4.576326,7.4422584
69134262849221,2.1617446,2.484408,10.431288
69134282704580,2.0320158,1.4269,12.253624
69134302559647,0.75778276,3.9606044,12.366779
69134322415136,2.2821255,4.5525784,11.841299
69134342270623,3.116046,-1.5274321,12.100211
69134362126111,-0.70690143,-0.698949,11.520042
69134381981728,-1.4233273,-0.12937061,10.893791
69134401837215,-1.4514061,0.5431682,10.891105
69134421695336,-3.5492167,4.928269,8.142521
69134441550953,-6.6344852,15.108993,-8.920455
69134461406568,-5.73341,-6.5640817,-2.9728408
69134481262184,-8.332236,-10.390025,16.289871
69134501117801,-3.3682413,-6.0811033,8.517386
69134520979200,-6.8447547,-1.292968,7.525571
69134540835072,-4.9446754,-2.7118309,10.353521
69134560690817,-3.2061596,-2.428228,9.215129
69134580546688,-4.852587,-4.085923,9.661035
69134600401548,-5.604203,-3.0247,12.483001
69134620257421,-6.7582784,-3.1082993,12.296834
69134640113164,-7.425981,0.18716313,13.338159
69134659969036,-5.567017,1.9847678,13.443908
69134679824909,-5.1448483,2.0754402,12.143587
69134699680652,-2.8683884,3.1067336,11.288397
69134719536524,-3.0138144,3.5269344,13.770284
69134739394601,-1.2055025,3.9696467,15.239001
69134759250473,-0.8311532,4.591183,14.626983
69134779106345,0.5704602,2.2906303,12.363782
69134798962089,-1.1028475,-2.7821505,13.188612
69134818817961,0.97917,-4.7090364,15.2268305
69134838671486,-4.202154,-5.2832394,15.1961355
69134858527358,-4.3700957,2.22416,15.297062
69134878383230,-6.0880947,-1.7918372,13.513075
69134898239102,-4.3899384,1.6538385,12.327824
69134918094974,0.42325652,5.7434773,11.493357
69134937940630,2.0773637,3.2417169,14.534038
69134957796246,1.4812449,2.4412572,14.028247
69134977651862,2.0488858,2.2042155,11.480224
69134997507478,1.8498063,4.1060886,10.728094
69135017363222,2.2007585,1.2857192,7.020288
69135037211036,3.727126,1.4441401,5.167228
69135057066524,3.9476883,0.033640202,2.8433642
69135076922012,4.361054,-1.6613989,2.682347
69135096785104,1.0686241,0.32897258,4.783524
69135116640592,-0.883194,1.2309953,2.5642123
69135136468798,1.64766,4.104879,4.505194
69135156323774,0.82464993,6.858189,7.1693764
69135176178622,-0.15812153,4.831364,9.152949
69135196033598,0.5426389,5.177098,9.928389
69135215888574,-0.10120551,4.4896736,11.004179
69135235738040,-0.16139401,5.8216295,10.724867
69135255592760,0.43961817,3.7742102,8.265604
69135275447480,-2.0424354,-0.3426468,11.025092
69135295302200,-2.7398589,-2.4074204,11.741712
69135315156920,-2.069409,-5.1742625,18.999334
69135335010814,-3.542892,-4.7115088,17.699127
69135354865534,-4.7844224,-8.834666,17.798946
69135374720254,-0.9795293,-10.2253065,12.706241
69135394574974,1.1031227,-3.9706762,8.27031
69135414429694,1.1860267,-0.83646816,7.149345
69135434285897,-0.19893192,1.1265917,6.583243
69135454140489,0.028093398,-0.3527093,5.88291
69135473995081,3.9656665,3.8134234,0.49170354
69135493849673,4.4405737,2.8490741,2.8034356
69135513704265,3.2874928,3.8324509,2.7387695
69135533564105,0.68743473,3.7646296,1.9452347
69135553418697,-1.7581677,2.8277268,5.6785026
69135573273417,-1.7528092,2.2302814,11.351478
69135593128009,-2.421759,1.745511,15.215751
69135612982729,-2.8877666,-0.17180443,13.007576
69135632841752,-3.3809571,-5.5357347,8.657409
69135652696472,-3.164689,-2.8548079,13.9647045
69135672551192,-4.635047,-3.9720702,12.095487
69135692405912,-6.196689,-2.7724864,11.167734
69135712260632,-4.5332484,-0.81267965,11.714005
69135732126805,-5.598257,0.06474867,7.5537763
69135751981653,-6.208503,3.4191794,5.979458
69135771836629,-3.5056605,1.7709472,7.2660813
69135791691605,-2.4753742,3.1639612,14.673795
69135811546581,5.376633,-1.4550905,18.750734
69135831404659,7.605268,-6.2753515,16.614132
69135851259763,2.3278992,-3.4099846,14.969049
69135871114867,-0.43376884,-1.2766445,12.612288
69135890969971,-0.6967823,0.4391756,10.128293
69135910824947,0.98021597,1.7371631,8.652296
69135930683085,3.6152115,-1.8423101,7.938037
69135950538189,1.6712446,-2.0751395,6.8278456
69135970393293,0.1746537,-0.48563752,7.199883
69135990248397,2.1101484,-1.4886539,7.0807867
69136010103501,3.2151039,-2.3516722,4.854068
69136029968839,1.5499511,-0.81025654,2.6178727
69136049824199,-2.3824184,3.0567756,4.94946
69136069679559,-8.658743,10.797358,17.747044
69136089534791,-6.7522807,9.339609,19.022371
69136109390151,0.7602395,0.64365643,9.664269
69136129248534,1.7489663,-1.1313542,8.224152
69136149104022,4.012706,-0.18494795,9.332068
69136168959382,5.644221,-1.190717,5.4184833
69136188814870,5.538154,-1.3518738,6.4049335
69136208670358,1.0507687,2.2085,10.088026
69136228532939,-0.9233207,4.2063513,14.5474825
69136248388555,2.31093,-2.372843,12.627614
69136268244171,2.10866,-0.25313288,14.392614
69136288099787,1.8625196,5.133125,14.017505
69136307955403,-1.1517956,4.2759256,10.397448
69136327817732,-7.268499,-3.2103245,6.59889
69136347673604,-8.014995,-6.2700114,5.5441475
69136367529476,-4.4542284,-3.298834,7.2005105
69136387385348,-2.455198,-0.51374125,8.054378
69136407241220,0.8094863,2.5375366,9.429966
69136427098463,2.9328632,3.3879526,9.705689
69136446954463,4.7447114,3.2035644,10.3686075
69136466810463,5.2873425,0.85091037,10.804227
69136486666463,5.0375805,-2.995526,9.333012
69136506522463,4.7640314,-2.6216989,8.176482
69136526383551,2.3926716,-0.65366036,8.764599
69136546239679,0.15405136,0.15224257,9.597732
69136566095807,-0.023477493,0.5196415,9.976975
69136585951935,0.4485261,0.69464016,10.282972
69136605808191,0.6544823,0.56561166,10.466316
69136625666616,0.7863718,-0.60939485,10.685049
69136645522872,-0.20260814,0.13307779,10.034578
69136665379128,-0.09622984,1.1362474,9.544384
69136685235384,0.79628813,1.2708477,9.563007
69136705091640,0.94119734,0.80417037,9.702196
69136724939826,0.9055673,0.027117368,9.836741
69136744795698,1.134502,-0.1925183,9.72424
69136764651698,1.4440054,-0.14024374,9.632927
69136784507570,1.4095973,0.03608129,9.736657
69136804363442,1.0667361,0.10219451,9.664895
69136824216784,0.53405106,0.26779598,9.551733
69136844072656,0.24616662,0.47967267,9.627906
69136863928528,0.47494078,0.5380233,9.631131
69136883784400,0.80983406,0.49647504,9.732993
69136903640272,0.53446704,0.030501923,9.905789
69136923494814,0.40899146,-0.21087009,9.955535
69136943350558,0.71667135,-0.0017741688,9.592675
69136963206430,0.5008522,0.37249446,9.859675
69136983062174,0.2870764,0.51385087,9.7627325
69137002918046,0.31881306,0.35651395,9.5992155
69137022765567,0.8899005,-0.03041965,9.594665
69137042621183,1.6180167,0.27607048,9.84388
69137062476927,1.2428843,0.31668583,9.981289
69137082332543,0.5892767,0.25433493,9.748445
69137102194939,0.5479079,0.5406758,9.601169
69137122044886,0.6965059,0.647734,9.66959
69137141900374,0.742448,0.3764021,9.660584
69137161755990,0.7644394,0.20550431,9.704642
69137181611606,0.7970265,0.29690298,9.739515
69137201467094,0.7569586,0.45555356,9.689274
69137221319577,0.60395885,0.4649406,9.664731
69137241174937,0.5207167,0.4329153,9.642369
69137261030425,0.63058794,0.48723993,9.621555
69137280885913,0.7970314,0.5258272,9.571015
69137300741401,0.67633826,0.57458293,9.529485
69137320576889,0.4737944,0.52409285,9.480223
69137340431993,0.3380795,0.48095036,9.477862
69137360287097,0.34842885,0.54039484,9.538325
69137380142201,0.36942667,0.5454919,9.5803385
69137399997305,0.4109915,0.47916976,9.590662
69137419856852,0.41264242,0.33854902,9.568983
69137439711956,0.36479375,0.24642996,9.565368
69137459567060,0.39270082,0.22172008,9.640123
69137479422164,0.48163015,0.23854451,9.642709
69137499277268,0.51974285,0.22581632,9.537253
69137519134511,0.50594795,0.16482894,9.470041
69137538989615,0.50404,0.17873389,9.472418
69137558844719,0.52792174,0.17741272,9.5239315
69137578699823,0.5334715,0.26797834,9.478708
69137598554927,0.5460808,0.30001155,9.453406
69137618410706,0.584143,0.29205683,9.489961
69137638265810,0.6102649,0.3006343,9.505219
69137658120914,0.52759874,0.29401138,9.513505
69137677976018,0.4533672,0.2882982,9.48795
69137697831250,0.49179813,0.26058057,9.442855
69137717686354,0.52243936,0.19467571,9.403031
69137737541117,0.46454108,0.15287602,9.372359
69137757396222,0.47602347,0.25408578,9.350772
69137777251199,0.5392345,0.36945713,9.360918
69137797106304,0.52964896,0.40993854,9.397342
69137816961404,0.48077646,0.43697178,9.383781
69137836816756,0.4645114,0.4484383,9.375428
69137856671860,0.45971352,0.38758883,9.337776
69137876526836,0.49957302,0.39532766,9.278305
69137896381940,0.56679344,0.45292345,9.250451
69137916237044,0.58720404,0.48246396,9.247282
69137936096646,0.53907955,0.3966488,9.263047
69137955951750,0.5006118,0.28598607,9.240344
69137975806854,0.500193,0.299036,9.168975
69137995662086,0.5405751,0.33036706,9.179264
69138015517190,0.5527176,0.33601072,9.261535
69138035377663,0.5339853,0.33872655,9.287466
69138055232896,0.4470402,0.26603338,9.263528
69138075088127,0.43002948,0.24396878,9.227358
69138094943231,0.5259936,0.32950544,9.152797
69138114798463,0.5501211,0.37438634,9.169098
69138134658362,0.53040546,0.24492583,9.213527
69138154513594,0.54671276,0.13204004,9.2147045
69138174368954,0.60227704,0.14889024,9.224731
69138194224314,0.6057311,0.22485343,9.187489
69138214079547,0.5746109,0.28998616,9.144206
69138233939800,0.5301123,0.24535422,9.158072
69138253795158,0.564117,0.203461,9.173173
69138273650647,0.6615325,0.17887442,9.190147
69138293506008,0.6489393,0.15374297,9.150994
69138313361497,0.63565856,0.1865788,9.147375
69138333223646,0.6430965,0.2405136,9.176728
69138353079258,0.67027795,0.2742696,9.187581
69138372935002,0.65703803,0.30361667,9.185219
69138392790618,0.6202469,0.31916612,9.180387
69138412648048,0.57210225,0.34358197,9.160919
69138432506931,0.53183687,0.37948284,9.143052
69138452362676,0.53491074,0.43262503,9.14338
69138472218421,0.53148097,0.44218835,9.147533
69138492074166,0.51016426,0.44830927,9.160035
69138511929911,0.44698444,0.41869652,9.163618
69138531789810,0.40546745,0.34718516,9.142064
69138551645683,0.41091144,0.2875437,9.11815
69138571501556,0.47035077,0.30409923,9.166425
69138591357557,0.52163357,0.30226466,9.210256
69138611213430,0.51513314,0.24023452,9.143288
69138631069635,0.46826383,0.1911342,9.108518
69138650925508,0.46895835,0.16041575,9.164657
69138670781509,0.4712818,0.20767747,9.215218
69138690637382,0.4487115,0.24282877,9.205405
69138710493383,0.44538894,0.22605006,9.15703
69138730349310,0.52264637,0.21097137,9.1796
69138750205311,0.62219995,0.21314436,9.171179
69138770061312,0.6182576,0.26911548,9.128797
69138789917185,0.5207608,0.2834118,9.107887
69138809773186,0.4859138,0.27571085,9.073349
69138829632427,0.5384128,0.23154575,9.091345
69138849488556,0.59807897,0.1938952,9.158287
69138869344557,0.61338663,0.23877306,9.158745
69138889200665,0.5455918,0.28283077,9.161519
69138909056794,0.47444355,0.27290246,9.180877
69138928903495,0.47424617,0.24632488,9.186669
69138948759240,0.5375393,0.25654998,9.175337
69138968614985,0.5703914,0.29133487,9.177616
69138988470730,0.5532456,0.30526966,9.161748
69139008326475,0.48955363,0.29120284,9.187127
69139028184102,0.44744805,0.29878697,9.174939
69139048039975,0.4788371,0.30668503,9.105304
69139067895848,0.5470366,0.2888543,9.099096
69139087751593,0.5633162,0.23215932,9.125705
69139107607466,0.5564134,0.18473881,9.143574
69139127458949,0.54118407,0.16344075,9.1344595
69139147314694,0.5147007,0.1737795,9.106724
69139167170439,0.53922665,0.20382483,9.150349
69139187026184,0.5889042,0.22898221,9.20805
69139206881929,0.5769093,0.2432418,9.21365
69139226727810,0.49159923,0.23203978,9.204898
69139246583299,0.39334577,0.23350127,9.189442
69139266438916,0.3857192,0.2821522,9.160878
69139286294405,0.47484222,0.29217505,9.132665
69139306150022,0.47102723,0.22165552,9.156555
69139326001573,0.51405954,0.19782469,9.151668
69139345856934,0.47879446,0.22470689,9.1490345
69139365712401,0.39378554,0.23219176,9.152751
69139385567890,0.46278864,0.24442983,9.1290655
69139405423379,0.50233436,0.23985623,9.132204
69139425270510,0.48970595,0.1949654,9.143661
69139445125743,0.46489084,0.17557292,9.1429615
69139464980976,0.4656476,0.18840753,9.137509
69139484836209,0.48941094,0.18323301,9.17597
69139504691442,0.501396,0.19590135,9.162216
69139524546029,0.5041882,0.1919319,9.132216
69139544401262,0.47125378,0.19831112,9.106892
69139564256495,0.44692773,0.23567997,9.13888
69139584111728,0.47484037,0.20504554,9.153754
69139603966833,0.5199613,0.18859893,9.15707
69139623822066,0.5133406,0.18285917,9.239434
69139643674099,0.5105232,0.1874375,9.310842
69139663529332,0.4681104,0.15394951,9.275569
69139683384437,0.49649993,0.16616753,9.233575
69139703239542,0.49082103,0.18593125,9.215135
69139723094775,0.49712756,0.20293245,9.217104
69139742955988,0.47434458,0.16975616,9.296813
69139762811221,0.49595663,0.15993685,9.286164
69139782666454,0.51936156,0.17663105,9.247702
69139802521687,0.5254607,0.19398256,9.247313
69139822376920,0.5166004,0.20237736,9.246905
69139842233709,0.5057087,0.16283213,9.302751
69139862088942,0.4980768,0.14280497,9.366069
69139881944175,0.5002218,0.15592623,9.336233
69139901799408,0.49733752,0.2279878,9.335034
69139921654641,0.4885026,0.2203429,9.327384
69139941515652,0.51506215,0.14645477,9.367549
69139961371013,0.51265687,0.10949547,9.362272
69139981226374,0.49658236,0.109572336,9.290785
69140001081735,0.47960502,0.20000653,9.312994
69140020937096,0.52165014,0.23599857,9.365682
69140040797119,0.5447077,0.17047912,9.429272
69140060652608,0.53542143,0.10394208,9.471247
69140080507969,0.522214,0.12664971,9.466058
69140100363458,0.5423143,0.17829037,9.445225
69140120218819,0.509427,0.18647283,9.442038
69140140078142,0.5181425,0.19112033,9.446821
69140159933631,0.52299815,0.19514349,9.466435
69140179789120,0.5182463,0.18322968,9.465084
69140199644609,0.55220735,0.20202607,9.494057
69140219500098,0.57166475,0.19058238,9.539257
69140239361657,0.5665394,0.15878728,9.544708
69140259217274,0.5629433,0.16354975,9.523858
69140279072891,0.52440256,0.16002569,9.52915
69140298928508,0.52027845,0.1694459,9.545492
69140318784103,0.54963225,0.1787173,9.534569
69140338635746,0.58304954,0.22214478,9.547803
69140358491363,0.5935649,0.22939813,9.637882
69140378346852,0.5522768,0.1753793,9.648069
69140398202469,0.5590486,0.15960047,9.640272
69140418058086,0.59223324,0.21941796,9.65839
69140437921053,0.60908353,0.22461249,9.638238
69140457776798,0.57498956,0.26362875,9.634873
69140477632543,0.5578027,0.2981456,9.607483
69140497488288,0.60329133,0.26376387,9.627547
69140517344161,0.58009756,0.19740625,9.66591
69140537209494,0.60909367,0.18225376,9.680555
69140557065623,0.62305385,0.22169398,9.682755
69140576921624,0.63335544,0.23777431,9.691529
69140596777625,0.61916834,0.2371094,9.704828
69140616633626,0.59074146,0.21159117,9.698675
69140636483531,0.5820572,0.21328956,9.697261
69140656339532,0.6064069,0.26546228,9.707729
69140676195405,0.5879237,0.24703127,9.701756
69140696051406,0.5553823,0.21943618,9.685933
69140715907407,0.5797829,0.23952955,9.681913
69140735760768,0.6693988,0.25700057,9.683928
69140755616769,0.66873604,0.263203,9.699488
69140775472642,0.6024118,0.26638305,9.700925
69140795328623,0.540777,0.25335443,9.731138
69140815184496,0.5059619,0.22113745,9.7683
69140835035821,0.5505548,0.22477913,9.774645
69140854891566,0.60825706,0.25142005,9.744368
69140874747439,0.5931781,0.25489643,9.707321
69140894603312,0.5490914,0.21332334,9.668566
69140914459057,0.54371405,0.2363429,9.69676
69140934318434,0.5667731,0.27338392,9.705095
69140954174307,0.5863339,0.2849114,9.700229
69140974030180,0.55560166,0.24842554,9.743687
69140993886053,0.53833085,0.22154638,9.748505
69141013738914,0.53206736,0.2710924,9.736968
69141033594659,0.52762264,0.30025074,9.758699
69141053450532,0.55523396,0.26636037,9.72694
69141073306277,0.57803684,0.21481913,9.731866
69141093162022,0.55576605,0.1815278,9.755614
69141113017895,0.54282856,0.21657667,9.759523
69141132869638,0.49202883,0.2527871,9.737767
69141152725255,0.46160144,0.21653666,9.722905
69141172581000,0.5087639,0.19023997,9.746453
69141192436745,0.5531907,0.17365,9.761961
69141212292362,0.57147634,0.18093418,9.739563
69141232140997,0.50273705,0.17408285,9.7275715
69141251996486,0.45334148,0.1906064,9.734363
69141271851955,0.47016641,0.2118406,9.721457
69141291707444,0.53176045,0.2145894,9.748049
69141311562933,0.54287565,0.21837983,9.781661
69141331418422,0.49060726,0.17445636,9.745705
69141351264359,0.43984273,0.16769935,9.724856
69141371119720,0.48607436,0.22239357,9.733778
69141390974953,0.5496473,0.21803196,9.739697
69141410830314,0.55039823,0.19305044,9.757796
69141430683175,0.48208308,0.17400125,9.724512
69141450538408,0.4613004,0.18241887,9.7446
69141470393641,0.51592493,0.18980007,9.750619
69141490248874,0.5568592,0.17008194,9.76354
69141510104107,0.54640704,0.14465815,9.748531
69141529962594,0.5355305,0.146863,9.720649
69141549817827,0.5072034,0.16276738,9.73522
69141569673188,0.48523948,0.18597898,9.747887
69141589528421,0.47185603,0.21538308,9.743707
69141609383654,0.49512622,0.21819113,9.717776
69141629239015,0.5654866,0.1935082,9.734664
69141649089950,0.5709683,0.13173603,9.793065
69141668945055,0.5121942,0.14981481,9.810631
69141688800288,0.44311854,0.16724403,9.785261
69141708655521,0.44445008,0.17722434,9.764752
69141728515228,0.53313315,0.2039876,9.739063
69141748370569,0.57660156,0.21272962,9.734113
69141768225802,0.5790105,0.21580654,9.702762
69141788081035,0.51336473,0.2236723,9.673241
69141807936396,0.4851981,0.22199209,9.702199
69141827789251,0.51646453,0.22991304,9.734654
69141847644612,0.56487066,0.21694481,9.738198
69141867499845,0.5775032,0.19709142,9.758447
69141887355078,0.5458069,0.16355214,9.770832
69141907210311,0.5106863,0.17739248,9.76382
69141927065544,0.50960886,0.18429576,9.774662
69141946920741,0.5367705,0.17864284,9.771437
69141966775974,0.5368622,0.14141253,9.734305
69141986631207,0.5141473,0.18960564,9.728873
69142006486312,0.58763427,0.2731152,9.710513
69142026350871,0.5717793,0.28675047,9.730944
69142046206232,0.56339425,0.23543714,9.728923
69142066061721,0.50681436,0.13199784,9.75742
69142085917082,0.51399094,0.14244592,9.74619
69142105772443,0.54304576,0.18929827,9.770037
69142125627804,0.4850013,0.14912196,9.810487
69142145492301,0.54894155,0.15768705,9.764826
69142165347918,0.5627195,0.19686906,9.723255
69142185203535,0.5267266,0.16099477,9.682205
69142205059152,0.5463382,0.14044298,9.6628475
69142224914748,0.56412745,0.1432998,9.715179
69142244771949,0.5657351,0.17257553,9.7485485
69142264627566,0.5049293,0.17357631,9.754037
69142284483183,0.46196344,0.16078559,9.763204
69142304338800,0.5118769,0.16653237,9.711065
69142324190375,0.5643562,0.1762231,9.712756
69142344045992,0.56033003,0.15536718,9.736747
69142363901481,0.5570036,0.1724709,9.724996
69142383757098,0.4856508,0.18829867,9.857564
69142403612587,0.4743914,0.16668846,9.89666
69142423468076,0.533511,0.14369382,9.798129
69142443325265,0.51181054,0.1877231,9.740952
69142463180754,0.49055043,0.19958103,9.715415
69142483036371,0.5030227,0.18188132,9.755438
69142502891988,0.5091764,0.13327147,9.703934
69142522747477,0.5684705,0.19373064,9.688259
69142542612118,0.5249572,0.23945329,9.718312
69142562467991,0.49873826,0.20888594,9.757395
69142582323736,0.4581382,0.14805576,9.710611
69142602179609,0.47476554,0.14271246,9.703497
69142622033854,0.4859494,0.18157962,9.754463
69142641889727,0.5027845,0.14502423,9.818038
69142661745600,0.47317052,0.11191466,9.79385
69142681601345,0.47731602,0.1357681,9.772723
69142701457198,0.52780664,0.17949721,9.786933
69142721313071,0.5496726,0.20199244,9.732452
69142741172424,0.48441005,0.20281161,9.704282
69142761028297,0.48550323,0.19136569,9.712208
69142780884298,0.5423043,0.20278275,9.725926
69142800740171,0.5414285,0.1715195,9.762678
69142820596172,0.47832096,0.14310125,9.746989
69142840446591,0.459206,0.15264942,9.725782
69142860302464,0.46886414,0.13650751,9.732259
69142880158337,0.5306749,0.14283988,9.7010355
69142900014210,0.58243865,0.119113676,9.719701
69142919870083,0.5548274,0.15300392,9.751461
69142939725956,0.47932833,0.19127107,9.80266
69142959575515,0.39355707,0.14810492,9.83538
69142979431260,0.43379697,0.14367454,9.826326
69142999286877,0.5375117,0.18058941,9.781382
69143019142622,0.54856414,0.18711913,9.77409
69143038995149,0.49341524,0.16594426,9.734472
69143058850894,0.44573835,0.15151916,9.68548
69143078706511,0.42049873,0.15975541,9.671906
69143098562128,0.4786686,0.20988382,9.679102
69143118417745,0.52992976,0.19020662,9.693551
69143138269516,0.5333793,0.12678742,9.705706
69143158125133,0.5079231,0.13144018,9.7499485
69143177980600,0.48563263,0.15200455,9.75739
69143197836217,0.48682556,0.1819813,9.78604
69143217691706,0.49250445,0.16221742,9.8044815
69143237547323,0.47741982,0.12787746,9.790986
69143257393108,0.46098408,0.12198194,9.815858
69143277248469,0.48236334,0.1285526,9.810095
69143297103830,0.49094373,0.1501757,9.759084
69143316959063,0.5176143,0.20877337,9.738707
69143336809730,0.5563973,0.1844104,9.702518
69143356664963,0.54172146,0.11155349,9.717294
69143376520196,0.46896562,0.07234928,9.70328
69143396375429,0.4649921,0.106543645,9.691694
69143416230534,0.49438894,0.16693144,9.705369
69143436077613,0.53890955,0.16937886,9.730987
69143455932590,0.5690713,0.12854414,9.768453
69143475787567,0.50396943,0.096347876,9.788834
69143495642544,0.46311724,0.09033257,9.764794
69143515497521,0.4790839,0.16289024,9.786316
69143535352498,0.48144796,0.22043176,9.780069
69143555212181,0.4877583,0.18811984,9.779578
69143575067158,0.4398274,0.1413802,9.774419
69143594922263,0.4801647,0.13753562,9.704684
69143614777240,0.52649397,0.17738467,9.687088
69143634633137,0.54700303,0.1905083,9.694527
69143654488093,0.5244683,0.16726112,9.719789
69143674343198,0.48165697,0.11450047,9.732729
69143694198175,0.48161578,0.13508265,9.721206
69143714053280,0.51584655,0.18165104,9.725114
69143733908257,0.52596647,0.16661143,9.758448
69143753767090,0.47725934,0.14546195,9.776598
69143773622195,0.46529,0.12825102,9.809119
69143793477300,0.47990713,0.13910332,9.785142
69143813332405,0.5038146,0.1517486,9.750895
69143833187510,0.5435111,0.15651834,9.760268
69143853041633,0.56377584,0.12583047,9.785527
69143872896738,0.5510142,0.16961387,9.754263
69143892751843,0.46669927,0.1926728,9.711622
69143912607076,0.4679526,0.17907347,9.699772
69143932459287,0.57423747,0.15518805,9.740358
69143952314264,0.60273117,0.12865366,9.784956
69143972169241,0.5741911,0.10709215,9.820717
69143992024346,0.5035197,0.12458535,9.8173685
69144011879323,0.4611601,0.115285784,9.814848
69144031734300,0.5207341,0.14572737,9.850591
69144051595007,0.5987263,0.15650246,9.769999
69144071450112,0.55773866,0.16746297,9.690163
69144091305217,0.48140785,0.1817258,9.61635
69144111160322,0.5028182,0.21007304,9.579793
69144131015405,0.5723712,0.20463456,9.616623
69144150873880,0.6115027,0.18533067,9.649207
69144170729113,0.57059395,0.17357844,9.663207
69144190584346,0.48224363,0.15641673,9.7389
69144210439579,0.47294372,0.15068993,9.809348
69144230295744,0.5371917,0.15403467,9.889265
69144250150977,0.559234,0.13897191,9.902105
69144270006210,0.534368,0.16708937,9.88173
69144289861443,0.48354065,0.16307174,9.819977
69144309716676,0.5163806,0.16851707,9.766863
69144329571909,0.55329406,0.1966211,9.711895
69144349433074,0.5865076,0.2219476,9.651978
69144369288435,0.5879683,0.20799772,9.642488
69144389143924,0.5469755,0.15028018,9.654531
69144408999285,0.5398966,0.12498677,9.639246
69144428854646,0.5896152,0.12956189,9.708468
69144448712849,0.6039589,0.1465246,9.746184
69144468568210,0.56254375,0.18813442,9.75843
69144488423699,0.46845207,0.17804493,9.808944
69144508279188,0.47628585,0.1290438,9.839866
69144528134677,0.49038526,0.10219491,9.895401
69144547990038,0.5422798,0.15709881,9.869831
69144567850427,0.5430324,0.23467766,9.832675
69144587706044,0.48645785,0.19991615,9.769292
69144607561512,0.4626985,0.15577753,9.72837
69144627417129,0.5067669,0.16105644,9.666954
69144647273934,0.57579136,0.20656808,9.638483
69144667129551,0.56599844,0.20882405,9.64454
69144686985168,0.5657287,0.18105213,9.669604
69144706840785,0.5417272,0.14936967,9.693743
69144726696402,0.51966006,0.14961019,9.756477
69144746552019,0.5081521,0.14893238,9.781691
69144766409976,0.5050646,0.1566005,9.809835
69144786265721,0.46065384,0.15321702,9.847259
69144806121338,0.44424918,0.16909823,9.841335
69144825977083,0.46256003,0.16034302,9.811694
69144845832828,0.5012766,0.17260179,9.771227
69144865689189,0.55074406,0.17270377,9.710998
69144885544934,0.58459556,0.17700545,9.711094
69144905400679,0.5641997,0.14449428,9.695907
69144925256296,0.5549092,0.14270145,9.706177
69144945106641,0.5105961,0.12447276,9.717085
69144964962258,0.48476,0.11772084,9.689186
69144984817875,0.5183314,0.15204023,9.637865
69145004673492,0.54016304,0.15577918,9.719136
69145024529109,0.5617969,0.14837179,9.772036
69145044384726,0.52210665,0.15055642,9.807442
69145064236991,0.46125054,0.15277451,9.895748
69145084092459,0.48306364,0.1356503,9.842682
69145103947948,0.52454686,0.15997924,9.779461
69145123803437,0.5202095,0.16279525,9.748666
69145143659054,0.55586976,0.1736371,9.773877
69145163508125,0.53394717,0.1608358,9.83223
69145183363486,0.52792996,0.13318168,9.787337
69145203218975,0.56411165,0.14784239,9.696411
69145223074336,0.56054276,0.20826402,9.681391
69145242926657,0.52614194,0.19077705,9.689107
69145262782018,0.5082747,0.14890961,9.6796
69145282637251,0.5198511,0.18466407,9.67174
69145302492612,0.56160694,0.24673994,9.733188
69145322347973,0.54870486,0.22339047,9.772171
69145342203334,0.5306832,0.20606194,9.793055
69145362053175,0.53127956,0.23648109,9.773214
69145381908408,0.54449874,0.25854397,9.799633
69145401763769,0.55544186,0.21971738,9.831794
69145421619002,0.51627326,0.21028997,9.785227
69145441474235,0.5173975,0.22062074,9.762358
69145461328614,0.5520996,0.2567944,9.767111
69145481183847,0.5178119,0.23535076,9.732914
69145501038952,0.47875062,0.18415047,9.667983
69145520894185,0.4729057,0.18368246,9.658705
69145540749290,0.4987479,0.19738902,9.731381
69145560604501,0.5230075,0.1812111,9.7292795
69145580466950,0.50822383,0.18098874,9.694089
69145600322183,0.4781255,0.18822232,9.765859
69145620177544,0.4584103,0.21666454,9.766951
69145640032777,0.49340153,0.24218538,9.728782
69145659881836,0.53549725,0.261529,9.732815
69145679737069,0.56286645,0.24009487,9.766116
69145699592174,0.5728456,0.1887838,9.801369
69145719447407,0.46680346,0.15392056,9.798214
69145739302512,0.44181803,0.17904049,9.774974
69145759160731,0.4793222,0.18431655,9.757881
69145779015964,0.5087423,0.17239727,9.7170725
69145798871197,0.56754357,0.20997746,9.705335
69145818726302,0.5401962,0.24925448,9.701416
69145838581535,0.46013084,0.2574145,9.724242
69145858436768,0.4176516,0.26054826,9.684692
69145878287819,0.46245205,0.2484086,9.727563
69145898142796,0.50894195,0.25524244,9.758519
69145917997901,0.54583013,0.2839552,9.74496
69145937853006,0.53756624,0.3073381,9.758879
69145957708921,0.4833879,0.29017112,9.795114
69145977564026,0.45759913,0.2697912,9.82352
69145997419131,0.46346945,0.25421965,9.825552
69146017274236,0.4766355,0.26752505,9.785053
69146037129322,0.489522,0.27998608,9.761468
69146056986277,0.4874493,0.2680594,9.772032
69146076841510,0.4842617,0.24973586,9.745287
69146096696615,0.50663036,0.25275123,9.729189
69146116551720,0.4995848,0.3055021,9.730348
69146136406825,0.51802707,0.32908416,9.758963
69146156262058,0.48560506,0.30448672,9.746007
69146176120923,0.4981904,0.2982611,9.709951
69146195976156,0.5475097,0.3298563,9.724893
69146215831389,0.52692443,0.36485162,9.739189
69146235686622,0.48658663,0.39955792,9.740593
69146255541797,0.49287155,0.38328564,9.747346
69146275397030,0.5335303,0.31341013,9.774717
69146295252263,0.53353417,0.26409698,9.772257
69146315107496,0.4714437,0.2723515,9.786226
69146334962729,0.4799383,0.35359028,9.78296
69146354817962,0.4990588,0.39728922,9.746452
69146374671469,0.50040996,0.3534137,9.742249
69146394526702,0.5399908,0.3213034,9.7121315
69146414381935,0.5546903,0.2909915,9.711201
69146434237168,0.47267136,0.3056533,9.713291
69146454092401,0.48068288,0.3370853,9.722115
69146473950214,0.5469507,0.3281681,9.758718
69146493805447,0.55012083,0.2639049,9.787784
69146513660786,0.53853816,0.22119603,9.750865
69146533516147,0.5180096,0.24649726,9.761286
69146553365742,0.5170884,0.30056027,9.75481
69146573220975,0.50776076,0.2700364,9.751098
69146593076208,0.46899137,0.23358901,9.758813
69146612931441,0.4831061,0.23305932,9.764786
69146632786546,0.52120084,0.23093858,9.751404
69146652641779,0.5458555,0.26791567,9.737716
69146672500254,0.55247873,0.31449193,9.736758
69146692355487,0.49435574,0.28159755,9.717535
69146712210848,0.45231685,0.23712915,9.743791
69146732066081,0.47795913,0.18342142,9.740855
69146751921442,0.524615,0.22591777,9.728483
69146771782277,0.55649304,0.2905772,9.691538
69146791637638,0.5362443,0.28586075,9.753376
69146811492999,0.48461384,0.22091275,9.777432
69146831348360,0.500547,0.23085693,9.748345
69146851198955,0.53348124,0.23990847,9.739505
69146871054188,0.54487,0.22215767,9.74559
69146890909421,0.55323386,0.2247665,9.78656
69146910764654,0.4466737,0.18306352,9.794588
69146930619887,0.44382432,0.2275888,9.760133
69146950475248,0.5166679,0.27887577,9.739476
69146970322197,0.5494671,0.28947228,9.709003
69146990177281,0.5914689,0.2897787,9.7029295
69147010032258,0.55396485,0.28450245,9.720022
69147029887363,0.5316212,0.2808785,9.694713
69147049742340,0.5113097,0.27890152,9.715646
69147069588047,0.53943574,0.27030203,9.743494
69147089442896,0.6011586,0.26455158,9.746941
69147109297745,0.6161279,0.24658068,9.75511
69147129152594,0.5434408,0.2270223,9.792616
69147149007443,0.4942624,0.21626759,9.809921
69147168862292,0.49552175,0.22505349,9.808684
69147188721151,0.500776,0.2483494,9.7800865
69147208576128,0.55658716,0.29418343,9.735811
69147228431105,0.5417879,0.28307292,9.716019
69147248286082,0.50147945,0.25242656,9.707719
69147268141229,0.50874996,0.2819119,9.706597
69147287996078,0.5593227,0.29990774,9.709687
69147307851055,0.5849044,0.3052071,9.713088
69147327705904,0.57137096,0.29440573,9.771003
69147347560881,0.5251861,0.25694564,9.750054
69147367420892,0.48608986,0.23328197,9.71838
69147387275997,0.5152052,0.22112727,9.735891
69147407130974,0.6230563,0.26253068,9.764161
69147426986079,0.63425905,0.29383484,9.728937
69147446841056,0.54303765,0.30335557,9.740795
69147466696140,0.5005273,0.28471282,9.7320385
69147486551867,0.5236786,0.25366154,9.771573
69147506406844,0.58336973,0.23083311,9.76294
69147526261821,0.6263198,0.24816649,9.735007
69147546116926,0.588178,0.24848406,9.726252
69147565970165,0.56698054,0.2576026,9.74162
69147585825142,0.5404939,0.28639257,9.784677
69147605680247,0.5238799,0.23092578,9.763318
69147625535224,0.51148003,0.23438914,9.738187
69147645390201,0.54032135,0.27463755,9.714895
69147665247782,0.5961015,0.2986949,9.701417
69147685102759,0.63042414,0.29260212,9.702358
69147704957864,0.62245953,0.26297325,9.715672
69147724812841,0.56612635,0.2596129,9.773588
69147744667946,0.540987,0.27840984,9.849069
69147764523051,0.5598415,0.26045436,9.801
69147784388176,0.59209126,0.25786558,9.77834
69147804243537,0.5841323,0.2660531,9.768103
69147824098770,0.5650117,0.23778519,9.770445
69147843954003,0.55329406,0.1966211,9.711895
69147863805660,0.5982661,0.25796035,9.687887
69147883660893,0.60916984,0.32684526,9.687434
69147903515998,0.60291636,0.33403268,9.718216
69147923371231,0.5625865,0.27011248,9.714698
69147943226442,0.5686856,0.2874643,9.714309
69147963081675,0.57546896,0.331887,9.693574
69147982941678,0.56021476,0.29576665,9.760033
69148002796911,0.6061964,0.26883292,9.810325
69148022652272,0.614597,0.3310347,9.7969475
69148042507505,0.5568122,0.3609891,9.770016
69148062362866,0.5208038,0.31422624,9.744361
69148082216033,0.5241812,0.2496126,9.775787
69148102071266,0.53984463,0.23178498,9.771765
69148121926499,0.5987963,0.29413956,9.732098
69148141781732,0.5653026,0.3142616,9.706433
69148161637515,0.55694485,0.31860745,9.710242
69148181492748,0.5581105,0.29292494,9.733061
69148201347981,0.5854735,0.26453644,9.721582
69148221203342,0.5633119,0.27660158,9.705876
69148241058575,0.5244664,0.28827286,9.735326
69148260913808,0.52339864,0.28367916,9.720155
69148280779829,0.5417216,0.3042637,9.745906
69148300635318,0.5648571,0.27775505,9.766672
69148320490807,0.557002,0.2780518,9.774696
69148340346296,0.52571046,0.27073935,9.783651
69148360201785,0.50865275,0.26589528,9.801442
69148380065758,0.5303587,0.2751131,9.800904
69148399921631,0.5571994,0.30462924,9.768904
69148419777354,0.5548783,0.31363517,9.765584
69148439633099,0.54087096,0.27239177,9.741248
69148459488844,0.5158072,0.2893627,9.6925
69148479344589,0.54779303,0.29681808,9.671355
69148499197298,0.60280675,0.31953797,9.689339
69148519053043,0.57971257,0.31003365,9.714261
69148538908788,0.52391684,0.27508783,9.743137
69148558764533,0.4998275,0.24675332,9.76778
69148578619492,0.51623183,0.24630308,9.739538
69148598475237,0.5540375,0.2548352,9.76908
69148618330982,0.5592354,0.25696298,9.812688
69148638186727,0.53259164,0.28488627,9.770565
69148658042472,0.48018062,0.3257033,9.752063
69148677893435,0.49243942,0.30139953,9.744948
69148697748924,0.53781843,0.25252318,9.7361355
69148717604541,0.571306,0.2254467,9.717023
69148737460030,0.55950856,0.2662836,9.71683
69148757315647,0.5397933,0.2947261,9.717924
69148777171264,0.5152795,0.29402027,9.729694
69148797027129,0.5231602,0.26225305,9.7485895
69148816882746,0.56311065,0.2839064,9.748296
69148836738235,0.5953977,0.31004867,9.739619
69148856593852,0.5817035,0.33226284,9.748981
69148876446629,0.54388833,0.33522755,9.745453
69148896302225,0.5424316,0.29986438,9.7524805
69148916157714,0.5374723,0.28830096,9.74877
69148936013203,0.5400223,0.31221825,9.749666
69148955868820,0.5531632,0.3261322,9.750578
69148975716349,0.52969545,0.3121775,9.7481365
69148995571710,0.53082955,0.29558027,9.733422
69149015427071,0.54366916,0.29080746,9.721864
69149035282432,0.5525255,0.33172598,9.72473
69149055137921,0.56209564,0.3189322,9.731711
69149074993282,0.5378712,0.2921426,9.734722
69149094837733,0.5358395,0.27506456,9.722644
69149114692966,0.5456541,0.29065138,9.74597
69149134548071,0.5747343,0.32146415,9.762572
69149154403304,0.5411625,0.30257556,9.779729
69149174248919,0.5379907,0.27970934,9.771752
69149194103896,0.49954772,0.26134017,9.750527
69149213958873,0.50625294,0.28218308,9.73845
69149233813722,0.55257285,0.31809843,9.781032
69149253668699,0.5746872,0.3196609,9.740437
69149273523676,0.53672135,0.3132823,9.730671
69149293381889,0.500672,0.27167085,9.727659
69149313236866,0.52250725,0.24152766,9.772304
69149333091715,0.5702155,0.2622985,9.824666
69149352946692,0.5456291,0.27582917,9.821544
69149372801647,0.5050464,0.31301668,9.738276
69149392658324,0.47981647,0.3097559,9.6986885
69149412513301,0.49199712,0.2773032,9.666067
69149432368278,0.56103146,0.29588702,9.64575
69149452223383,0.5841318,0.31234583,9.665607
69149472080038,0.5250156,0.316889,9.693348
69149491935015,0.52134335,0.35433945,9.728395
69149511789992,0.56237155,0.35365856,9.751426
69149531644969,0.53837013,0.321976,9.775564
69149551499946,0.51814073,0.29426575,9.785378
69149571354923,0.48101988,0.28194273,9.803822
69149591205898,0.4833879,0.29017112,9.795114
69149611060875,0.50647235,0.3111724,9.796204
69149630915724,0.5481848,0.3375627,9.79889
69149650770701,0.54170215,0.3426886,9.763764
69149670625550,0.5133318,0.32290742,9.719572
69149690478577,0.53751904,0.32096583,9.702577
69149710333426,0.53182465,0.3298412,9.699534
69149730188147,0.53482443,0.3100904,9.706059
69149750042996,0.5293472,0.2916874,9.713531
69149769902185,0.5333326,0.30226368,9.746345
69149789757034,0.55036503,0.30771643,9.769963
69149809611883,0.56211144,0.31438962,9.750479
69149829466732,0.5523752,0.3069517,9.75266
69149849321560,0.5351417,0.29337284,9.805626
69149869176409,0.52355534,0.29997694,9.771169
69149889034044,0.5312345,0.30637652,9.7641535
69149908889021,0.5716818,0.30159557,9.757461
69149928743870,0.6101696,0.26550052,9.753581
69149948598847,0.58410704,0.2820927,9.775347
69149968453824,0.5466397,0.33640927,9.738095
69149988315113,0.5021814,0.3620844,9.685051
69150008170218,0.51802665,0.35994598,9.690634
69150028025323,0.5597744,0.34336886,9.694226
69150047880428,0.57440734,0.3342477,9.723183
69150067735533,0.565428,0.32421377,9.754076
69150087590510,0.55092996,0.33179,9.746753
69150107442111,0.55744964,0.37082604,9.761698
69150127297088,0.5357283,0.35071987,9.777633
69150147152065,0.52249366,0.30233788,9.8007765
69150167007170,0.5308298,0.28014934,9.767586
69150186868907,0.54959846,0.32180977,9.7672615
69150206724140,0.5545007,0.35849786,9.7406845
69150226579245,0.5404271,0.33844525,9.746234
69150246434478,0.5343063,0.303251,9.717241
69150266289583,0.5741372,0.3373376,9.679918
69150286150490,0.5763666,0.38099307,9.686203
69150306005723,0.56375957,0.36937594,9.692878
69150325861062,0.5444629,0.3478041,9.69623
69150345716423,0.5141353,0.3529763,9.702092
69150365571784,0.5314474,0.3438422,9.742963
69150385427017,0.5499469,0.32686883,9.836033
69150405282732,0.5621869,0.3101279,9.915107
69150425138093,0.5482675,0.26553664,9.8902645
69150444993582,0.5098458,0.29587197,9.830093
69150464848943,0.5265607,0.3180424,9.754144
69150484705694,0.5234513,0.32329857,9.718741
69150504561055,0.50585383,0.30920315,9.68417
69150524416544,0.526216,0.279101,9.648746
69150544272033,0.57738924,0.26277176,9.663701
69150564127522,0.58319944,0.27534544,9.740399
69150583980883,0.5704008,0.274967,9.729315
69150603836372,0.5246895,0.2833799,9.756453
69150623691733,0.5115859,0.2981969,9.769526
69150643547222,0.50475156,0.28585333,9.804748
69150663402583,0.5296804,0.27042726,9.831864
69150683258072,0.5629781,0.3262881,9.808068
69150703107715,0.5592429,0.38190877,9.768046
69150722962948,0.53657895,0.38259184,9.78229
69150742818181,0.5287684,0.34385517,9.731049
69150762673542,0.51142526,0.3312124,9.720973
69150782532545,0.51500547,0.34642324,9.688891
69150802387758,0.5730814,0.37751454,9.685975
69150822242991,0.5477012,0.34947947,9.674321
69150842098352,0.50577533,0.30105424,9.658661
69150861953585,0.49843863,0.29275936,9.68967
69150881808818,0.5298712,0.3209121,9.712962
69150901668549,0.5680855,0.30635822,9.736609
69150921524038,0.5594133,0.33739626,9.790588
69150941379399,0.53028834,0.34561723,9.833253
69150961234760,0.50510585,0.32872868,9.84997
69150981090249,0.508872,0.3103154,9.825032
69151000943994,0.5332411,0.32406324,9.81764
69151020799355,0.5488476,0.33136028,9.783328
69151040654716,0.5337568,0.29006574,9.725054
69151060510077,0.52813494,0.2847048,9.736903
69151080357912,0.58431363,0.32803488,9.675213
69151100213145,0.56231785,0.37576267,9.616179
69151120068378,0.54149204,0.33306402,9.61167
69151139923739,0.56018084,0.26401514,9.641092
69151159778972,0.54783434,0.2608051,9.717043
69151179634205,0.5523381,0.2627899,9.7728405
69151199482880,0.5724857,0.30080262,9.8083105
69151219337985,0.5339414,0.33116084,9.850228
69151239193090,0.47627985,0.3147996,9.8237
69151259048067,0.46017435,0.2776692,9.81717
69151278903150,0.5324412,0.26011196,9.798494
69151298762845,0.59369475,0.35188562,9.780006
69151318618078,0.58656096,0.42341554,9.747507
69151338473183,0.56220704,0.43598703,9.705335
69151358328416,0.51899654,0.3948157,9.698156
69151378183887,0.50426024,0.38096556,9.719267
69151398039120,0.52831835,0.40295425,9.691255
69151417894225,0.5326556,0.41556904,9.687884
69151437749458,0.5148512,0.37096208,9.719283
69151457604691,0.5286491,0.34085745,9.728183
69151477459796,0.5759113,0.37141424,9.73829
69151497310853,0.5772902,0.36776668,9.774083
69151517165958,0.5094211,0.33893153,9.783055
69151537021063,0.47713417,0.3127893,9.79173
69151556876168,0.5127535,0.34421325,9.805419
69151576731273,0.5597299,0.36697152,9.78766
69151596583650,0.5485053,0.33325547,9.759336
69151616438755,0.50700974,0.29501787,9.732999
69151636293732,0.54536825,0.29828387,9.683938
69151656148837,0.5710278,0.3425938,9.644517
69151676003814,0.5800139,0.32872033,9.726731
69151695858919,0.5318032,0.29656756,9.704317
69151715708774,0.48925766,0.32089213,9.694653
69151735563623,0.5010356,0.31848004,9.712705
69151755418578,0.5414616,0.26499474,9.744959
69151775273427,0.54255503,0.23811792,9.787049
69151795130556,0.5077671,0.26156,9.830041
69151814985533,0.50297016,0.31954145,9.819628
69151834840510,0.48848778,0.3380058,9.796908
69151854695487,0.4716157,0.31496856,9.787678
69151874550336,0.49111384,0.31380454,9.776071
69151894405423,0.49991128,0.30814946,9.735572
69151914260400,0.48470345,0.32012492,9.721674
69151934115377,0.51920784,0.345152,9.698054
69151953970354,0.55286753,0.36069238,9.680393
69151973825331,0.524073,0.33767837,9.691657
69151993680308,0.49405053,0.31222406,9.707528
69152013538259,0.45338053,0.306467,9.727257
69152033393236,0.4578842,0.32388243,9.74889
69152053248213,0.50989246,0.328537,9.7839
69152073103190,0.51940596,0.3254367,9.794756
69152092960063,0.49435815,0.32243425,9.79894
69152112815040,0.4941447,0.31583038,9.7518015
69152132670017,0.49459055,0.3214752,9.7598915
69152152525122,0.507575,0.3036604,9.743955
69152172380099,0.5072543,0.3233985,9.749343
69152192236472,0.51324373,0.32625553,9.7200775
69152212091577,0.5256377,0.30040678,9.734594
69152231946533,0.5376796,0.2879505,9.751129
69152251801510,0.56022435,0.28426972,9.73402
69152271656615,0.55382013,0.2975443,9.724402
69152291511592,0.5319697,0.28593758,9.763484
69152311370641,0.517544,0.29470822,9.736889
69152331225746,0.47943947,0.3237569,9.742119
69152351080851,0.5072602,0.34578386,9.759957
69152370935956,0.563729,0.31673747,9.792002
69152390795035,0.5066582,0.27754825,9.803348
69152410650268,0.5004395,0.2726299,9.766708
69152430505501,0.5158291,0.29177448,9.756047
69152450360734,0.54896075,0.32740346,9.741413
69152470215967,0.5828435,0.33805105,9.74488
69152490071200,0.5642097,0.31027675,9.732673
69152509933483,0.51848656,0.2739188,9.738581
69152529788844,0.49002442,0.2913682,9.731519
69152549644333,0.5094404,0.31593752,9.731031
69152569499694,0.53329146,0.3228458,9.734822
69152589355183,0.5231348,0.27829257,9.755834
69152609213336,0.5200255,0.26811793,9.754596
69152629068953,0.5328458,0.3017699,9.760897
69152648924442,0.53500646,0.3103486,9.749829
69152668779931,0.50377154,0.2933425,9.754908
69152688636414,0.4867236,0.27700138,9.746688
69152708491882,0.49842328,0.26644024,9.739232
69152728347371,0.54343057,0.28481218,9.716133
69152748202860,0.55113536,0.259741,9.736037
69152768058349,0.5381295,0.24428223,9.756758
69152787913838,0.5138384,0.25411433,9.755491
69152807767431,0.51522666,0.2544008,9.731108
69152827622920,0.53842485,0.24058354,9.758615
69152847478409,0.5340622,0.24400854,9.769228
69152867333770,0.5301139,0.2621633,9.750397
69152887189259,0.5461822,0.27056286,9.74294
69152907048698,0.53564805,0.25544158,9.773215
69152926904315,0.5157195,0.2772798,9.727171
69152946759804,0.4893241,0.28427047,9.698932
69152966615421,0.5264236,0.2633196,9.68527
69152986463090,0.57158583,0.2108599,9.734276
69153006318451,0.5806945,0.18153265,9.748564
69153026173940,0.5431899,0.20711832,9.697328
69153046029429,0.53222173,0.24655354,9.706576
69153065884918,0.5128747,0.226199,9.7927475
69153085740407,0.55343175,0.22048211,9.849097
69153105586206,0.5666232,0.21774785,9.801355
69153125441567,0.51840836,0.2503391,9.747237
69153145296800,0.5024026,0.27006203,9.727269
69153165152161,0.5409434,0.25815532,9.756142
69153185007371,0.59758806,0.23784356,9.753012
69153204860016,0.62777096,0.2457134,9.751529
69153224715121,0.56550443,0.26066408,9.766508
69153244570354,0.4891017,0.24287087,9.780299
69153264425587,0.4905563,0.2219664,9.726029
69153284280820,0.5740007,0.23632212,9.71354
69153304135925,0.5862497,0.23894627,9.698272
69153323988304,0.5659381,0.2369694,9.719205
69153343843409,0.5247441,0.20198753,9.739502
69153363698514,0.54553294,0.20052432,9.764194
69153383553619,0.5772765,0.23586667,9.773945
69153403408760,0.5777284,0.26389685,9.792649
69153423263737,0.5317568,0.24847175,9.784674
69153443118842,0.5059835,0.23898025,9.79768
69153462973947,0.53987616,0.22269972,9.8093
69153482829052,0.5659757,0.2502696,9.767354
69153502684589,0.55832756,0.26564676,9.743574
69153522539566,0.55075204,0.2667876,9.734688
69153542394671,0.56705266,0.27422798,9.688183
69153562249648,0.54148656,0.27981693,9.669385
69153582104753,0.55991703,0.25862855,9.676772
69153601959858,0.58709836,0.19911975,9.689854
69153621814233,0.60071665,0.20959343,9.73639
69153641669338,0.56971073,0.21007967,9.7732115
69153661524294,0.5673957,0.22603987,9.81467
69153681379399,0.53879863,0.22960319,9.820141
69153701232944,0.5012731,0.19105321,9.842018
69153721087921,0.5242225,0.21359962,9.821475
69153740942898,0.5556959,0.25203186,9.787961
69153760797875,0.55858177,0.28253046,9.733907
69153780652852,0.5874329,0.29585078,9.718768
69153800507939,0.5929139,0.28037143,9.674672
69153820362916,0.5627566,0.24103104,9.703075
69153840217893,0.5947014,0.25363794,9.704571
69153860072870,0.63011336,0.28541213,9.7159
69153879927847,0.5760011,0.24705435,9.72225
69153899782824,0.56334734,0.21820319,9.740951
69153919636619,0.52868253,0.21076058,9.750181
69153939491596,0.5409064,0.2139933,9.776321
69153959346573,0.5497414,0.22163834,9.783972
69153979201550,0.55065846,0.21688856,9.792907
69153999053553,0.5464972,0.1975777,9.795267
69154018908402,0.55429566,0.20697477,9.791116
69154038763251,0.5383624,0.21246138,9.786039
69154058618228,0.5535955,0.19987705,9.758529
69154078473077,0.53335595,0.2145255,9.726025
69154098327926,0.5561704,0.23861659,9.683851
69154118183071,0.56874007,0.22150283,9.663193
69154138037897,0.53512746,0.2077655,9.702992
69154157892874,0.5605332,0.2197609,9.707402
69154177747723,0.5658501,0.25574833,9.685544
69154197602572,0.50509745,0.26550657,9.757951
69154217457659,0.54697454,0.20956823,9.806727
69154237312508,0.5670734,0.1432176,9.875313
69154257167357,0.51792043,0.116423264,9.885374
69154277022334,0.49695137,0.18932688,9.829989
69154296886369,0.47977996,0.23473215,9.787199
69154316741474,0.5047807,0.23593137,9.760879
69154336596579,0.56086576,0.2447935,9.723243
69154356451684,0.5896794,0.24481368,9.659955
69154376306789,0.56714416,0.25242844,9.616887
69154396161894,0.54260486,0.2677623,9.635901
69154416017937,0.57783514,0.26841667,9.671792
69154435873170,0.5919656,0.26334438,9.696531
69154455728275,0.55703694,0.25051528,9.741442
69154475583508,0.47934985,0.22454461,9.797877
69154495438613,0.46768177,0.22602044,9.84287
69154515297228,0.49591717,0.24734649,9.865429
69154535152589,0.5369354,0.27359354,9.880304
69154555007822,0.53352475,0.26016307,9.832433
69154574863055,0.5048024,0.2537742,9.79026
69154594711876,0.49347,0.27726215,9.746135
69154614566960,0.5196109,0.26881877,9.749875
69154634422065,0.53463084,0.2341998,9.709392
69154654277170,0.5418483,0.23949683,9.675518
69154674132275,0.5366506,0.22193792,9.666077
69154693987380,0.56674546,0.23315585,9.665099
69154713842523,0.5539468,0.23277745,9.654016
69154733697628,0.520086,0.22454175,9.714095
69154753552605,0.5374608,0.22809933,9.761706
69154773407710,0.55656594,0.24547899,9.77476
69154793262815,0.50335723,0.27861252,9.784353
69154813127718,0.48590082,0.26992658,9.816192
69154832982951,0.51716137,0.2554621,9.838034
69154852838184,0.5331358,0.22939341,9.854632
69154872693545,0.5457992,0.2467476,9.809919
69154892548778,0.5473751,0.30053946,9.77159
69154912404011,0.5233009,0.29852435,9.746671
69154932261778,0.5470835,0.27035576,9.7331085
69154952117139,0.5969092,0.26401958,9.71564
69154971972372,0.606997,0.28892702,9.643109
69154991827733,0.5830541,0.33467993,9.642284
69155011682880,0.57584655,0.30245504,9.684311
69155031538113,0.60669243,0.2886915,9.701431
69155051393474,0.59264034,0.30191255,9.702199
69155071248835,0.57781816,0.34767824,9.771055
69155091104174,0.53982717,0.3419084,9.8027
69155110956383,0.5174936,0.29592553,9.819707
69155130811744,0.51841086,0.29117584,9.828643
69155150667105,0.554765,0.31759182,9.807498
69155170522338,0.5521112,0.31699604,9.754174
69155190377699,0.52886045,0.27576303,9.762246
69155210232932,0.5218696,0.24712138,9.746455
69155230085965,0.5837079,0.29368174,9.755229
69155249941326,0.5689615,0.32219064,9.734023
69155269796559,0.5834748,0.34093365,9.691784
69155289651792,0.57092845,0.27030948,9.6921215
69155309506683,0.5783299,0.15485308,9.686481
69155329362044,0.5583647,0.101667464,9.728947
69155349217277,0.5022448,0.12034204,9.799838
69155369072510,0.48208952,0.1655247,9.803455
69155388927871,0.45372507,0.16812891,9.769877
69155408777520,0.48429102,0.18438306,9.735581
69155428632625,0.568944,0.23960371,9.736345
69155448487858,0.55718166,0.23747325,9.7370615
69155468343091,0.48165298,0.16381384,9.735189
69155488198324,0.4414698,0.1585503,9.740367
69155508053429,0.5204811,0.26226583,9.736675
69155527906078,0.58510226,0.30092284,9.775625
69155547761183,0.5462232,0.24998067,9.754463
69155567616268,0.44133696,0.21636282,9.765976
69155587471373,0.46202782,0.2606065,9.748854
69155607321676,0.5562352,0.30757585,9.73783
69155627176653,0.57752067,0.29510915,9.721959
69155647031630,0.5411293,0.22453125,9.763285
69155666886607,0.54183304,0.21317747,9.7250805
69155686741584,0.5503567,0.24449432,9.677943
69155706596689,0.53737235,0.2623092,9.693881
69155726451388,0.5276424,0.2463949,9.775005
69155746306365,0.511989,0.22186376,9.821346
69155766161214,0.50895816,0.21983793,9.845617
69155786016191,0.5315966,0.25062537,9.804452
69155805871168,0.5239521,0.23212026,9.744045
69155825720423,0.5046617,0.21750277,9.792178
69155845575272,0.51185405,0.2079778,9.833879
69155865430121,0.5450364,0.22695853,9.770593
69155885284842,0.53592765,0.25628558,9.756304
69155905142745,0.541358,0.25745437,9.760862
69155924997594,0.4988827,0.21127501,9.71885
69155944852443,0.5216133,0.1739701,9.708884
69155964707420,0.59218645,0.20218389,9.670418
69155984562269,0.6018717,0.25713167,9.648561
69156004417118,0.5426618,0.24263763,9.666192
69156024272521,0.5401337,0.22113201,9.728842
69156044127349,0.5366257,0.20711559,9.741652
69156063982198,0.5347821,0.19725049,9.818121
69156083837047,0.5417517,0.19261812,9.838695
69156103691896,0.52447087,0.19266696,9.83536
69156123549927,0.52890587,0.19043656,9.805474
69156143404904,0.53919756,0.23344493,9.806094
69156163259753,0.5106666,0.23124811,9.747514
69156183114730,0.5352684,0.22860593,9.735239
69156202969617,0.55286,0.23574685,9.725033
69156222824466,0.59266955,0.23655976,9.6924925
69156242679315,0.5894469,0.2457729,9.699004
69156262534036,0.5733536,0.23798205,9.747869
69156282388885,0.5309059,0.2320306,9.745852
69156302243734,0.5187858,0.2209072,9.737974
69156322094779,0.5559066,0.2332301,9.719531
69156341949500,0.5666952,0.23437308,9.747918
69156361804221,0.5585388,0.21598311,9.743473
69156381659070,0.5678451,0.21323335,9.75197
69156401513791,0.5523479,0.2358619,9.780993
69156421374732,0.5723015,0.22884588,9.751465
69156441229709,0.5929143,0.2495096,9.743002
69156461084686,0.57644707,0.2526992,9.73034
69156480939663,0.5496785,0.22437765,9.743068
69156500794640,0.5665857,0.20444752,9.753205
69156520649594,-0.56381524,0.30115184,9.751234
69156540510299,-0.57603604,0.2951684,9.745506
69156560365404,-0.57601935,0.29629764,9.796355
69156580220509,-0.5542219,0.28389484,9.748795
69156600075614,-0.53294295,0.23837815,9.735923
69156619932737,-0.5244555,0.25696298,9.715428
69156639787842,-0.54046565,0.3166783,9.740278
69156659643075,-0.5440029,0.32607576,9.768046
69156679498180,-0.56774604,0.3215784,9.772327
69156699353413,-0.5406358,0.25993782,9.778877
69156719209792,-0.51592094,0.24552342,9.7922735
69156739064897,-0.54376674,0.24733424,9.761673
69156758920130,-0.5304145,0.27618667,9.744106
69156778775363,-0.5707355,0.2735922,9.702665
69156798630468,-0.5930203,0.2384173,9.682811
69156818485701,-0.57848203,0.24166252,9.686457
69156838341488,-0.56002057,0.24293329,9.721844
69156858196721,-0.5527531,0.26817712,9.727034
69156878051954,-0.5426058,0.26036048,9.737581
69156897907187,-0.5235882,0.24513955,9.731935
69156917765266,-0.51160794,0.22041875,9.728193
69156937620627,-0.5129376,0.2266858,9.751517
69156957475860,-0.5454014,0.23510224,9.775934
69156977331221,-0.5554221,0.2444401,9.818595
69156997186562,-0.5550254,0.19634724,9.833699
69157017041009,-0.5069635,0.20020835,9.838891
69157036896370,-0.55461276,0.20472875,9.810389
69157056751603,-0.5950535,0.19499542,9.750066
69157076606836,-0.5600264,0.16585705,9.712647
69157096462069,-0.5081275,0.1804123,9.72077
69157116317430,-0.5171555,0.21352682,9.705693
69157136166045,-0.5861642,0.22764912,9.705365
69157156021278,-0.60709846,0.23965675,9.747703
69157175876383,-0.58488864,0.23486581,9.7478485
69157195731616,-0.55046403,0.21002239,9.707288
69157215584101,-0.5352957,0.16211835,9.7174015
69157235439206,-0.55653113,0.16857049,9.741246
69157255294311,-0.5718871,0.20331962,9.798995
69157275149416,-0.54642993,0.1921363,9.802561
69157295004521,-0.53693604,0.16385292,9.787637
69157314859498,-0.5610769,0.16927268,9.748555
69157334715875,-0.56091225,0.18395364,9.733903
69157354571108,-0.58463836,0.17192398,9.765825
69157374426213,-0.5857723,0.18091457,9.761901
69157394281318,-0.5533016,0.15822637,9.735616
69157414136423,-0.560067,0.14802621,9.722969
69157433990358,-0.6094753,0.15195289,9.706773
69157453845463,-0.59376013,0.15994708,9.700082
69157473700546,-0.45179376,0.37605292,9.711083
69157493555523,-0.44673395,0.3593738,9.710612
69157513410938,-0.48532936,0.3386785,9.760945
69157533266043,-0.4906738,0.34063032,9.792751
69157553121148,-0.47324088,0.36214995,9.81474
69157572976125,-0.47672752,0.36273837,9.841711
69157592831230,-0.48774663,0.35451642,9.819623
69157612686335,-0.48376763,0.37148076,9.748735
69157632541866,-0.46348768,0.38765815,9.759085
69157652396971,-0.48711666,0.3995956,9.715788
69157672252076,-0.5194562,0.4074789,9.722494
69157692107053,-0.46930605,0.39760998,9.7338705
69157711962158,-0.44967628,0.4115159,9.744612
69157731814551,-0.4236898,0.40595937,9.696837
69157751669656,-0.46502846,0.4341463,9.703852
69157771524633,-0.45628822,0.43932152,9.748467
69157791379738,-0.42173612,0.42010102,9.752928
69157811228997,-0.44168645,0.35374418,9.74499
69157831083846,-0.46447608,0.34522602,9.789658
69157850938823,-0.46110758,0.404969,9.804953
69157870793800,-0.4423641,0.42855003,9.841102
69157890648777,-0.43018907,0.39913628,9.8078
69157910503626,-0.47982827,0.36785644,9.7488985
69157930357421,-0.47514448,0.366115,9.702539
69157950212250,-0.42512268,0.437123,9.702065
69157970067099,-0.45315865,0.46272063,9.711261
69157989921948,-0.4387087,0.44805586,9.70444
69158009776797,-0.4373057,0.43095085,9.713916
69158029632964,-0.41792393,0.42702204,9.719693
69158049487813,-0.40234765,0.42459607,9.740251
69158069342662,-0.37674135,0.4130621,9.775574
69158089197511,-0.33976567,0.38554877,9.80458
69158109052360,-0.32333782,0.3637424,9.791233
69158128907209,-0.37084395,0.36830023,9.785913
69158148763386,-0.40778536,0.38772985,9.770156
69158168618235,-0.39712113,0.41570392,9.760354
69158188473084,-0.3704576,0.4364811,9.715818
69158208328061,-0.36998767,0.43927488,9.703235
69158228188840,-0.38908008,0.4295087,9.709014
69158248043817,-0.4134676,0.44089705,9.748926
69158267898794,-0.37778467,0.43172497,9.760987
69158287753771,-0.37951285,0.43918854,9.769874
69158307608748,-0.39184764,0.41828194,9.742433
69158327458593,-0.4234993,0.42249027,9.696597
69158347313570,-0.4296425,0.43348208,9.64228
69158367168419,-0.41385114,0.43946168,9.651947
69158387023396,-0.397114,0.44119093,9.713133
69158406878245,-0.3970611,0.43891814,9.832526
69158426733200,-0.25732204,0.17206056,9.8863325
69158446590651,-0.28305504,0.15641643,9.891058
69158466445500,-0.28723738,0.15469727,9.840737
69158486300477,-0.2677512,0.19455004,9.838439
69158506155454,-0.2724187,0.2006738,9.855147
69158526013223,-0.2772325,0.16149238,9.753838
69158545868200,-0.2925737,0.10153202,9.712134
69158565723305,-0.32219523,0.08792989,9.724294
69158585578282,-0.3287746,0.15009835,9.763185
69158605433387,-0.30231184,0.19986968,9.722464
69158625288664,-0.33904043,0.20939477,9.696011
69158645143641,-0.32880145,0.13496177,9.680146
69158664998746,-0.31833413,0.09087443,9.733219
69158684853851,-0.3062984,0.13852037,9.738001
69158704708956,-0.2907605,0.1420291,9.735906
69158724563933,-0.29863563,0.12932496,9.738362
69158744419148,-0.30905956,0.1302686,9.761197
69158764274125,-0.2914032,0.117999494,9.773029
69158784129230,-0.27540827,0.1387748,9.819666
69158803984207,-0.25841638,0.1590005,9.815283
69158823840848,-0.27475458,0.1461931,9.804083
69158843695953,-0.26685223,0.13060878,9.795523
69158863551058,-0.25624305,0.13324967,9.796489
69158883406035,-0.22775963,0.1271536,9.767542
69158903261118,-0.07468246,0.28284532,9.729189
69158923116223,-0.097049974,0.29451352,9.717943
69158942979372,-0.11715969,0.31305465,9.71342
69158962834605,-0.10484933,0.29983476,9.728777
69158982689838,-0.08527456,0.29540092,9.769403
69159002545071,-0.09834124,0.3032376,9.810157
69159022400176,-0.103900135,0.32173246,9.75471
69159042251289,-0.13764113,0.27983928,9.829363
69159062106522,-0.14611834,0.254634,9.81446
69159081961627,-0.079809576,0.22789761,9.746135
69159101816860,-0.07049216,0.18480307,9.709411
69159121668485,-0.098756894,0.29097742,9.711038
69159141523590,-0.07163734,0.35373503,9.714562
69159161378695,-0.041407514,0.32712072,9.758931
69159181233928,-0.05236395,0.2755518,9.757313
69159201089033,-0.116841584,0.23091687,9.783648
69159220944138,-0.12539104,0.17204723,9.750282
69159240799597,-0.08218392,0.21337952,9.725082
69159260654702,-0.0554264,0.31410974,9.761583
69159280509807,-0.1058821,0.28143567,9.797434
69159300365040,-0.16434525,0.19637923,9.763235
69159320220145,-0.118450806,0.2186317,9.742987
69159340066260,-0.043777715,0.28780758,9.787126
69159359921237,-0.0778018,0.2587437,9.812913
69159379776191,0.10436413,0.30593744,9.779401
69159399631168,0.09447685,0.26651564,9.742605
69159419485749,0.08400183,0.13282827,9.781084
69159439340726,0.13086508,0.15098085,9.815764
69159459195575,0.16133237,0.29314914,9.797436
69159479050552,0.16183208,0.34597063,9.817409
69159498905401,0.12588608,0.24607758,9.816547
69159518760250,0.10512136,0.1751981,9.773041
69159538615203,0.122535944,0.24877034,9.790556
69159558470180,0.12260106,0.30704805,9.701911
69159578325029,0.13440312,0.27984998,9.593187
69159598180006,0.123199515,0.22921103,9.613661
69159618034855,0.11627573,0.22542816,9.655429
69159637891578,0.16441637,0.22134845,9.651229
69159657746555,0.18496875,0.22134517,9.752965
69159677601532,0.193964,0.28092727,9.753122
69159697456381,0.18225712,0.27865967,9.858781
69159717311358,0.1434027,0.21927463,9.923181
69159737166335,0.09734041,0.21582973,9.887492
69159757024700,0.074512124,0.23901759,9.84914
69159776879805,0.098047696,0.22753642,9.825498
69159796734782,0.13327171,0.23297296,9.836086
69159816589759,0.16333582,0.25659445,9.817666
69159836441316,0.17398371,0.31732702,9.761896
69159856296271,0.26844114,0.18889767,9.724719
69159876151248,0.24288876,0.17711915,9.692678
69159896006225,0.22194375,0.15121949,9.684888
69159915861202,0.23678707,0.14349012,9.67804
69159935713527,0.27207497,0.16313645,9.66953
69159955568376,0.2828956,0.18957122,9.741051
69159975423225,0.27332473,0.18444696,9.752895
69159995278202,0.2502599,0.15511367,9.800509
69160015133051,0.23442541,0.14855807,9.822171
69160034987900,0.2244655,0.15183699,9.857194
69160054848613,0.20128289,0.1852257,9.832079
69160074703590,0.2181933,0.1851134,9.831166
69160094558567,0.25387985,0.17911987,9.833196
69160114413544,0.28918985,0.1567626,9.830261
69160134271039,0.2902044,0.14651434,9.818898
69160154126144,0.26810762,0.113527246,9.790644
69160173981121,0.26966202,0.104915775,9.757661
69160193836098,0.27050114,0.091690145,9.743414
69160213691203,0.27666542,0.10389896,9.730431
69160233552178,0.25576213,0.11605341,9.687315
69160253407283,0.2365248,0.12652336,9.643849
69160273262388,0.23778088,0.15024488,9.601367
69160293117621,0.26614273,0.15966253,9.560071
69160312972726,0.2451819,0.10611742,9.5868025
69160332827809,0.20462756,0.1279959,9.694216
69160352685834,0.21262048,0.12592344,9.8099
69160372541067,0.20747992,0.10364695,9.8869095
69160392396172,0.20539744,0.12759891,9.897944
69160412251405,0.23402397,0.13976593,9.902928
69160432110614,0.23900743,0.09874179,9.869719
69160451965975,0.22758219,0.10184511,9.880579
69160471821336,0.19641986,0.13575175,9.831773
69160491676569,0.18857466,0.14103787,9.784512
69160511531930,0.20179963,0.16663326,9.765759
69160531387163,0.25942522,0.18362488,9.745471
69160551250934,0.3445121,0.16072847,9.700507
69160571106551,0.31487182,0.12375484,9.689397
69160590962168,0.2526505,0.15217008,9.658604
69160610817657,0.22124182,0.18133585,9.696451
69160630673274,0.1954036,0.13140799,9.714696
69160650527331,0.20086223,0.13549268,9.756242
69160670382820,0.21573234,0.19043678,9.758827
69160690238437,0.24858736,0.20059197,9.777812
69160710093926,0.22613046,0.16281927,9.773431
69160729952261,0.22507088,0.13531718,9.796019
69160749807878,0.24651204,0.13626601,9.816718
69160769663495,0.24444096,0.14790837,9.818606
69160789519112,0.22534263,0.14691009,9.809893
69160809374706,0.24230129,0.15229411,9.795826
69160829230323,0.24935052,0.13489561,9.797628
69160849075998,0.2979896,0.13111955,9.755523
69160868931487,0.28754532,0.15852962,9.75544
69160888786976,0.23863354,0.15236585,9.7281
69160908642465,0.214864,0.12571436,9.722923
69160928497826,0.22969061,0.1252704,9.714752
69160948342617,0.28341973,0.14454246,9.802061
69160968197722,0.25431207,0.12023909,9.792687
69160988052955,0.22515021,0.11875434,9.723713
69161007908188,0.21940625,0.12187694,9.680835
69161027763599,0.22069174,0.13134733,9.67493
69161047618832,0.22242057,0.10290431,9.670487
69161067474065,0.23317885,0.09001909,9.866892
69161087329298,0.27483383,0.06377253,9.84843
69161107184531,0.2976831,0.09295305,9.83706
69161127039764,0.26783985,0.12036913,9.791955
69161146872127,0.24606374,0.14392798,9.738529
69161166726848,0.18640162,0.14436711,9.858386
69161186581569,0.13613784,0.08922538,9.860033
69161206436418,0.20577693,0.12638389,9.774487
69161226291139,0.252051,0.163829,9.821313
69161246132330,0.3029962,0.19006984,9.795798
69161265986795,0.22784434,0.1613894,9.781036
69161285841240,0.17486434,0.07265792,9.777801
69161305695705,0.20331663,0.11311095,9.785591
69161325550170,0.22983176,0.11732857,9.79497
69161345404635,0.24483211,0.11921351,9.816545
69161365241600,0.24144246,0.12048509,9.877546
69161385095681,0.16245118,0.07045506,9.86771
69161404949762,0.15895495,0.046094824,9.849406
69161424803971,0.20128343,0.07362026,9.886165
69161444663092,0.28676522,0.1443375,9.913608
69161464517173,0.24212562,0.12779014,9.907805
69161484371126,0.13359965,0.07814133,9.950108
69161504225207,0.15197803,0.08451151,9.9625635
69161524079288,0.2126131,0.07307368,9.970591
69161543938893,0.2800343,0.06029276,9.949024
69161563792974,0.3448759,0.090182886,9.987739
69161583647055,0.295871,0.14380474,9.98841
69161603501136,0.1912794,0.14600036,10.004839
69161623355217,0.16995323,0.11784469,9.979322
69161643209298,0.28548315,0.13630855,9.999744
69161663067895,0.40510917,0.2210097,10.001428
69161682921976,0.44124186,0.23638268,10.009793
69161702776057,0.35346547,0.1614986,10.010896
69161722630266,0.28447542,0.13078259,9.991622
69161742492125,0.4109571,0.17473719,10.039955
69161762346312,0.42995253,0.18130454,10.071965
69161782200521,0.39780173,0.14137375,10.1009865
69161802054730,0.3466889,0.16135392,10.091419
69161821908939,0.35845917,0.14132574,10.100027
69161841769006,0.35738662,0.07233132,10.135547
69161861623471,0.30955344,0.06014565,10.130617
69161881477808,0.23911086,0.09430127,10.111829
69161901332145,0.18512718,0.14150903,10.176867
69161921186482,0.21324728,0.1602332,10.212634
69161941040819,0.27998477,0.18108355,10.201211
69161960891488,0.2810474,0.13779977,10.189677
69161980745825,0.20245019,0.09841522,10.150204
69162000600162,0.15594636,0.08078181,10.18076
69162020454371,0.18825558,0.07876513,10.213186
69162040306276,0.2103066,0.084635586,10.259332
69162060160485,0.17594513,0.066545546,10.294212
69162080014822,0.13199571,0.018824534,10.28126
69162099869031,0.16290875,0.017478466,10.2871685
69162119723368,0.21709873,0.03628842,10.30015
69162139577577,0.24077512,0.06490857,10.296383
69162159430942,0.19207194,0.057181664,10.297022
69162179285279,0.15442449,0.03829909,10.305232
69162199139488,0.2125152,0.061326556,10.379333
69162218993825,0.27366608,0.083391435,10.387704
69162238848140,0.25025728,-0.0148316845,10.34466
69162258722671,0.2293824,-0.009417516,10.359793
69162278577392,0.24249433,-0.0071850345,10.343345
69162298432113,0.28526288,0.04749232,10.325922
69162318286834,0.284609,0.09873697,10.326776
69162338160213,0.2612837,0.055826165,10.297822
69162358015318,0.22196676,0.0023607793,10.332462
69162377870551,0.24528693,-0.020202788,10.33404
69162397725784,0.31755283,0.0075783283,10.361243
69162417581017,0.32140332,0.042111192,10.347378
69162437436122,0.33660606,0.045157436,10.297133
69162457285383,0.2980743,0.007424678,10.348833
69162477140616,0.3176438,0.018811807,10.338776
69162496995721,0.3330205,0.05889093,10.350198
69162516850826,0.3314235,0.090642445,10.391597
69162536705931,0.35444838,0.09501751,10.368347
69162556557806,0.28882554,0.08686894,10.363751
69162576412911,0.31521097,0.08122296,10.380183
69162596268144,0.3419007,0.10777061,10.37263
69162616123249,0.28704664,0.098035656,10.404305
69162635991842,0.30095518,0.0875634,10.405252
69162655847331,0.3435646,0.06478187,10.387652
69162675702948,0.3383696,0.06688755,10.378216
69162695558437,0.34049553,0.057970457,10.357427
69162715413903,0.281902,-0.03775971,10.374672
69162735269392,0.26726785,-0.054887556,10.405485
69162755122853,0.28540114,-0.049813945,10.377638
69162774978214,0.32368067,-0.013513107,10.321428
69162794833703,0.29009035,-0.006639293,10.338709
69162814689064,0.2543625,-0.01999638,10.367185
69162834544425,0.25580207,-0.02429993,10.332526
69162854396044,0.25676212,-0.02500571,10.322724
69162874251277,0.26465037,0.023853468,10.384346
69162894106638,0.2045589,0.028079478,10.364112
69162913961871,0.1103239,-0.0048813247,10.349064
69162933817232,0.107299134,-0.030924859,10.3957
69162953672465,0.14372526,-0.08840759,10.447878
69162973523798,0.116855614,-0.13416193,10.425134
69162993378903,0.15921412,-0.13384326,10.428675
69163013233880,0.22602151,-0.07564657,10.437464
69163033088985,0.21050529,-0.016399318,10.400665
69163052952574,0.18188195,0.014481593,10.453568
69163072807807,0.16787831,0.015219887,10.436345
69163092663168,0.21852152,3.716689E-4,10.325929
69163112518401,0.33669046,0.0069639245,10.298407
69163132373762,0.42466465,0.0071841716,10.363767
69163152220723,0.41868666,-0.010223561,10.414173
69163172075956,0.34286162,-0.016080353,10.377326
69163191931040,0.2649329,0.0063248817,10.373611
69163211786273,0.37076172,0.089689106,10.382874
69163231641506,0.3841291,0.10793435,10.393535
69163251496611,0.35063788,0.077577256,10.399779
69163271340818,0.34399155,0.03798097,10.39302
69163291195795,0.40367627,0.03943828,10.399623
69163311050900,0.42393202,0.083517514,10.407474
69163330905877,0.36522415,0.07352781,10.392186
69163350770936,0.31598952,0.01541027,10.361838
69163370626169,0.33576354,-0.005507585,10.358854
69163390481402,0.35365623,0.022213694,10.400352
69163410336635,0.3074264,0.04725915,10.400928
69163430191996,0.2733638,0.074192494,10.399696
69163450053043,0.2585355,0.09200391,10.416861
69163469908404,0.3177234,0.08980436,10.41313
69163489763765,0.34510416,0.08410462,10.378867
69163509619254,0.32312885,0.11202208,10.34896
69163529474615,0.2800325,0.097825564,10.34551
69163549330104,0.268219,0.037584808,10.393471
69163569180931,0.21378149,0.019652363,10.389112
69163589036292,0.19389962,-0.0062217526,10.396448
69163608891525,0.19648448,-0.11820738,10.414296
69163628746758,0.22948481,-0.23738718,10.397715
69163648600921,0.267321,-0.2759199,10.399538
69163668456133,0.24824086,-0.15105768,10.372762
69163688311238,0.28827068,-0.08481619,10.330956
69163708166471,0.35430312,-0.003408483,10.340687
69163728021576,0.38288614,0.046150964,10.327486
69163747876809,0.32739362,0.04845353,10.273334
69163767733184,0.28724405,0.06696449,10.270668
69163787588289,0.29308558,0.09343819,10.265386
69163807443394,0.3624842,0.19187999,10.375033
69163827298499,-0.07838805,0.30210176,10.296577
69163847153604,0.3515341,0.05427416,10.296616
69163867016169,0.54477733,0.022761265,10.433777
69163886871530,0.33007023,0.44250035,10.587432
69163906726891,-0.15801308,0.43737718,10.363058
69163926582124,0.07337051,0.50977564,10.025218
69163946441495,0.7058387,0.27967486,9.884232
69163966296984,0.56690305,-0.22864376,10.0996895
69163986152473,0.24696645,-0.40258107,10.450763
69164006007962,0.06926342,0.2622163,10.339221
69164025863451,0.29558453,-0.34820274,9.919384
69164045718940,0.12845847,-0.40703952,10.382089
69164065569451,0.31619164,0.09889672,10.271599
69164085424812,0.3311051,0.24034385,10.032788
69164105280173,-0.17391984,0.45654255,10.249354
69164125135534,-0.0465745,0.43348634,10.148702
69164144990873,0.12597774,0.23134348,10.108082
69164164842924,0.08465195,0.21024093,9.882648
69164184698157,0.22781393,0.22727384,9.998166
69164204553390,0.097768396,-0.051935114,10.461291
69164224408623,-0.019030109,-0.44016698,10.331287
69164244270726,0.23769459,-0.657449,9.544042
69164264126215,0.42806625,-0.69509476,9.7487955
69164283981576,0.3609292,-0.34194136,10.6480055
69164303837065,0.0342914,0.61640334,10.417084
69164323692426,0.8551528,-0.100417785,10.005313
69164343547787,0.49233657,-0.12979971,9.829057
69164363400084,0.10180264,-0.16773692,9.769699
69164383255445,0.36233792,-0.185727,9.998808
69164403110806,0.60331583,-0.1636328,10.153935
69164422966167,0.43852863,0.13158445,10.057858
69164442821656,0.2662972,0.25192124,10.008016
69164462674223,0.23619479,0.18363039,9.981454
69164482529584,0.26584163,0.19673073,10.025606
69164502384817,0.29992038,0.24023835,9.885491
69164522240178,0.48445347,0.07946287,9.77356
69164542095539,0.522315,0.03342283,9.900418
69164561950900,0.23233646,0.123125724,9.973804
69164581813953,0.29269636,0.19568956,10.018796
69164601669442,0.45686245,0.22762565,10.093573
69164621525038,0.31585905,0.20348011,9.885641
69164641380527,0.24020112,0.16264123,9.75419
69164661236144,0.29020968,0.2859981,9.780118
69164681095377,0.41808605,0.16658114,9.781057
69164700951122,0.44848996,0.20796786,9.761567
69164720806739,0.340477,0.19402894,9.833345
69164740662484,0.25537595,0.12442157,9.687293
69164760518229,0.16148616,-0.024540555,9.69305
69164780364844,0.35923934,-0.40411925,9.852988
69164800220333,0.5336106,-0.3193894,9.832559
69164820075694,0.26658395,0.16131131,9.822242
69164839931183,0.15399876,0.5603713,9.887427
69164859786672,0.39782035,0.2143574,9.856774
69164879628233,0.3299055,0.25562993,9.785207
69164899483338,0.388852,0.42826986,9.846141
69164919338443,0.51813406,0.2980444,9.918141
69164939193420,0.47089523,0.1901638,9.870539
69164959048525,0.22082332,-0.14036806,9.307777
69164978894824,-0.0024424468,-0.26694825,9.595087
69164998749801,-0.5818138,0.22985065,9.574347
69165018604650,-0.64395607,-0.34418136,9.640829
69165038459627,-1.1240993,-0.23985223,10.286713
69165058314476,-1.5646613,0.29271296,10.181164
69165078168959,-0.6746185,0.583167,9.467025
69165098023914,-1.5747119,0.6232791,9.438779
69165117878763,-0.91552967,0.62750053,9.838905
69165137733612,-0.18797761,0.050464332,10.135224
69165157588589,-0.15760912,0.064809024,10.283722
69165177433650,-0.038521662,-0.5227767,10.011587
69165197288243,-0.49746242,-0.6508952,9.689131
69165217142964,-1.105969,-0.64281493,9.593773
69165236997557,-2.2868483,-0.12315115,10.025719
69165256852278,-2.3869648,-0.48966977,9.73225
69165276708041,-1.8595935,-1.0868256,9.485045
69165296562634,-1.5868587,-0.58112156,9.751515
69165316417355,-0.18251857,-0.050949562,9.420835
69165336271948,1.3152735,0.16280533,9.60589
69165356126541,1.4559069,0.47255006,10.265991
69165375984816,0.410651,-0.27340204,10.147571
69165395839537,-1.2107133,-1.5096939,9.718981
69165415694258,-1.403767,-2.7689502,8.797952
69165435548979,0.4212457,-2.7194524,8.102467
69165455403700,3.2515614,-0.16959229,7.7837515
69165475257257,3.469322,1.7259284,8.65024
69165495111978,1.6855268,2.0876195,11.165374
69165514966699,1.2886063,4.0257926,11.270884
69165534821292,0.8559337,4.4716983,10.316805
69165554676013,-0.9830229,3.432094,10.2558775
69165574528001,0.69581246,5.5310698,8.841842
69165594382594,3.0923543,5.3199224,8.913085
69165614237315,4.9751573,5.6413445,8.360039
69165634091908,4.141459,6.89363,7.548735
69165653946501,1.168456,8.351454,8.232344
69165673799600,-6.660302,2.7731097,9.999028
69165693654193,-9.161393,3.011329,10.846237
69165713508786,-2.6543593,1.0390218,9.219844
69165733363379,-2.4454453,-1.8435193,9.219281
69165753217844,-2.1129928,5.364123,9.699773
69165773076387,-2.6414025,5.053021,9.824432
69165792930980,-0.55520743,-3.384948,7.1177273
69165812785573,2.6036563,-5.923743,6.499891
69165832640166,2.3967335,-4.2924805,7.2492657
69165852494759,1.7963816,-2.802015,8.724938
69165872355460,-0.82028997,-4.1804237,10.624166
69165892210309,-1.5801842,-1.9578593,10.343148
69165912065030,1.1969205,0.33673826,9.879796
69165931919751,1.8467978,0.945668,9.807013
69165951774600,-1.8345847,4.9400363,9.371337
69165971633075,-4.877302,3.919943,10.866708
69165991487924,-1.4453087,-1.3595936,12.260924
69166011342645,-1.1131309,0.4801239,13.441616
69166031197494,0.4013036,0.06614502,12.866303
69166051052322,0.58034796,5.9172926,11.744657
69166070902893,0.86461866,6.293546,12.573611
69166090757614,0.2764158,7.2491937,12.449178
69166110612335,-0.6178969,6.277949,10.694743
69166130466928,-0.86845064,5.224817,10.5951395
69166150321649,0.39275172,3.7782764,10.995994
69166170185254,1.11187,2.4836729,9.789696
69166190040103,-0.09724174,1.581791,9.500101
69166209895080,-0.63465905,2.0030804,8.878249
69166229750057,0.479558,1.7174733,7.850699
69166249605034,-2.24818,2.5753117,8.600604
69166269465179,-0.82404435,3.9835262,8.441964
69166289320284,-0.053010624,3.4530318,8.054283
69166309175389,-0.07960703,3.7245424,7.2473536
69166329030494,-1.2787313,2.1387663,7.440036
69166348885599,2.3667984,-0.036867898,8.951031
69166368746128,-0.17463675,-0.565012,7.5536337
69166388601361,-1.4579457,-1.8734093,6.4175086
69166408456594,-0.5092313,-1.5904369,7.6492043
69166428311827,1.773917,-0.43321207,10.083508
69166448167188,-0.37109956,-0.9047337,10.252485
69166468021891,-3.8582478,-2.9008737,9.111514
69166487877252,-4.8935156,-4.4694834,9.003061
69166507732485,-5.150975,-3.020736,10.827553
69166527587697,5.383877,4.038301,9.007505
69166547443058,4.2421174,3.7916622,8.865153
69166567295257,3.9092329,5.283533,8.743138
69166587150362,3.9219646,4.550415,8.659934
69166607005595,2.890453,4.7420936,9.056806
69166626860700,1.9986668,5.755937,8.923066
69166646715933,1.690334,5.6437864,9.233666
69166666571166,1.1783173,5.413547,10.230747
69166686427721,1.0381804,5.5346274,10.460662
69166706282954,0.8626412,4.9150486,10.807645
69166726138187,0.61263055,4.4800763,11.080152
69166745993420,0.6926054,3.519378,11.280132
69166765848653,0.6787785,2.224558,12.02178
69166785703922,0.93424284,1.2319666,12.0617285
69166805559027,-0.68822885,0.6668415,11.582735
69166825414260,-1.8560517,0.5648356,11.511942
69166845269493,-1.1462728,0.32898504,11.245884
69166865124598,-0.52088726,0.55273557,9.915406
69166884979807,0.36753848,0.99215007,10.496399
69166904835040,1.2619255,0.8365418,8.865053
69166924690273,0.91371644,1.1374794,6.7024627
69166944545506,0.43401212,0.83250767,8.03253
69166964400739,0.3998591,-0.21741365,9.068972
69166984252644,-0.2856854,-2.2338555,8.107763
69167004107727,2.1260405,-5.598792,7.2236414
69167023962960,2.7797813,-6.241903,8.79257
69167043818065,3.1093023,-6.114129,8.343073
69167063673298,2.4006143,-4.199073,2.830263
69167083517895,4.9118114,-6.318131,8.511696
69167103372872,1.9601122,-3.5968783,5.0745006
69167123227849,0.8238192,-1.5647911,4.6232314
69167143082826,1.4772652,3.1190543,12.954769
69167162937803,0.36829937,5.8241096,11.702616
69167182790530,0.15584897,4.5476904,9.039907
69167202645379,-0.06404557,3.2029133,7.6578536
69167222500356,-0.07090254,2.493909,6.6195908
69167242355205,0.015166547,0.57937014,6.3569827
69167262210182,0.38105956,-1.3192676,5.853127
69167282066293,0.8861713,-1.2655411,7.8546095
69167301921142,0.046939213,0.8231196,8.729573
69167321775991,-0.4989471,3.1637306,10.207629
69167341630840,0.6611634,2.5474954,13.313154
69167361485689,0.18541081,0.7382067,10.783268
69167381336546,-1.4062608,1.9790595,7.1050725
69167401191395,-0.690634,2.1802258,4.4920645
69167421046244,2.2088842,1.3461354,7.3090625
69167440900965,0.78176886,-0.348516,11.385667
69167460755814,-3.509527,1.9234159,8.147748
69167480614347,-1.1400979,-5.63928,8.082265
69167500469196,-0.20185407,-8.951099,9.615942
69167520324045,2.7553844,-3.2630181,9.276793
69167540178894,3.1665373,-1.0002879,9.339884
69167560033871,1.455812,-4.0917377,8.543923
69167579893894,-0.27501395,-4.8459606,9.413605
69167599748871,0.24602461,-3.15216,10.194262
69167619603848,0.21401805,-1.0207781,8.130793
69167639458825,0.97302324,-0.11852424,9.25384
69167659313802,1.8884182,0.1534353,11.398419
69167679165439,1.3784502,-0.9828511,11.162842
69167699020288,-0.26817328,-1.4425707,10.388631
69167718875137,-0.012175467,-0.9422447,9.280337
69167738729986,0.2804536,-0.1621584,9.228233
69167758584835,0.51461536,-0.23318075,10.629798
69167778447736,0.5273789,-0.29782888,9.706174
69167798302713,0.0812872,0.086796746,8.446295
69167818157690,-0.083841845,0.6979971,8.88692
69167838012795,0.338919,0.40366995,10.817686
69167857867772,0.3767695,0.5584539,10.989185
69167877726711,0.56422454,0.99024165,10.094843
69167897581816,0.48193333,1.4556574,10.493401
69167917436921,-0.47609568,2.0257525,10.589998
69167937292026,-0.77296245,1.6500735,9.581754
69167957147109,-0.6718244,0.21157761,9.758816
69167976999830,-0.5119175,-0.010051681,9.595549
69167996854935,-0.67032063,0.034223065,9.532502
69168016710040,-0.46081725,-0.8399874,10.678964
69168036565017,-0.1734773,-0.8555431,10.479169
69168056420122,-0.5756173,0.6705246,10.014355
69168076269649,-0.7213836,0.5248485,9.854674
69168096124626,0.04580912,-0.55681187,9.375658
69168115979603,-0.09659388,0.0083786715,9.594281
69168135834580,0.05123236,0.5535184,10.1144705
69168155689557,0.2820299,-0.5043966,10.258489
69168175540194,0.14097567,0.36231384,9.564474
69168195395171,0.6633875,1.2487956,9.073165
69168215250020,1.2653699,0.29456332,9.940493
69168235104997,1.9768823,0.4367946,10.864272
69168254959846,1.6644046,0.56395984,9.9934435
69168274818405,-0.14230025,0.6757465,8.498064
69168294673382,-1.1610059,-0.57891685,8.309765
69168314528359,-0.085335284,-0.17274432,10.301587
69168334383464,0.7310967,1.2619973,10.367671
69168354238441,0.34684134,-0.082891695,9.760328
69168374098330,-0.04932042,-1.5685289,8.906918
69168393953435,-0.29653382,-0.18220603,9.621333
69168413808540,-0.4926366,0.34193948,9.708589
69168433663753,-0.71814644,-0.49028328,9.489705
69168453518858,-1.3856612,-0.22066903,9.712614
69168473375371,-1.0224103,-2.0262833,9.887879
69168493230604,-0.2148653,-2.778422,8.993632
69168513085837,-0.8295941,-2.1380424,9.154541
69168532940942,-0.14110908,-1.531412,9.6455765
69168552796175,-0.68048644,-1.3697991,10.146989
69168572651280,-1.3324485,-2.0618713,10.009969
69168592507531,0.053185098,-0.98201776,9.6456785
69168612362764,1.3423856,0.105531685,9.18397
69168632217997,1.3566896,1.5950229,9.070798
69168652073230,0.40188065,0.885981,9.8577795
69168671928335,-1.3185333,0.3335814,10.573291
69168691778180,-0.9503345,0.9587146,10.310075
69168711633157,-0.1137837,1.0538332,10.0877905
69168731488262,-0.5038917,-2.3759446,10.31287
69168751343239,-1.6376129,-2.5690994,10.506619
69168771198344,-1.0751269,-0.3661645,9.816905
69168791058983,-0.5335597,0.35808668,8.897833
69168810914088,-1.3288544,1.3032103,8.854745
69168830769321,-2.5237243,-0.68445134,9.583981
69168850624426,-3.4435391,-3.192775,9.540887
69168870479531,-3.301268,-1.5844175,9.07732
69168890335554,-0.16919771,0.4610039,9.392703
69168910190786,-0.08437933,1.2321193,8.863611
69168930045890,-0.13558221,1.5067643,9.018641
69168949901122,-1.2074074,1.551182,10.102561
69168969756226,-1.2339442,1.0070323,10.996757
69168989604071,-0.60765547,2.887977,10.947442
69169009459048,-0.6104504,3.1482275,9.509773
69169029314023,-0.61618084,1.7133172,8.514457
69169049168999,-7.080804,2.4642072,9.225528
69169069023976,-4.2903166,0.8702694,12.077542
69169088872862,-2.6820893,-0.32443288,12.665181
69169108727710,-2.4476888,-0.8912436,14.781432
69169128582559,-1.3778292,-1.577282,15.214041
69169148437406,1.9454021,-1.3119823,14.954665
69169168296399,3.2387574,-1.828602,14.016922
69169188151376,4.9216824,2.696357,12.051009
69169208006351,-0.12643941,3.874132,9.581847
69169227861327,-2.7838793,1.0657704,3.1803236
69169247716304,-5.0530305,0.83361614,3.7798405
69169267571279,-2.0372727,-0.17661913,5.5669107
69169287424372,-0.48651877,-0.8638965,6.4121556
69169307279349,1.0070397,2.233953,6.579162
69169327134196,3.439392,6.333453,8.068523
69169346989172,-4.9874477,1.7745899,5.689406
69169366844149,-10.264425,-2.607481,0.9284631
69169386699418,-2.8216028,-2.7668154,-0.91200614
69169406554394,4.467575,-1.015663,-2.6457164
69169426409371,5.3847904,4.9082417,-4.205966
69169446264346,6.7254553,3.8072252,17.088133
69169466125381,-0.1937429,1.2592987,14.843096
69169485980614,5.698446,-0.9541175,2.0523188
69169505835717,7.9803066,0.73928183,10.269224
69169525690821,1.4874575,1.1475672,15.23628
69169545545926,1.082788,2.7802548,13.052916
69169565401157,1.8310543,2.2834246,14.686151
69169585213162,2.208143,0.3503113,13.905915
69169605067371,3.4350708,-2.0240886,11.305211
69169624921706,1.439689,-0.30207974,11.158086
69169644776042,-0.19773756,1.4522837,12.783723
69169664630379,-0.62833726,0.54201895,15.238389
69169684493266,-0.9374845,2.0374427,13.347099
69169704347602,-0.3593625,2.8085449,10.394047
69169724201939,-0.44514325,1.9744378,9.396527
69169744056402,-0.7538524,0.9051729,10.367852
69169763922168,-0.7081794,0.39044073,11.3927965
69169783776633,-0.38427767,0.83641845,10.7921
69169803631224,0.19183993,0.33544314,9.524764
69169823485688,0.34612337,-0.33717453,9.050638
69169843340153,0.4270027,-0.7662393,9.256308
69169863194744,0.26726282,-1.0422134,9.518881
69169883056096,0.2683696,-1.2280921,9.218489
69169902910689,-0.1496532,-0.5344479,9.64464
69169922765280,-0.23895387,0.14290136,9.613355
69169942619872,0.24232402,-0.07704181,9.292904
69169962474593,0.22745475,-0.13081482,9.123425
69169982337025,-0.44918308,-0.69275934,8.882727
69170002191873,-0.412124,0.0013324037,9.504989
69170022046594,-0.42582294,0.709416,9.605731
69170041901441,-0.49403557,0.47958153,9.235237
69170061759156,0.035788,0.13178506,9.15889
69170081614005,0.4366631,0.29582068,9.669913
69170101468852,0.50320494,0.18187046,10.0164995
69170121323700,0.4090201,0.05353979,9.910085
69170141178549,-0.07213163,0.074804,9.276735
69170161033396,-0.34862003,-0.06722869,8.948536
69170180897387,-0.21353413,-0.13055642,8.826458
69170200752364,0.13708912,-0.1511947,9.018399
69170220607467,0.3867184,-0.08230194,9.625868
69170240462443,0.21998547,-0.10537851,10.268392
69170260317548,0.14238586,-0.13574266,10.611428
69170280182552,0.124377675,-0.075253494,10.461818
69170300037784,0.009355468,-0.01361981,10.129474
69170319893017,-0.19093649,0.1181058,9.9664135
69170339748248,-0.3064096,0.1833264,10.068077
69170359603480,0.15788992,-0.090978414,9.850743
69170379458713,0.60714936,-0.41424972,9.311737
69170399310301,0.27134746,-0.372841,9.394612
69170419165533,0.0537655,-0.27496517,10.126085
69170439020766,0.026811672,-0.21706322,10.715197
69170458876125,0.22673813,-0.36084038,10.4549675
69170478747820,-0.054598358,-0.6148664,9.410592
69170498603437,0.18675324,-0.68219113,9.001733
69170518458924,0.39529008,-0.06647817,9.391157
69170538314412,0.47058737,-0.41771755,10.283292
69170558170029,-0.101248436,-0.2588873,11.131594
69170578028807,-0.4269752,0.13880926,10.720067
69170597884551,-0.56874156,-0.26886973,9.803837
69170617740168,-0.22656211,-0.32067347,8.71237
69170637595783,0.1409051,-0.19423398,8.443554
69170657451399,0.020362664,-0.007838814,9.233471
69170677307016,-0.069817245,0.33942673,9.688623
69170697156975,0.03517035,0.08973869,9.167617
69170717012463,0.06640621,-0.30255562,8.666135
69170736867952,-0.1424045,0.034455247,8.9452715
69170756723567,-0.0980859,0.28275338,9.6346
69170776590376,0.14302328,0.16784884,10.118584
69170796446121,0.061949775,0.10355815,10.250713
69170816301992,-0.14291641,-0.02447484,10.080547
69170836157864,0.013403452,-0.049040668,9.910874
69170856013609,0.25905016,-0.1532218,10.063689
69170875872088,0.2910376,-0.19382097,10.255103
69170895727960,0.39336997,-0.26770982,10.115221
69170915583961,0.40429923,-0.29323745,9.962023
69170935439832,0.1367534,-0.17146888,9.839466
69170955295832,0.022996048,-0.13868946,9.579896
69170975151705,0.070004575,-0.2287287,9.39242
69170994998872,0.020288084,-0.21209086,9.685935
69171014854616,-0.038464863,-0.11328824,10.199604
69171034710489,0.1620658,-0.24660166,10.082829
69171054566232,0.50871474,-0.3577727,10.015911
69171074416362,0.36574358,-0.27029562,9.869896
69171094272235,0.034900833,-0.2253629,9.798366
69171114127978,-0.0017200545,-0.122183986,10.001885
69171133983850,0.012933375,0.0050525777,10.184899
69171153839595,0.09534986,-0.16173147,10.029492
69171173695466,0.2614121,-0.2335347,9.677053
69171193517601,0.2545884,-0.48491022,9.311059
69171213372322,0.1181008,-0.47694963,9.854888
69171233227169,0.05666524,0.285391,9.753785
69171253081889,0.027495725,-0.35166368,8.531916
69171272936738,-0.20651728,-0.45716286,9.248066
69171292788318,-0.19607416,0.17506544,10.167409
69171312643038,0.4333056,0.23388034,11.740356
69171332497759,0.23983102,0.1446742,10.787078
