UPTIMENANO,Ax,Ay,Az
81759355239397,-1.2406201000000001,9.6758795,-0.7927515
81759375094502,-1.1304493,9.75252,-0.76401126
81759394949479,-1.1160791,9.740545,-0.7664063
81759414807088,-1.0250684,9.711803999999999,-0.7209009
81759434662065,-0.98195803,9.673484,-0.79035646
81759454517170,-1.101709,9.702225,-0.8047266
81759474372147,-1.1112891000000003,9.718989,-0.76401126
81759494227124,-1.1687696,9.594449000000001,-0.7759864000000001
81759514083843,-1.1831397,9.580078,-0.7568262
81759533938948,-1.1999048,9.673484,-0.77359134
81759553793925,-1.214275,9.740545,-0.76161623
81759573648902,-1.1807446000000001,9.800421,-0.7209009
81759593504007,-1.2166698999999999,9.707015,-0.7759864000000001
81759613358630,-1.1615845,9.654325,-0.7376661
81759633213735,-1.1160791,9.70941,-0.7185059
81759653068712,-1.1927198,9.687855,-0.7879615
81759672923817,-1.1520045,9.639954,-0.73527104
81759692778794,-1.2022998,9.711803999999999,-0.7496411000000001
81759712637141,-1.1064991000000002,9.721385,-0.8214916999999999
81759732489345,-1.0849438999999999,9.73815,-0.8669971
81759752344577,-1.1759547,9.654325,-0.8047266
81759772199681,-1.1160791,9.663903999999999,-0.8286768
81759792054785,-1.089734,9.666299,-0.7592211999999999
81759811912778,-1.1567944,9.769285,-0.728086
81759831768010,-1.1424243,9.718989,-0.8262818000000001
81759851623242,-1.214275,9.685459,-0.7879615
81759871478474,-1.1831397,9.690249,-0.8047266
81759891333706,-1.1759547,9.692644,-0.86939216
81759911189822,-1.2861254999999998,9.711803999999999,-0.7879615
81759931045182,-1.2861254999999998,9.572892999999999,-0.79754156
81759950900414,-1.2358301999999999,9.587264,-0.77359134
81759970755646,-1.1352394,9.750125,-0.76880133
81759990610878,-1.2358301999999999,9.802814999999999,-0.7759864000000001
81760010472999,-1.2549903,9.77168,-0.7496411000000001
81760030328487,-1.2909156000000002,9.639954,-0.7951465
81760050183975,-1.4250367,9.678274,-0.79993653
81760070039463,-1.3627661,9.687855,-0.7209009
81760089894823,-1.3531861,9.678274,-0.7185059
81760109749915,-1.3771361999999998,9.711803999999999,-0.7113208000000001
81760129605275,-1.2693603999999998,9.735755000000001,-0.7783814
81760149460764,-1.2382251,9.742939999999999,-0.7424561
81760169316253,-1.1400293,9.620794,-0.6993457
81760189171739,-1.1543995,9.616004,-0.73048097
81760209025228,-1.2166698999999999,9.649534,-0.7711963000000001
81760228880588,-1.2382251,9.70941,-0.6993457
81760248735948,-1.2813355,9.711803999999999,-0.72569096
81760268591436,-1.3100758,9.702225,-0.74006104
81760288446796,-1.3148658000000002,9.695039999999999,-0.69216067
81760308302157,-1.2454101999999998,9.623189,-0.62749517
81760328155498,-1.1376343,9.639954,-0.7113208000000001
81760348010859,-1.2118799999999998,9.6686945,-0.73527104
81760367866220,-1.2070899,9.606423,-0.7376661
81760387721709,-1.2669654,9.671089,-0.7232959
81760407577070,-1.3891114,9.80521,-0.6730005
81760427431443,-1.4010864,9.77168,-0.7113208000000001
81760447286804,-1.4585668999999999,9.687855,-0.7544312
81760467142037,-1.3891114,9.6615095,-0.6993457
81760486997398,-1.219065,9.683064,-0.6586304000000001
81760506852759,-1.094524,9.663903999999999,-0.64186525
81760526706168,-1.0705738,9.639954,-0.6730005
81760546561401,-1.0466236,9.6758795,-0.7161109
81760566416634,-1.0226734,9.733359,-0.68737066
81760586271995,-1.101709,9.692644,-0.6394701999999999
81760606127228,-1.2741505,9.582474000000001,-0.6993457
81760625978473,-1.2813355,9.587264,-0.7065308000000001
81760645833706,-1.3723463,9.651928999999999,-0.5245093000000001
81760665688939,-1.1711646,9.745335,-0.5724097
81760685544172,-1.1256591999999999,9.843531,-0.62031007
81760705399405,-1.1376343,9.831555,-0.60354495
81760725249372,-1.0370435,9.759705,-0.6945557
81760745104477,-1.1711646,9.637559,-0.8334668
81760764959431,-1.2933106,9.553733,-0.69216067
81760784814535,-1.3004956,9.589659,-0.6706055000000001
81760804669639,-1.2933106,9.6758795,-0.58677983
81760824524444,-1.1831397,9.7621,-0.6394701999999999
81760844379420,-1.1951148999999999,9.704619000000001,-0.7879615
81760864234524,-1.2022998,9.795630000000001,-0.7664063
81760884089628,-1.1472143999999997,9.716595,-0.6777906
81760903944604,-1.2310401000000002,9.644744000000001,-0.6562354
81760923801354,-1.1807446000000001,9.632769,-0.62031007
81760943656458,-1.2070899,9.620794,-0.7448511
81760963511562,-1.3124708,9.77168,-0.7209009
81760983366666,-1.2837305,9.759705,-0.6706055000000001
81761003221770,-1.4010864,9.64714,-0.7592211999999999
81761023084926,-1.4585668999999999,9.649534,-0.64186525
81761042940158,-1.3124708,9.639954,-0.7161109
81761062795390,-1.22146,9.833950999999999,-0.76161623
81761082650750,-1.2549903,9.707015,-0.8047266
81761102505982,-1.3651612,9.505833,-0.8262818000000001
81761122361215,-1.4825171,9.630374,-0.76401126
81761142214892,-1.4010864,9.453142,-0.4742139
81761162070252,-1.1951148999999999,9.872271000000001,-0.7831714
81761181925485,-1.1615845,9.848321,-0.9196875
81761201780716,-1.4106666,9.606423,-0.7664063
81761221635113,-1.2573853000000002,9.75252,-0.80233157
81761241490346,-1.1136841999999998,9.7812605,-0.732876
81761261345577,-1.2717555,9.630374,-0.69216067
81761281200809,-1.2789403999999998,9.544153,-0.8861573
81761301055914,-1.2621753,9.75731,-0.67539555
81761320906943,-1.0322535,9.845925,-0.62031007
81761340762047,-0.98914313,9.64714,-0.91729254
81761360617152,-0.9915381,9.616004,-0.7807764
81761380466466,-0.9364527,9.778865,-0.7448511
81761400321571,-1.1160791,9.6686945,-0.8813671999999999
81761420176804,-1.2957056999999998,9.649534,-0.7185059
81761440034129,-1.3819263000000002,9.515413,-0.69216067
81761459889234,-1.575923,9.584868,-0.68976563
81761479744339,-1.5974781999999998,9.618399,-0.74724615
81761499599572,-1.5543678,9.639954,-0.855022
81761519460175,-1.4992822000000001,9.793235000000001,-0.83586186
81761539315536,-1.4801221000000002,9.663903999999999,-0.9867481
81761559170769,-1.5615528,9.730965,-1.0873389
81761579026002,-1.4250367,9.596844,-0.6945557
81761598881235,-1.2885206,9.6758795,-0.50534916
81761618736712,-1.1424243,9.75731,-0.58198977
81761638591945,-1.089734,9.73815,-0.73048097
81761658447178,-1.1184741000000002,9.678274,-0.74006104
81761678302539,-0.95561284,9.687855,-0.7041358
81761698157772,-0.90052736,9.730965,-0.5484595
81761718013133,-0.9867481,9.821976,-0.50774413
81761737865594,-1.1088941,9.817185,-0.5556446
81761757720826,-1.2789403999999998,9.867481,-0.7185059
81761777576059,-1.3747413,9.663903999999999,-0.6466553
81761797431290,-1.3172607,9.572892999999999,-0.80233157
81761817284177,-1.1951148999999999,9.74773,-0.855022
81761837139410,-1.0585986,9.608819,-0.6490503000000001
81761856994641,-1.0705738,9.534574000000001,-0.74724615
81761876849873,-1.0753639,9.678274,-0.8909473
81761896705106,-1.1951148999999999,9.726174,-0.86939216
81761916560337,-1.0825489,9.7142,-0.76161623
81761936417730,-0.977168,9.568104,-0.8262818000000001
81761956272963,-1.3436059999999999,9.735755000000001,-0.83586186
81761976128194,-1.3986914,9.623189,-0.8885523000000001
81761995983554,-1.2454101999999998,9.627979,-0.7544312
81762015838787,-1.2741505,9.853110000000001,-0.62749517
81762035696645,-1.3507911,9.79084,-0.88376224
81762055552005,-1.2286451,9.618399,-0.9148975
81762075407366,-1.0825489,9.630374,-0.6682104999999999
81762095262725,-1.1136841999999998,9.663903999999999,-0.7185059
81762115115131,-1.2046948999999998,9.656719,-0.7951465
81762134970364,-1.2166698999999999,9.639954,-0.74724615
81762154825723,-1.1208692,9.7142,-0.728086
81762174680955,-0.9508228000000001,9.687855,-0.69695073
81762194536316,-0.96758795,9.685459,-0.66342044
81762214391547,-1.0011181999999998,9.733359,-0.62749517
81762234243994,-1.0130934,9.862691,-0.58198977
81762254099227,-0.9580079,9.656719,-0.57719976
81762273954330,-0.9196875,9.685459,-0.5508545
81762293809562,-1.0250684,9.72857,-0.54366946
81762313664795,-1.0633887,9.742939999999999,-0.6658155
81762333518222,-1.0681788,9.707015,-0.6059399999999999
81762353373327,-1.0442286,9.721385,-0.5963599
81762373228432,-1.0250684,9.730965,-0.62510014
81762393083537,-0.9987232,9.625584,-0.7376661
81762412938214,-1.0226734,9.656719,-0.74006104
81762432793319,-1.0011181999999998,9.735755000000001,-0.7807764
81762452648424,-1.0873389,9.711803999999999,-0.7232959
81762472503529,-1.0370435,9.716595,-0.7568262
81762492358634,-1.0873389,9.546548,-0.8143066999999999
81762512213739,-1.1184741000000002,9.745335,-0.87897223
81762532071416,-1.094524,9.841136,-0.7664063
81762551926521,-0.9867481,9.75252,-0.7807764
81762571781754,-0.99393314,9.788445,-0.87178713
81762591636859,-1.0633887,9.699829,-0.91250247
81762611491964,-1.0873389,9.704619000000001,-0.80233157
81762631349637,-1.101709,9.702225,-0.6993457
81762651204870,-1.1687696,9.620794,-0.8047266
81762671060103,-1.1041040000000002,9.687855,-0.76880133
81762690915336,-1.0873389,9.7621,-0.74006104
81762710763903,-1.0585986,9.817185,-0.76401126
81762730619008,-1.0106983,9.639954,-0.7424561
81762750474113,-0.97956306,9.5561285,-0.84065187
81762770329196,-1.0106983,9.644744000000001,-0.8382569
81762790184301,-1.0873389,9.742939999999999,-0.7759864000000001
81762810039404,-1.1352394,9.726174,-0.7041358
81762829890564,-1.1064991000000002,9.7142,-0.85023195
81762849745541,-1.1232642,9.666299,-0.8430469
81762869600644,-1.0322535,9.733359,-0.85741705
81762889455620,-1.0873389,9.632769,-0.79035646
81762909310597,-1.1160791,9.735755000000001,-0.7496411000000001
81762929164457,-1.0657837,9.778865,-0.8334668
81762949019305,-1.1376343,9.716595,-0.8813671999999999
81762968874282,-1.101709,9.788445,-0.8382569
81762988729257,-1.0322535,9.611214,-0.8262818000000001
81763008585544,-1.0466236,9.613608000000001,-0.9484278
81763028440521,-1.1448194,9.678274,-0.9484278
81763048295496,-1.2094848999999999,9.663903999999999,-0.8765772
81763068150472,-1.1711646,9.716595,-0.74006104
81763088005449,-1.089734,9.639954,-0.852627
81763107860424,-1.089734,9.707015,-0.9580079
81763127714536,-1.0490186000000001,9.745335,-0.8095166
81763147569513,-1.0226734,9.685459,-0.78556645
81763167424488,-1.0562036,9.718989,-0.8861573
81763187279464,-1.1112891000000003,9.639954,-0.91729254
81763207134441,-1.1136841999999998,9.77168,-0.8813671999999999
81763226996318,-1.094524,9.754914999999999,-0.7544312
81763246851420,-1.0490186000000001,9.702225,-0.8047266
81763266706653,-1.0562036,9.72857,-0.8765772
81763286561756,-1.0657837,9.750125,-0.8981324
81763306416860,-1.1424243,9.663903999999999,-0.84544194
81763326271965,-1.1855347,9.769285,-0.88376224
81763346121239,-1.2885206,9.683064,-0.87178713
81763365976215,-1.1639795,9.642349000000001,-0.88376224
81763385831192,-0.9963281999999999,9.623189,-0.9244776
81763405686295,-0.94603276,9.625584,-1.0442286
81763425538327,-0.9388476999999998,9.704619000000001,-1.1136841999999998
81763445393176,-0.87178713,9.671089,-1.0106983
81763465248023,-0.8861573,9.778865,-0.9029224
81763485102999,-1.0370435,9.745335,-0.8286768
81763504957848,-1.0562036,9.72857,-0.88376224
81763524819087,-1.0346485,9.733359,-0.88376224
81763544674063,-1.0490186000000001,9.592053,-0.9148975
81763564529168,-1.0753639,9.699829,-0.87178713
81763584384143,-0.98914313,9.639954,-0.9268726
81763604239119,-1.0346485,9.608819,-0.9412427
81763624094224,-1.1328443000000001,9.718989,-0.9029224
81763643952716,-1.1663746000000002,9.716595,-0.87897223
81763663807948,-1.0753639,9.778865,-0.8334668
81763683663053,-1.0346485,9.690249,-0.9651929
81763703518156,-1.1496094,9.64714,-0.96758795
81763723372772,-1.0633887,9.711803999999999,-0.8478370000000001
81763743227877,-1.0059083,9.687855,-0.9029224
81763763075472,-1.0538087,9.6758795,-0.9029224
81763782930448,-1.0633887,9.64714,-0.9053174
81763802785553,-1.0250684,9.673484,-0.83586186
81763822637816,-0.9627979,9.721385,-0.8214916999999999
81763842492920,-0.977168,9.644744000000001,-0.81909674
81763862348025,-1.0035132,9.80521,-0.81909674
81763882203000,-0.9436377,9.711803999999999,-0.7568262
81763902058104,-0.977168,9.6615095,-0.83586186
81763921913081,-1.0298585,9.766891000000001,-0.7209009
81763941768672,-0.9867481,9.783655,-0.728086
81763961623648,-0.96040285,9.7621,-0.7161109
81763981478753,-1.0418334999999999,9.685459,-0.73048097
81764001333856,-1.0873389,9.651928999999999,-0.728086
81764021195866,-1.0035132,9.740545,-0.7568262
81764041051099,-1.0657837,9.730965,-0.7759864000000001
81764060906330,-1.101709,9.72857,-0.78556645
81764080761562,-1.0609937,9.699829,-0.7592211999999999
81764100616667,-1.0394385,9.666299,-0.7807764
81764120476287,-1.0106983,9.745335,-0.78556645
81764140331520,-1.0466236,9.740545,-0.7783814
81764160186881,-1.0130934,9.683064,-0.75203615
81764180042242,-0.9915381,9.692644,-0.7496411000000001
81764199897603,-1.0346485,9.613608000000001,-0.732876
81764219752964,-0.92926764,9.718989,-0.7951465
81764239606003,-0.9412427,9.699829,-0.7376661
81764259461364,-0.96040285,9.75731,-0.74006104
81764279316597,-0.9699829,9.733359,-0.7424561
81764299171958,-1.0154883,9.642349000000001,-0.8095166
81764319025017,-0.9412427,9.740545,-0.76401126
81764338880250,-0.9388476999999998,9.654325,-0.71371585
81764358735483,-0.9508228000000001,9.711803999999999,-0.6562354
81764378590716,-0.9436377,9.72857,-0.7496411000000001
81764398445949,-0.9867481,9.654325,-0.80233157
81764418301310,-0.9412427,9.72378,-0.64186525
81764438135563,-0.93405765,9.793235000000001,-0.6730005
81764457990412,-0.99393314,9.845925,-0.728086
81764477845261,-0.9508228000000001,9.70941,-0.6993457
81764497700110,-0.97237796,9.611214,-0.76880133
81764517554959,-0.9867481,9.611214,-0.6825806
81764537417682,-0.91250247,9.699829,-0.6610254
81764557272659,-0.9316626,9.850716,-0.60833496
81764577127636,-0.90771246,9.81958,-0.64186525
81764596982591,-0.9627979,9.6615095,-0.7424561
81764616831692,-0.9580079,9.639954,-0.70174074
81764636686541,-0.9196875,9.671089,-0.732876
81764656541390,-0.93405765,9.726174,-0.71371585
81764676396367,-0.9580079,9.73815,-0.6514453
81764696251216,-1.0585986,9.702225,-0.66342044
81764716106065,-1.0801538,9.769285,-0.6706055000000001
81764735960574,-1.0202783000000002,9.853110000000001,-0.6706055000000001
81764755815423,-0.974773,9.764495,-0.6466553
81764775670270,-0.9268726,9.687855,-0.68976563
81764795524990,-1.0394385,9.623189,-0.6777906
81764815379839,-0.92926764,9.740545,-0.65384036
81764835239206,-0.96040285,9.769285,-0.6825806
81764855094182,-1.0466236,9.79084,-0.6825806
81764874949159,-1.0585986,9.77168,-0.6227050999999999
81764894804006,-0.97956306,9.623189,-0.6586304000000001
81764914658982,-0.9915381,9.707015,-0.79035646
81764934513959,-0.97237796,9.704619000000001,-0.82388675
81764954360352,-1.0490186000000001,9.730965,-0.7544312
81764974215072,-1.0849438999999999,9.726174,-0.6777906
81764994069793,-1.0562036,9.711803999999999,-0.7448511
81765013924512,-0.94603276,9.663903999999999,-0.68737066
81765033782011,-0.9316626,9.692644,-0.80233157
81765053636732,-1.1328443000000001,9.735755000000001,-0.80233157
81765073491451,-1.0681788,9.812395,-0.6394701999999999
81765093346171,-0.98195803,9.704619000000001,-0.69695073
81765113200892,-0.98435307,9.721385,-0.82388675
81765133063151,-1.0106983,9.690249,-0.85023195
81765152917999,-1.0825489,9.692644,-0.7424561
81765172772976,-1.0083033000000001,9.726174,-0.7161109
81765192627823,-1.0562036,9.651928999999999,-0.8143066999999999
81765212482671,-1.0633887,9.704619000000001,-0.76880133
81765232337520,-1.0178833,9.733359,-0.73527104
81765252193997,-1.0729688,9.750125,-0.7592211999999999
81765272049102,-1.0921290000000001,9.778865,-0.7951465
81765291904079,-1.1280543,9.6758795,-0.8047266
81765311759056,-1.094524,9.625584,-0.7376661
81765331618397,-1.0202783000000002,9.599238,-0.79754156
81765351473502,-1.0562036,9.654325,-0.7951465
81765371328607,-1.0777588,9.843531,-0.7232959
81765391183712,-1.0298585,9.70941,-0.7711963000000001
81765411038817,-1.0178833,9.73815,-0.79993653
81765430891690,-1.0250684,9.730965,-0.79993653
81765450746667,-1.0777588,9.7142,-0.8382569
81765470601772,-1.096919,9.78605,-0.6658155
81765490456749,-1.0298585,9.6615095,-0.8143066999999999
81765510311854,-1.0729688,9.580078,-0.88376224
81765530166831,-1.0801538,9.5561285,-0.8310718
81765550021630,-1.1136841999999998,9.730965,-0.7113208000000001
81765569876607,-1.0490186000000001,9.920172,-0.6777906
81765589731712,-1.0346485,9.685459,-0.85741705
81765609586689,-1.1520045,9.695039999999999,-0.86220706
81765629447042,-1.0777588,9.6758795,-0.7664063
81765649302275,-1.1041040000000002,9.711803999999999,-0.76401126
81765669157508,-1.1041040000000002,9.671089,-0.732876
81765689012741,-1.096919,9.656719,-0.81909674
81765708867974,-1.0825489,9.718989,-0.7568262
81765728723184,-1.0322535,9.716595,-0.79035646
81765748587053,-1.1352394,9.7740755,-0.8214916999999999
81765768442542,-1.094524,9.759705,-0.7209009
81765788298029,-1.0753639,9.690249,-0.8334668
81765808153389,-1.1543995,9.695039999999999,-0.7951465
81765828008878,-1.089734,9.637559,-0.7951465
81765847859454,-1.1064991000000002,9.524992999999998,-0.7664063
81765867714814,-1.1232642,9.683064,-0.7113208000000001
81765887570303,-1.1112891000000003,9.7740755,-0.7879615
81765907425662,-1.096919,9.788445,-0.7185059
81765927281077,-1.0705738,9.769285,-0.7544312
81765947136438,-1.0801538,9.666299,-0.8382569
81765966991925,-1.0466236,9.635164,-0.73527104
81765986847413,-1.1232642,9.601633999999999,-0.728086
81766006702774,-1.1496094,9.625584,-0.7448511
81766026558261,-1.1088941,9.699829,-0.75203615
81766046394315,-1.1208692,9.678274,-0.66342044
81766066249292,-1.0154883,9.807606,-0.7185059
81766086104139,-1.0274634,9.807606,-0.76880133
81766105959115,-1.0825489,9.745335,-0.8047266
81766125814092,-1.1112891000000003,9.5633135,-0.7544312
81766145675900,-1.1663746000000002,9.611214,-0.7759864000000001
81766165531004,-1.099314,9.656719,-0.7041358
81766185386109,-1.1088941,9.733359,-0.69695073
81766205241342,-1.0538087,9.75252,-0.76880133
81766225103563,-1.0322535,9.740545,-0.8214916999999999
81766244958668,-1.1280543,9.671089,-0.75203615
81766264813899,-1.094524,9.6758795,-0.6849755999999999
81766284669131,-1.0633887,9.690249,-0.7376661
81766304524364,-1.1376343,9.7621,-0.7185059
81766324379595,-1.089734,9.726174,-0.68737066
81766344237063,-1.0538087,9.627979,-0.7232959
81766364092296,-0.97956306,9.726174,-0.7209009
81766383947529,-0.98195803,9.75731,-0.7041358
81766403802762,-1.0322535,9.654325,-0.728086
81766423658123,-1.0442286,9.673484,-0.72569096
81766443507552,-1.089734,9.7621,-0.7113208000000001
81766463362785,-1.0418334999999999,9.857901,-0.6322852
81766483217890,-1.0370435,9.750125,-0.728086
81766503072995,-1.1112891000000003,9.673484,-0.81909674
81766522923144,-1.0705738,9.627979,-0.7592211999999999
81766542778121,-1.0681788,9.596844,-0.6658155
81766562633098,-1.0921290000000001,9.671089,-0.71371585
81766582488075,-1.094524,9.730965,-0.73527104
81766602343052,-1.0562036,9.788445,-0.68737066
81766622198029,-1.0011181999999998,9.764495,-0.6777906
81766642052360,-0.9987232,9.656719,-0.7448511
81766661907337,-1.0226734,9.618399,-0.7544312
81766681762314,-1.0705738,9.6686945,-0.6993457
81766701617291,-1.1160791,9.687855,-0.6610254
81766721472268,-1.0466236,9.778865,-0.7161109
81766741324575,-1.0729688,9.77168,-0.78556645
81766761179404,-1.0442286,9.671089,-0.73048097
81766781034381,-1.0657837,9.687855,-0.62989014
81766800889356,-1.0322535,9.833950999999999,-0.6682104999999999
81766820744204,-1.0202783000000002,9.687855,-0.7376661
81766840599181,-1.1424243,9.541758999999999,-0.7544312
81766860454644,-1.0921290000000001,9.632769,-0.61073
81766880309620,-0.9651929,9.927357,-0.6682104999999999
81766900164597,-0.96758795,9.730965,-0.6825806
81766920019572,-1.0322535,9.702225,-0.7927515
81766939880918,-1.1543995,9.718989,-0.6562354
81766959736023,-0.9244776,9.759705,-0.6059399999999999
81766979591126,-0.97237796,9.7740755,-0.7113208000000001
81766999446230,-1.2046948999999998,9.735755000000001,-0.73527104
81767019301335,-1.0514137,9.70941,-0.64186525
81767039163021,-0.9580079,9.627979,-0.63707525
81767059018253,-1.0346485,9.613608000000001,-0.76161623
81767078873358,-1.0633887,9.73815,-0.75203615
81767098728589,-1.0562036,9.730965,-0.6825806
81767118583821,-1.0011181999999998,9.639954,-0.7065308000000001
81767138439054,-1.1184741000000002,9.654325,-0.8430469
81767158291640,-1.1160791,9.766891000000001,-0.74006104
81767178146872,-1.099314,9.83874,-0.61073
81767198001977,-1.0705738,9.72378,-0.6394701999999999
81767217857080,-0.98914313,9.659114,-0.7783814
81767237711473,-0.98435307,9.692644,-0.80712163
81767257566578,-0.96758795,9.697434,-0.7041358
81767277421179,-0.9436377,9.72857,-0.6825806
81767297276412,-1.0585986,9.72857,-0.80233157
81767317131517,-1.0490186000000001,9.692644,-0.8167017
81767336988526,-1.0801538,9.70941,-0.70174074
81767356843759,-1.0633887,9.697434,-0.7448511
81767376698992,-1.0418334999999999,9.750125,-0.79993653
81767396554353,-1.1112891000000003,9.77647,-0.8382569
81767416409586,-1.0633887,9.72857,-0.84544194
81767436264819,-1.1543995,9.711803999999999,-0.8286768
81767456120636,-1.1184741000000002,9.616004,-0.8214916999999999
81767475975869,-1.1184741000000002,9.72378,-0.80712163
81767495831102,-1.0801538,9.754914999999999,-0.7089258
81767515686335,-1.0106983,9.72857,-0.79035646
81767535547816,-1.099314,9.697434,-0.8813671999999999
81767555403177,-1.1711646,9.654325,-0.852627
81767575258538,-1.0873389,9.695039999999999,-0.7592211999999999
81767595113899,-1.1112891000000003,9.692644,-0.79035646
81767614969260,-1.1208692,9.750125,-0.8334668
81767634824621,-1.1376343,9.745335,-0.79035646
81767654673230,-1.1496094,9.718989,-0.7232959
81767674528335,-0.9963281999999999,9.766891000000001,-0.79754156
81767694383568,-1.0873389,9.733359,-0.852627
81767714238673,-1.0777588,9.627979,-0.7496411000000001
81767734093778,-1.0154883,9.618399,-0.7448511
81767753952560,-1.0370435,9.644744000000001,-0.8095166
81767773807792,-1.0681788,9.750125,-0.7831714
81767793663025,-1.1448194,9.764495,-0.7209009
81767813518256,-1.094524,9.733359,-0.7065308000000001
81767833374250,-1.0538087,9.766891000000001,-0.77359134
81767853229611,-1.1041040000000002,9.6615095,-0.79754156
81767873084970,-1.1041040000000002,9.659114,-0.8334668
81767892940202,-1.1663746000000002,9.695039999999999,-0.7376661
81767912795563,-1.099314,9.663903999999999,-0.7113208000000001
81767932650922,-1.099314,9.630374,-0.76880133
81767952505173,-1.1783496,9.683064,-0.79754156
81767972360534,-1.1208692,9.821976,-0.74006104
81767992215893,-1.1088941,9.802814999999999,-0.69695073
81768012071253,-1.0753639,9.551338000000001,-0.7831714
81768031926614,-1.1208692,9.592053,-0.855022
81768051777475,-1.1376343,9.635164,-0.80712163
81768071632707,-1.0921290000000001,9.6686945,-0.6179150999999999
81768091487940,-1.1376343,9.74773,-0.6730005
81768111343171,-1.1112891000000003,9.7812605,-0.7232959
81768131201323,-0.97956306,9.77168,-0.6993457
81768151056684,-1.0346485,9.683064,-0.6658155
81768170911915,-1.101709,9.802814999999999,-0.7113208000000001
81768190767276,-1.1088941,9.75252,-0.50774413
81768210622509,-0.8598120000000001,9.6686945,-0.61552006
81768230477870,-0.8143066999999999,9.79084,-0.6706055000000001
81768250338780,-1.0226734,9.80521,-0.57001466
81768270194141,-0.86220706,9.699829,-0.6945557
81768290049628,-0.91250247,9.572892999999999,-0.613125
81768309904988,-0.9029224,9.659114,-0.69695073
81768329760349,-0.9244776,9.678274,-0.76401126
81768349610711,-1.1304493,9.6686945,-0.42391850000000003
81768369465943,-1.0657837,9.81958,-0.62031007
81768389321176,-0.9364527,9.833950999999999,-0.8981324
81768409176537,-0.8382569,9.620794,-0.70174074
81768429023042,-1.0059083,9.75731,-0.64186525
81768448878147,-1.2022998,9.75252,-0.6730005
81768468733252,-1.2478052,9.754914999999999,-0.7879615
81768488588229,-1.223855,9.656719,-0.7376661
81768508443334,-1.2094848999999999,9.654325,-0.68737066
81768528298439,-1.1328443000000001,9.656719,-0.5843848
81768548156176,-1.0729688,9.592053,-0.6059399999999999
81768568011281,-1.1639795,9.630374,-0.732876
81768587866514,-1.1520045,9.690249,-0.7544312
81768607721619,-1.1041040000000002,9.874666,-0.7568262
81768627576724,-1.1591895,9.730965,-0.55324954
81768647428635,-1.2669654,9.570497999999999,-0.64186525
81768667283868,-1.1783496,9.759705,-0.7448511
81768687138973,-0.93405765,9.77647,-0.6322852
81768706994078,-0.9244776,9.582474000000001,-0.55324954
81768726849183,-1.0394385,9.620794,-0.5628295999999999
81768746704288,-1.0705738,9.718989,-0.59156984
81768766556444,-0.9867481,9.905801,-0.6658155
81768786411420,-0.86220706,9.75731,-0.62749517
81768806266525,-1.0059083,9.623189,-0.5412744
81768826121500,-1.1160791,9.800421,-0.6011499
81768845974660,-1.2909156000000002,9.632769,-0.50534916
81768865829637,-1.1400293,9.656719,-0.69695073
81768885684612,-0.9580079,10.047108,-0.6394701999999999
81768905539588,-0.85023195,10.025552000000001,-0.5364844
81768925394565,-1.0154883,9.513017999999999,-0.33290774
81768945245426,-1.1136841999999998,9.532178,-0.7209009
81768965100274,-1.0394385,9.865086,-0.83586186
81768984955123,-1.1304493,9.874666,-0.7113208000000001
81769004809970,-1.1855347,9.599238,-0.51732427
81769024664818,-0.98435307,9.623189,-0.65384036
81769044519667,-0.8095166,9.78605,-0.68976563
81769064369365,-0.9316626,9.7740755,-0.58198977
81769084224085,-1.0921290000000001,9.673484,-0.6993457
81769104078934,-1.1975098,9.594449000000001,-0.79993653
81769123933653,-1.1088941,9.821976,-0.5748047
81769143791567,-1.0442286,9.730965,-0.54366946
81769163646416,-1.0609937,9.73815,-0.70174074
81769183501263,-1.0154883,9.77647,-0.79035646
81769203356111,-1.22146,9.855506,-0.62749517
81769223210832,-1.2070899,9.869876,-0.87178713
81769243066737,-1.0490186000000001,9.639954,-0.7951465
81769262921585,-1.094524,9.3309965,-0.3161426
81769282776434,-1.0370435,9.72857,-0.61552006
81769302631281,-1.0322535,9.77168,-0.9388476999999998
81769322486129,-1.0442286,9.917776,-0.7065308000000001
81769342340850,-0.974773,9.766891000000001,-0.73048097
81769362199354,-0.97237796,9.611214,-0.68737066
81769382054202,-1.0849438999999999,9.730965,-0.57001466
81769401909179,-1.2094848999999999,9.702225,-0.5221143
81769421764026,-1.22625,9.77168,-0.6562354
81769441617046,-1.2454101999999998,9.699829,-0.59156984
81769461471895,-1.1448194,9.821976,-0.57719976
81769481326742,-0.94603276,9.872271000000001,-0.62749517
81769501181590,-0.92208254,9.654325,-0.57959473
81769521036439,-1.0418334999999999,9.666299,-0.6610254
81769540893390,-1.1256591999999999,9.671089,-0.57959473
81769560748238,-1.0538087,9.589659,-0.47181886
81769580603087,-0.99393314,9.695039999999999,-0.5340894
81769600457934,-1.0490186000000001,9.901011,-0.57001466
81769620312654,-1.0106983,9.812395,-0.45505372
81769640167503,-0.9651929,9.690249,-0.6562354
81769660021887,-1.0609937,9.582474000000001,-0.72569096
81769679876735,-1.0394385,9.656719,-0.58198977
81769699731584,-1.0442286,9.742939999999999,-0.38559815
81769719586303,-1.0394385,9.7621,-0.5508545
81769739450733,-1.1256591999999999,9.711803999999999,-0.6346801999999999
81769759305710,-1.1232642,9.699829,-0.51971924
81769779160813,-1.0298585,9.788445,-0.45505372
81769799017025,-0.9867481,9.795630000000001,-0.4766089
81769818872130,-1.0106983,9.707015,-0.488584
81769838727105,-1.0490186000000001,9.707015,-0.46942386
81769858584982,-1.0178833,9.685459,-0.45026368
81769878440087,-0.977168,9.692644,-0.4023633
81769898295318,-0.8933423,9.697434,-0.3903882
81769918150422,-0.7113208000000001,9.690249,-0.44547364
81769938005655,-0.80712163,9.845925,-0.41194338
81769957867780,-0.9867481,9.783655,-0.33290774
81769977723012,-1.0681788,9.924961,-0.38320315
81769997578373,-1.1088941,9.814791,-0.42152345
81770017433732,-1.3004956,9.707015,-0.2802173
81770037291384,-1.5352076000000001,9.845925,-0.18920656
81770057146745,-0.9915381,10.008787,-0.8095166
81770077002104,-0.6442603,9.704619000000001,-0.40954837
81770096857464,-0.9580079,9.587264,0.26345217
81770116712825,-0.86220706,9.793235000000001,-0.26105714
81770136568184,-0.7065308000000001,9.524992999999998,-1.0011181999999998
81770156421027,-0.9364527,9.438772,-1.1759547
81770176276388,-1.0657837,9.433982,-0.5364844
81770196131747,-1.0322535,9.532178,-0.1460962
81770215987107,-0.8382569,9.594449000000001,0.100590825
81770235842468,-0.92208254,9.83874,-0.31374758
81770255701062,-0.732876,9.994417,-0.9364527
81770275556550,-0.8909473,9.853110000000001,-0.55803955
81770295411911,-0.9316626,9.83874,0.033530276
81770315267398,-0.852627,9.946517,0.059875492
81770335119485,-0.91250247,9.857901,-0.2921924
81770354974846,-1.0921290000000001,9.740545,-0.488584
81770374830333,-1.2645704,9.77647,-0.4143384
81770394685693,-1.4274316999999999,9.865086,-0.27303225
81770414541054,-1.22625,9.678274,-0.30416748
81770434396413,-1.0849438999999999,9.671089,-0.40715334
81770454250060,-1.1088941,9.740545,-0.33290774
81770474105421,-1.2310401000000002,9.769285,-0.34488282
81770493960782,-1.2118799999999998,9.812395,-0.3161426
81770513816140,-1.0106983,9.788445,-0.25387207
81770533671501,-0.8646021,9.70941,-0.18681154
81770553524902,-0.85023195,9.5561285,-0.13891114
81770573380134,-0.76401126,9.570497999999999,-0.38320315
81770593235495,-0.74724615,9.659114,-0.43589357
81770613090854,-0.78556645,9.702225,-0.3544629
81770632922981,-0.8933423,9.807606,-0.22273682
81770652777830,-1.1663746000000002,9.7740755,-0.102985844
81770672632679,-1.4418018,9.877061,-0.25866213
81770692487400,-1.4370118,9.7142,-0.3544629
81770712342249,-1.4034815,9.539363,-0.3544629
81770732197092,-1.3819263000000002,9.716595,-0.3065625
81770752049641,-1.5687379,9.718989,-0.27542725
81770771904362,-1.6381934999999999,9.759705,-0.3544629
81770791759081,-1.6597486000000001,9.592053,-0.366438
81770811613929,-1.6693287,9.589659,-0.25147706
81770831468650,-1.5256275,9.733359,-0.21794678
81770851317529,-1.3004956,9.764495,-0.28500733
81770871172249,-1.2094848999999999,9.6615095,-0.20597169
81770891026842,-1.2789403999999998,9.74773,-0.14849122
81770910881433,-1.2693603999999998,9.733359,-0.05748047
81770930736025,-1.0490186000000001,9.831555,-0.081430666
81770950590618,-0.89573735,9.826766000000001,0.021555176000000002
81770970448360,-0.7496411000000001,9.735755000000001,-0.16286133
81770990302952,-0.69695073,9.685459,-0.18681154
81771010157673,-0.68018556,9.635164,-0.09340577
81771030012264,-0.6849755999999999,9.788445,-0.119750984
81771049870129,-0.68737066,9.8866415,-0.102985844
81771069724850,-0.67539555,9.800421,-0.122146
81771089579441,-0.6706055000000001,9.718989,-0.17244141
81771109434033,-0.69695073,9.663903999999999,-0.20597169
81771129288754,-0.71371585,9.707015,-0.2706372
81771149148928,-0.81191164,9.695039999999999,-0.23950197
81771169003648,-0.8765772,9.7142,-0.21794678
81771188858369,-0.9268726,9.901011,-0.17483643
81771208713088,-0.8765772,9.821976,-0.2778223
81771228567808,-0.87897223,9.75731,-0.26105714
81771248422529,-0.85741705,9.766891000000001,-0.34009278
81771268279760,-0.9699829,9.7740755,-0.34488282
81771288134481,-1.1232642,9.72378,-0.28500733
81771307989202,-1.1759547,9.639954,-0.38080812
81771327843923,-1.1543995,9.733359,-0.4167334
81771347698566,-1.0346485,9.79084,-0.33530274
81771367553415,-0.83586186,9.740545,-0.4143384
81771387408136,-0.9029224,9.826766000000001,-0.2945874
81771407262857,-0.9915381,9.778865,-0.36164796
81771427117706,-1.0681788,9.7142,-0.31135255
81771446966921,-1.0442286,9.596844,-0.34009278
81771466821514,-1.0083033000000001,9.649534,-0.32572266
81771486676235,-1.0226734,9.8866415,-0.25387207
81771506530828,-0.9316626,9.769285,-0.32332766
81771526385421,-0.9532178,9.793235000000001,-0.26105714
81771546240014,-0.9196875,9.802814999999999,-0.32093263
81771566104865,-0.9053174,9.666299,-0.29698244
81771585959714,-0.98435307,9.699829,-0.24189699
81771605814563,-0.96758795,9.644744000000001,-0.33769777
81771625669412,-1.0490186000000001,9.845925,-0.22752686
81771645528705,-0.98435307,9.733359,-0.22513184
81771665383810,-1.0250684,9.699829,-0.23710695
81771685238787,-1.0346485,9.903406,-0.22513184
81771705089723,-0.9987232,9.699829,-0.26105714
81771724944700,-1.094524,9.618399,-0.22992188
81771744799677,-1.0394385,9.620794,-0.34009278
81771764656030,-0.9580079,9.759705,-0.28979737
81771784511135,-0.9651929,9.903406,-0.045505375
81771804366108,-0.9627979,9.750125,-0.081430666
81771824221084,-1.0873389,9.759705,-0.18441652
81771844076061,-0.98914313,9.72857,-0.16525635
81771863941489,-0.8861573,9.7812605,-0.17962648
81771883796721,-0.9651929,9.80521,-0.11256592
81771903652082,-0.86220706,9.635164,-0.28261232
81771923507313,-0.84544194,9.718989,-0.32572266
81771943370615,-0.7209009,9.795630000000001,-0.102985844
81771963226104,-0.6586304000000001,9.826766000000001,-0.102985844
81771983081591,-0.613125,9.848321,-0.31853762
81772002937079,-0.53169435,9.673484,-0.38559815
81772022792568,-0.7041358,9.795630000000001,-0.30177248
81772042648183,-0.71371585,9.759705,-0.2802173
81772062512253,-0.6730005,9.726174,-0.36883304
81772082367998,-0.7664063,9.7740755,-0.2706372
81772102223741,-0.7232959,9.644744000000001,-0.33290774
81772122079357,-0.73048097,9.927357,-0.29937744
81772141935102,-0.613125,9.920172,-0.23950197
81772161795490,-0.5963599,9.793235000000001,-0.28261232
81772181651362,-0.7807764,9.948912,-0.19399660000000002
81772201507235,-0.5412744,9.807606,-0.43110353
81772221363106,-0.60833496,10.291399,-0.2682422
81772241216113,-0.6442603,10.128538,-0.18920656
81772261071730,-0.5460645000000001,9.575289,-0.3784131
81772280927473,-0.9244776,10.162068,-0.2682422
81772300783217,-0.6993457,10.073453,-0.29698244
81772320638962,-0.5604346,9.769285,-0.15088624
81772340494705,-0.8214916999999999,10.001602,-0.13172609
81772360349614,-0.6730005,9.889036,-0.50774413
81772380205231,-0.6945557,10.003997,-0.18441652
81772400060976,-0.60354495,9.898616,-0.06227051
81772419916721,-0.7544312,10.111773,-0.23231691
81772439772466,-0.7089258,10.037527,-0.34967285
81772459614767,-0.55324954,9.618399,-0.32093263
81772479470128,-0.87418216,10.111773,-0.18681154
81772499325617,-0.66342044,10.025552000000001,-0.43589357
81772519180978,-0.5724097,9.82437,-0.3520679
81772539032815,-0.732876,10.104588,-0.14130616
81772558888176,-0.5963599,9.83874,-0.46942386
81772578743537,-0.80712163,9.924961,-0.44547364
81772598599026,-0.9244776,9.82437,-0.102985844
81772618454387,-0.79754156,9.912986,-0.19878663
81772638309748,-0.4167334,9.721385,-0.37362307
81772658161019,-0.22034179999999998,10.075847999999999,-0.69695073
81772678016380,-0.24189699,10.732083,-0.50534916
81772697871741,-0.038320314,10.109378,-0.42391850000000003
81772717727102,-0.18681154,9.821976,-0.5364844
81772737582335,-0.5005590999999999,9.814791,-0.34488282
81772757435252,-0.45026368,9.702225,-0.6011499
81772777290593,-0.44307864,10.121353,-0.3520679
81772797145954,-0.12933107,9.82437,-0.38080812
81772817001185,-0.10777588,10.039923,-0.3305127
81772836856545,-0.32093263,10.032737,-0.035925295
81772856711906,-0.05748047,9.639954,-0.21076173
81772876559105,0.122146,10.030342,-0.22273682
81772896414209,0.22513184,9.903406,-0.38080812
81772916269442,0.20118165,9.829161000000001,-0.27542725
81772936124545,-0.047900394000000006,9.905801,0.021555176000000002
81772955969284,-0.17004639,9.901011,0.021555176000000002
81772975824133,-0.10777588,10.042317,-0.16046631
81772995679108,-0.2083667,9.917776,-0.3161426
81773015533956,-0.2682422,9.72378,-0.11496094
81773035388933,-0.366438,10.075847999999999,0.1580713
81773055234784,-0.31853762,10.097403,0.011975098
81773075089376,-0.244292,10.001602,-0.2682422
81773094943969,-0.26345217,10.126142999999999,-0.59156984
81773114798688,-0.31135255,9.836346,-0.89573735
81773134653280,-0.39517823,10.248289,-0.87178713
81773154507873,-0.366438,10.660233,-0.71371585
81773174357620,-0.0071850587,10.820699000000001,-1.0274634
81773194212212,0.06706055,11.141631,-0.8095166
81773214066677,0.100590825,11.697275999999999,-0.5460645000000001
81773233921142,0.26584718,12.255316,-0.22752686
81773253780176,1.0274634,12.260105000000001,0.06706055
81773273634769,1.3915064,12.240946000000001,0.34248779999999995
81773293489232,1.4729371,11.864927,1.1759547
81773313343824,1.951941,11.144027000000001,1.6717237
81773333198289,1.7651293999999997,10.487791,1.7339942
81773353048461,1.4825171,10.071057000000001,1.1879296999999998
81773372902798,0.65384036,10.135722999999999,-0.7448511
81773392757135,-0.5005590999999999,10.492581,-2.4453151
81773412611472,-0.48379397,10.248289,-3.2380664
81773432465937,-1.1951148999999999,10.34888,-1.5376027
81773452320274,-2.943479,11.637400999999999,-0.47181886
81773472184411,-5.1732426,13.467195499999999,-1.1352394
81773492038876,-8.0017605,14.616805,-0.488584
81773511893341,-5.8055277,13.752203,1.7315991999999998
81773531747934,-2.9003687,11.821816,1.7507593999999997
81773551602399,-0.91729254,9.469908,0.22034179999999998
81773571460746,1.7890796999999998,7.513176400000001,-2.0166066000000002
81773591315339,2.0525317,7.436536,-1.22625
81773611169932,0.6514453,7.031778,-0.6993457
81773631024525,0.39278322,5.968389,-0.74006104
81773650879118,-0.31135255,5.0918117,-0.7185059
81773670743055,-1.1543995,4.3110349999999995,1.2885206
81773690597904,-2.6057813,3.4655932999999997,3.0656252
81773710452625,-3.9182522000000004,3.896697,2.8931837000000002
81773730307474,-2.1866529999999997,4.8355445999999995,3.3482375
81773750162323,-1.0562036,5.1612673,3.7386258000000003
81773770023120,-1.2358301999999999,5.1947975,3.0344898999999996
81773789877950,-1.2765454,5.740862,3.7098854
81773809735679,-1.5639478,7.290439599999999,5.1397123
81773829590655,-0.9412427,10.9069195,7.252119500000001
81773849445631,1.8561403000000003,15.282620000000001,8.387359
81773869303435,3.7146754,15.332915,8.044871
81773889158539,1.8896705000000003,9.730965,6.998247
81773909013643,-0.6179150999999999,7.244934599999999,6.212681
81773928868747,-1.3627661,13.967754000000001,4.679868
81773948723851,-2.0980372000000003,25.356073000000002,-2.8452832999999997
81773968583845,-5.6498513,19.45714,-11.826607000000001
81773988439077,-4.0356083,3.4488282,-2.430945
81774008294309,-6.5384035,-2.3878345000000003,9.553733
81774028149669,-9.695039999999999,2.5962012000000003,9.395662
81774048004901,-5.3408937000000005,10.123747999999999,-2.3351439999999997
81774067855751,-3.051255,11.896063,-7.764653699999999
81774087710855,-0.6658155,11.670931,-12.899576
81774107566087,2.8620484,10.799144,-8.296348
81774127421191,5.237908,9.407638,-4.940925599999999
81774147276423,6.06419,8.995694,-0.43110353
81774167131132,6.255791,10.380015,8.011341
81774186986365,-0.0023950195999999997,10.710527,-3.1973512000000004
81774206841595,-0.4167334,7.7359133,-3.307522
81774226696699,0.0071850587,8.140672,1.2861254999999998
81774246551931,0.18441652,9.70941,1.6070582
81774266411905,0.0,9.426797,-0.6322852
81774286267137,0.5340894,8.377778999999999,0.7783814
81774306122497,0.79035646,9.086704,2.7806177000000005
81774325977729,1.590293,9.228010000000001,1.4130616000000003
81774345833090,2.0237916,9.493857,-0.93405765
81774365687963,1.214275,10.87818,-0.2945874
81774385543324,1.1160791,11.112891000000001,0.74006104
81774405398685,2.5985963,10.380015,-0.32093263
81774425254046,1.1951148999999999,10.638678,1.2645704
81774445109407,-2.1411476,12.216994999999999,1.9471509999999999
81774464963610,-5.4103494,15.282620000000001,2.8596535
81774484818971,-6.349197,16.063396,1.3771361999999998
81774504674204,-4.830754799999999,15.033538,-2.3734642999999997
81774524529565,-3.5925295,15.191609,-3.8296362999999998
81774544384798,-5.415139,14.755716,-0.5628295999999999
81774564231675,-10.2315235,13.155842999999999,4.864285
81774584086908,-5.606741,10.851834,3.1231055
81774603942013,0.50774413,10.459050999999999,-2.189048
81774623797118,3.515889,9.958491,-1.5040723
81774643652223,2.9961696,8.004155,0.18920656
81774663499342,1.1687696,6.715635000000001,-0.4622388
81774683354191,-0.69216067,4.998406,-0.81191164
81774703209168,-1.8106349,3.2476466,-0.9244776
81774723064017,-2.3734642999999997,2.2680835999999998,0.33769777
81774742918994,-2.4788454,2.9051588,3.06802
81774762775941,-2.8740237,4.040398000000001,3.6308498
81774782630918,-2.1076174,5.1947975,3.4392480000000005
81774802485745,0.05508545,6.241421,3.3554225
81774822340593,1.5639478,6.404282599999999,3.6332447999999995
81774842195441,1.8226098999999998,6.830596000000001,6.191126000000001
81774862046298,1.2717555,8.959767999999999,9.620794
81774881901146,2.7590625,13.182188,9.472302
81774901755994,5.374423999999999,15.656243,6.907236599999999
81774921610842,2.9243189999999997,11.987072999999999,5.7887626
81774941465690,-2.0237916,7.92512,5.2929935
81774961323781,-2.2441335,10.688972,4.8834453
81774981178629,-2.938689,17.840501999999997,-0.6466553
81775001033477,-18.353035000000002,21.229454,-8.018526
81775020888325,-6.0330544,5.8103175,0.5484595
81775040743173,-1.7723145,-0.28500733,1.9830762
81775060596479,-3.9805226,6.737190200000001,0.23710695
81775080451327,-5.376819,12.377461,-2.565066
81775100306175,-4.7517190000000005,14.109060000000001,-8.035291
81775120161023,1.7842896000000001,12.121195,-9.14658
81775140015871,4.0427933,9.474698,-4.021237999999999
81775159870719,2.926714,7.917935000000001,0.07664063
81775179721532,0.7807764,8.899892999999999,5.0846267
81775199576253,-0.8765772,10.540482,-0.39996827
81775219430974,1.2166698999999999,9.541758999999999,-4.591253
81775239285695,2.193838,8.320298,-2.8165430000000002
81775259140540,2.4525,9.390872,1.8824854
81775279005992,3.774551,10.145303,2.7973828
81775298860968,4.030818,9.829161000000001,-0.73048097
81775318715944,2.8740237,9.251961,-0.61073
81775338570920,2.2680835999999998,9.19927,-0.5029541000000001
81775358425897,0.33769777,9.481883,0.6849755999999999
81775378282426,-1.6190332,10.274633999999999,2.560276
81775398137403,-1.3196558,9.627979,0.97237796
81775417992508,-0.21555176,10.049502,0.5987549
81775437847485,0.6706055000000001,11.915223,0.53169435
81775457702590,0.11017089999999999,12.439732000000001,1.1160791
81775477561941,-0.24908204,11.7930765,2.2465284
81775497417046,-0.20118165,10.540482,2.0525317
81775517272151,0.48379397,9.726174,0.30895755
81775537127256,-0.11496094,11.0123005,-2.320774
81775556982361,-1.7363893,14.180910999999998,-2.7901978
81775576832308,-1.7076490000000002,13.989309,-1.0514137
81775596687285,-3.1494508,11.436219,-2.3016137999999997
81775616542262,-4.394861,11.623031,-5.391189
81775636397239,-6.171965599999999,13.625267000000001,-2.8644435
81775656252344,-10.310559,13.821658,4.414021
81775676108821,-6.2989016,12.844489999999999,4.239185
81775695963798,-1.9327808999999998,11.479329,-1.710044
81775715818903,-0.9484278,10.286610000000001,-2.6369166
81775735673863,-2.1483326000000003,9.261541000000001,-0.23950197
81775755528967,-0.21315674,8.068821,-1.6166383
81775775389753,-1.0130934,8.143066000000001,-0.48618898
81775795244857,-1.1136841999999998,6.547983599999999,-0.05748047
81775815099593,0.24908204,3.4967287000000002,-1.2645704
81775834954697,0.66342044,2.8452832999999997,1.0083033000000001
81775854809801,0.031135255,3.671565,2.3926246
81775874665222,-0.33530274,4.4475513,1.7938697000000001
81775894520326,-1.5376027,4.833149400000001,1.4897022
81775914375558,-1.099314,5.618716200000001,1.0178833
81775934230790,-0.043110352000000005,6.9886675,1.6357985000000002
81775954085894,0.6227050999999999,8.928633,4.229604699999999
81775973941632,1.0346485,11.843372,8.641231
81775993796864,1.4274316999999999,13.143867499999999,8.475974
81776013652096,1.1975098,11.254197,4.0787187000000005
81776033507328,0.8669971,7.719148,3.661985
81776053362432,-0.22273682,5.484595,6.6246243
81776073215226,-2.1674929,5.8821683,5.6498513
81776093070458,-1.9854711999999999,6.758744999999999,3.2189064
81776112925563,-0.64186525,7.553891999999999,3.3099171999999997
81776132780796,-0.9532178,8.552615,2.2106032000000004
81776152636026,-2.5411158,13.155842999999999,-0.5245093000000001
81776172495086,-4.1050634,22.985003,-3.6068995000000004
81776192350318,-10.693763,28.424093,10.351274499999999
81776212205550,-5.724097,9.726174,7.951465
81776232060782,1.949546,0.0,-8.993299
81776251916142,1.0442286,3.6643800000000004,-5.716912000000001
81776271773891,1.0729688,6.959927,-0.98195803
81776291629124,0.20118165,10.152488,-2.914739
81776311484485,-0.102985844,12.410992,-7.1132083
81776331339718,1.3148658000000002,11.733201,-3.784131
81776351194951,-1.0250684,10.265054,4.4355764
81776371054272,-2.2058132,9.707015,8.612491
81776390909633,-1.8681153000000001,8.897497999999999,-2.299219
81776410764994,0.059875492,8.684341,-4.687053
81776430620483,-1.1567944,9.939331,-1.22625
81776450475844,-0.91729254,10.265054,-0.102985844
81776470321769,-0.14370118,10.490186,0.10777588
81776490176874,0.035925295,10.265054,-0.52690434
81776510032107,0.100590825,9.017249000000001,-2.2513185
81776529887340,-1.4585668999999999,9.034013999999999,0.42870852
81776549742445,-3.6643800000000004,10.265054,3.3147073
81776569592624,-3.3434474,10.638678,-0.79754156
81776589447729,-1.710044,9.412427000000001,-2.4453151
81776609302962,-1.9136206999999998,9.81958,-0.6682104999999999
81776629158067,-0.5029541000000001,10.832674,-2.0932472
81776649013172,1.0083033000000001,10.346485000000001,-2.550696
81776668863091,0.78556645,9.702225,-0.5724097
81776688718068,0.1580713,9.692644,0.17244141
81776708573045,0.90771246,9.15137,-1.0777588
81776728428000,1.7483643,8.950189,-1.4082716
81776748282977,1.4250367,9.254355,-1.4513819
81776768134886,-0.0047900393,9.903406,-1.4920973
81776787989733,-1.4992822000000001,10.233919,-1.4322218
81776807844581,-2.1052222,10.097403,-1.0657837
81776827699429,-1.5519726999999999,9.64714,-0.7185059
81776847554277,-0.84544194,9.783655,-0.43589357
81776867405754,-0.98195803,9.541758999999999,-0.5460645000000001
81776887260602,-0.9268726,9.297466,-1.5160475
81776907115450,-1.0609937,9.5561285,-1.7411792000000001
81776926970298,-1.4298267,9.7812605,-0.77359134
81776946825146,-1.6405883999999997,9.6615095,-0.33290774
81776966681451,-1.6166383,9.445957,-0.8310718
81776986536299,-1.7771046000000001,9.307046000000001,-0.9053174
81777006391147,-1.7459692999999998,9.352551,-1.101709
81777026245995,-1.5328126,9.460327000000001,-1.5352076000000001
81777046100843,-1.465752,9.735755000000001,-1.4322218
81777065957855,-1.4130616000000003,9.946517,-1.1041040000000002
81777085812703,-0.98195803,9.8938265,-0.9388476999999998
81777105667679,-0.7448511,9.802814999999999,-0.62989014
81777125522527,-0.8669971,9.788445,-0.43589357
81777145377503,-1.0849438999999999,9.793235000000001,-0.57719976
81777165230803,-1.22625,9.491463000000001,-0.8167017
81777185085523,-1.2741505,9.474698,-0.5891748
81777204940371,-1.0705738,9.570497999999999,-0.51492923
81777224795092,-0.8885523000000001,9.596844,-0.49816409999999994
81777244649939,-0.8478370000000001,9.64714,-0.43589357
81777264506596,-0.9364527,9.690249,-0.4526587
81777284361444,-1.1424243,9.580078,-0.4622388
81777304216292,-1.2669654,9.498648,-0.6059399999999999
81777324071012,-1.3603711,9.462723,-0.7711963000000001
81777343925860,-1.5399976,9.587264,-0.6011499
81777363784121,-1.5471827,9.618399,-0.3520679
81777383638970,-1.456172,9.592053,-0.26345217
81777403493947,-1.5423926000000001,9.606423,-0.28740236
81777423348924,-1.6334034,9.515413,-0.43589357
81777443203773,-1.6836988000000002,9.407638,-0.49576905
81777463063608,-1.6525636000000001,9.433982,-0.244292
81777482918585,-1.5519726999999999,9.462723,-0.1341211
81777502773562,-1.5399976,9.7812605,-0.244292
81777522628539,-1.6381934999999999,10.015972,-0.19399660000000002
81777542483644,-1.6286133999999999,9.692644,-0.09101075
81777562316487,-1.5591576999999999,9.431587,-0.14370118
81777582171080,-1.6477735,9.481883,-0.117355965
81777602025673,-1.6717237,9.635164,-0.1580713
81777621880266,-1.3747413,9.853110000000001,-0.28500733
81777641734731,-0.9484278,9.759705,-0.22513184
81777661589324,-0.4622388,9.342972,-0.5891748
81777681444099,-0.4143384,9.177715,-0.4167334
81777701298564,-0.6394701999999999,9.239985,0.045505375
81777721153157,-1.1280543,9.577683,0.5388794
81777741007622,-1.3172607,9.79084,0.85023195
81777760862087,-1.2957056999999998,10.078242,0.6442603
81777780653307,-1.2070899,9.833950999999999,-0.244292
81777800506619,-1.0777588,9.402847,-0.364043
81777820364441,-1.0777588,9.290281,-0.035925295
81777840217753,-0.9699829,9.651928999999999,0.13651612
81777860071193,-0.9148975,9.922566,0.49337405
81777879944779,-0.7831714,9.73815,0.40954837
81777899798475,-1.0801538,9.592053,0.18681154
81777919652171,-1.5974781999999998,9.572892999999999,0.2083667
81777939505867,-1.8513502,9.536968,0.33290774
81777959359563,-1.9663111,9.493857,0.57959473
81777979239877,-1.6262183000000001,9.539363,0.62031007
81777999094085,-1.0609937,9.623189,0.39278322
81778018948293,-0.63707525,9.589659,0.30177248
81778038802501,-0.29698244,9.68067,0.45505372
81778058656709,-0.1580713,9.833950999999999,0.58677983
81778078503237,-0.24189699,9.924961,0.78556645
81778098357189,-0.5843848,9.845925,0.8813671999999999
81778118211141,-0.855022,9.659114,0.7592211999999999
81778138065221,-0.98435307,9.649534,0.80233157
81778157919173,-0.8095166,9.611214,0.7209009
81778177790082,-0.5939649,9.527389,0.64186525
81778197644419,-0.6179150999999999,9.558523,0.6227050999999999
81778217498628,-0.8478370000000001,9.5489435,0.48618898
81778237352834,-1.099314,9.541758999999999,0.45505372
81778257207042,-1.1615845,9.517808,0.61073
81778277079597,-1.0514137,9.414823,0.7951465
81778296934189,-0.9388476999999998,9.455538,0.90052736
81778316788781,-0.8909473,9.515413,0.9268726
81778336643373,-0.974773,9.546548,0.9148975
81778356497966,-1.0202783000000002,9.524992999999998,0.84544194
81778376371923,-1.0154883,9.496253,0.8430469
81778396226900,-1.0226734,9.558523,0.8646021
81778416081877,-1.0633887,9.6686945,0.8334668
81778435936854,-1.1064991000000002,9.6758795,0.90052736
81778455791831,-1.1041040000000002,9.551338000000001,0.9436377
81778475654476,-1.0585986,9.467513,0.8430469
81778495509581,-1.0178833,9.383687,0.7568262
81778515364686,-1.0274634,9.366921000000001,0.732876
81778535219791,-1.1400293,9.390872,0.49337405
81778555074896,-1.1999048,9.295072,0.2682422
81778574931871,-1.0753639,9.278306,0.3784131
81778594787104,-0.9268726,9.319021000000001,0.23710695
81778614642337,-1.096919,9.398057000000001,0.045505375
81778634497570,-1.3004956,9.625584,0.34727785
81778654352803,-1.4609618999999998,9.891430999999999,0.7041358
81778674214520,-1.4585668999999999,9.910591,0.7759864000000001
81778694070009,-1.1807446000000001,9.745335,0.67539555
81778713925370,-1.1232642,9.941727,0.09580079
81778733780731,-1.3483961000000002,10.171648,0.4023633
81778753636220,-1.2933106,10.202784,0.74724615
81778773496954,-0.9029224,10.018367,0.60354495
81778793352570,-0.5005590999999999,9.7740755,0.37122804
81778813208186,-0.45026368,9.570497999999999,0.17483643
81778833063802,-0.68737066,9.398057000000001,-0.038320314
81778852919418,-0.9651929,9.553733,0.10538086
81778872782269,-1.22625,9.881851,0.29937744
81778892638141,-1.1759547,10.023157000000001,0.13651612
81778912494013,-0.94603276,10.061478,-0.10538086
81778932350013,-0.9268726,9.927357,-0.20357667
81778952205885,-1.0418334999999999,9.721385,-0.13891114
81778972070126,-1.1088941,9.783655,0.06945557
81778991926254,-0.8382569,9.616004,-0.16046631
81779011782510,-0.70174074,9.608819,-0.32572266
81779031638638,-0.8598120000000001,9.73815,-0.41194338
81779051494894,-1.0418334999999999,9.704619000000001,-0.39996827
81779071355185,-1.099314,9.707015,-0.45026368
81779091211697,-1.0442286,9.826766000000001,-0.3784131
81779111068209,-0.9268726,9.881851,-0.30177248
81779130924721,-0.87418216,9.817185,-0.4742139
81779150781233,-1.0059083,9.7142,-0.61552006
81779170626648,-1.0322535,9.721385,-0.49097902
81779190482905,-0.8765772,9.70941,-0.25387207
81779210339162,-0.81909674,9.6758795,-0.22034179999999998
81779230195416,-0.92926764,9.642349000000001,-0.46463382
81779250051672,-0.98195803,9.6758795,-0.5340894
81779269907413,-0.8214916999999999,9.726174,-0.3520679
81779289763797,-0.7879615,9.807606,-0.32332766
81779309620181,-0.9316626,9.78605,-0.41194338
81779329476565,-0.852627,9.7812605,-0.44068359999999995
81779349332950,-0.7232959,9.853110000000001,-0.42152345
81779369150509,-0.80712163,9.843531,-0.31374758
81779389005614,-0.92926764,9.750125,-0.4143384
81779408860591,-1.0562036,9.589659,-0.5460645000000001
81779428715696,-1.0394385,9.580078,-0.46463382
81779448570801,-0.99393314,9.841136,-0.39996827
81779468426600,-0.94603276,9.987232,-0.34009278
81779488281705,-1.0202783000000002,9.896221,-0.41194338
81779508136810,-1.0681788,9.70941,-0.49816409999999994
81779527991787,-1.1567944,9.659114,-0.5748047
81779547846892,-1.1951148999999999,9.6758795,-0.6011499
81779567703087,-1.1927198,9.716595,-0.5556446
81779587558192,-1.1280543,9.68067,-0.5508545
81779607413425,-1.0873389,9.601633999999999,-0.6442603
81779627268530,-1.0178833,9.623189,-0.7041358
81779647123763,-1.0250684,9.718989,-0.7113208000000001
81779666970852,-1.0585986,9.81,-0.6562354
81779686825701,-1.0202783000000002,9.826766000000001,-0.60833496
81779706680422,-0.98195803,9.814791,-0.5460645000000001
81779726535271,-0.9316626,9.6686945,-0.62989014
81779746390120,-0.9268726,9.599238,-0.6993457
81779766250863,-0.974773,9.587264,-0.74006104
81779786105693,-1.0514137,9.651928999999999,-0.66342044
81779805960669,-0.95561284,9.702225,-0.5676197
81779825814069,-0.94603276,9.932146000000001,-0.50534916
81779845669045,-0.96758795,9.939331,-0.49576905
81779865524271,-0.8478370000000001,9.802814999999999,-0.5939649
81779885379247,-0.8095166,9.721385,-0.57959473
81779905234351,-0.77359134,9.577683,-0.55324954
81779925089327,-0.7496411000000001,9.68067,-0.51732427
81779944944303,-0.852627,9.793235000000001,-0.48379397
81779964806173,-0.8598120000000001,9.788445,-0.56522465
81779984661277,-0.8981324,9.860296,-0.5748047
81780004516509,-0.8430469,9.884246000000001,-0.5556446
81780024371741,-0.7209009,9.766891000000001,-0.55803955
81780044226973,-0.8262818000000001,9.7142,-0.6011499
81780064079572,-0.9388476999999998,9.632769,-0.76401126
81780083934804,-0.8909473,9.570497999999999,-0.76401126
81780103789908,-0.855022,9.659114,-0.61073
81780123645140,-0.8286768,9.800421,-0.5604346
81780143500372,-0.8430469,9.836346,-0.5963599
81780163349637,-0.80233157,9.898616,-0.6945557
81780183204614,-0.77359134,9.874666,-0.69216067
81780203059591,-0.7711963000000001,9.81958,-0.69695073
81780222914696,-0.852627,9.721385,-0.6777906
81780242769669,-0.9148975,9.616004,-0.72569096
81780262624645,-0.97956306,9.580078,-0.81191164
81780282483186,-0.9388476999999998,9.620794,-0.82388675
81780302338290,-1.0059083,9.716595,-0.81191164
81780322193394,-1.1448194,9.793235000000001,-0.80712163
81780342048498,-1.1472143999999997,9.850716,-0.8143066999999999
81780361903603,-1.0466236,9.869876,-0.7448511
81780381762022,-0.87897223,9.730965,-0.7951465
81780401617127,-0.9148975,9.690249,-0.9268726
81780421472360,-1.0106983,9.690249,-0.9364527
81780441327465,-0.974773,9.594449000000001,-0.76401126
81780461182570,-0.9484278,9.618399,-0.6706055000000001
81780481029427,-1.0705738,9.704619000000001,-0.7496411000000001
81780500884404,-0.98435307,9.75252,-0.9436377
81780520739381,-0.8047266,9.79084,-0.87418216
81780540594358,-0.78556645,9.826766000000001,-0.6658155
81780560449335,-0.9268726,9.833950999999999,-0.5963599
81780580296656,-1.0226734,9.7740755,-0.62749517
81780600151505,-0.9651929,9.642349000000001,-0.7496411000000001
81780620006482,-0.91729254,9.560919,-0.8095166
81780639861331,-0.8885523000000001,9.64714,-0.73527104
81780659716180,-0.8310718,9.848321,-0.6586304000000001
81780679567067,-0.72569096,9.8938265,-0.7041358
81780699421788,-0.6777906,9.79084,-0.7711963000000001
81780719276637,-0.7592211999999999,9.711803999999999,-0.8262818000000001
81780739131339,-0.98435307,9.678274,-0.855022
81780758986059,-1.0083033000000001,9.613608000000001,-0.75203615
81780778842717,-0.90052736,9.6615095,-0.7448511
81780798697437,-0.8598120000000001,9.75252,-0.9508228000000001
81780818552157,-0.9699829,9.841136,-1.1496094
81780838407005,-0.9867481,9.733359,-1.0370435
81780858261725,-0.88376224,9.553733,-0.81909674
81780878119700,-0.83586186,9.64714,-0.69216067
81780897974548,-0.8167017,9.80521,-0.78556645
81780917829396,-0.8143066999999999,9.764495,-0.90052736
81780937684116,-0.8262818000000001,9.6686945,-0.728086
81780957538964,-0.80712163,9.618399,-0.60354495
81780977399103,-0.73527104,9.711803999999999,-0.5340894
81780997253951,-0.62749517,9.795630000000001,-0.68976563
81781017108799,-0.6394701999999999,9.836346,-0.7831714
81781036963775,-0.7161109,9.793235000000001,-0.67539555
81781056818623,-0.79993653,9.730965,-0.59156984
81781076674940,-0.9484278,9.79084,-0.4263135
81781096529916,-0.9436377,9.788445,-0.5221143
81781116384892,-0.80712163,9.81,-0.55803955
81781136239741,-0.7376661,9.683064,-0.6514453
81781156094718,-0.7711963000000001,9.618399,-0.57001466
81781175950381,-0.8095166,9.77168,-0.3903882
81781195805357,-0.87418216,9.960887,-0.2945874
81781215660205,-0.8909473,9.874666,-0.4263135
81781235515181,-0.91729254,9.687855,-0.5963599
81781255370029,-0.83586186,9.7621,-0.53169435
81781275233580,-0.7185059,9.939331,-0.42870852
81781295088557,-0.6658155,9.857901,-0.49576905
81781314943662,-0.7568262,9.6758795,-0.5508545
81781334798767,-0.64186525,9.611214,-0.52690434
81781354653872,-0.44786867,9.721385,-0.5221143
81781374508977,-0.3784131,9.829161000000001,-0.5724097
81781394362994,-0.49337405,9.7740755,-0.5891748
81781414218099,-0.6322852,9.663903999999999,-0.5843848
81781434073332,-0.7113208000000001,9.795630000000001,-0.5388794
81781453928437,-0.84544194,9.948912,-0.52690434
81781473783542,-0.8143066999999999,9.826766000000001,-0.5843848
81781493637507,-0.7951465,9.75731,-0.5676197
81781513492612,-0.6945557,9.735755000000001,-0.60833496
81781533347717,-0.6849755999999999,9.77168,-0.72569096
81781553202822,-0.852627,9.783655,-0.69216067
81781573057799,-0.86220706,9.697434,-0.5364844
81781592918054,-0.7879615,9.68067,-0.5388794
81781612773287,-0.67539555,9.72378,-0.6706055000000001
81781632628520,-0.60833496,9.750125,-0.68976563
81781652483753,-0.5891748,9.754914999999999,-0.57001466
81781672338986,-0.62749517,9.740545,-0.49816409999999994
81781692190945,-0.6610254,9.7740755,-0.6945557
81781712046178,-0.6322852,9.644744000000001,-0.9148975
81781731901283,-0.6562354,9.678274,-0.81191164
81781751756495,-0.7759864000000001,9.798025,-0.5508545
81781771611599,-0.852627,9.912986,-0.5891748
81781791473965,-1.0154883,9.941727,-0.74006104
81781811329325,-0.9627979,9.735755000000001,-0.86220706
81781831184603,-0.9148975,9.623189,-0.852627
81781851039963,-0.8813671999999999,9.685459,-0.78556645
81781870895195,-0.8669971,9.869876,-0.8214916999999999
81781890746626,-0.92926764,9.793235000000001,-0.855022
81781910601858,-0.9651929,9.577683,-0.81191164
81781930457090,-0.9412427,9.589659,-0.7424561
81781950312450,-0.83586186,9.683064,-0.7807764
81781970167682,-0.7089258,9.726174,-0.85741705
81781990026419,-0.68976563,9.726174,-0.7161109
81782009881907,-0.62749517,9.711803999999999,-0.52690434
81782029737267,-0.54366946,9.718989,-0.45744875
81782049592755,-0.57719976,9.630374,-0.52690434
81782069448243,-0.6993457,9.376502,-0.5604346
81782089299379,-0.7879615,9.419611999999999,-0.43349856
81782109154739,-0.7592211999999999,9.687855,-0.3065625
81782129010099,-0.6466553,9.992022,-0.32572266
81782148865331,-0.6706055000000001,10.147698,-0.4023633
81782168720691,-0.9196875,10.059082,-0.5556446
81782188571838,-1.2166698999999999,9.877061,-0.4526587
81782208426943,-1.1615845,9.6758795,-0.4023633
81782228282174,-1.0130934,9.6686945,-0.43589357
81782248137278,-0.8861573,9.695039999999999,-0.5460645000000001
81782267992510,-0.75203615,9.6615095,-0.59156984
81782287846564,-0.7232959,9.730965,-0.54366946
81782307701668,-0.7232959,9.766891000000001,-0.5484595
81782327556772,-0.73527104,9.798025,-0.61073
81782347411876,-0.9029224,9.917776,-0.6346801999999999
81782367266980,-1.0562036,9.836346,-0.6777906
81782387125369,-1.1855347,9.7812605,-0.74006104
81782406980602,-1.2310401000000002,9.690249,-0.728086
81782426835707,-1.0562036,9.618399,-0.74006104
81782446690940,-0.87418216,9.623189,-0.7089258
81782466546045,-0.7448511,9.673484,-0.855022
81782486398328,-0.6849755999999999,9.754914999999999,-0.8909473
81782506253433,-0.6730005,9.807606,-0.7209009
81782526108538,-0.60354495,9.769285,-0.6658155
81782545963643,-0.61073,9.70941,-0.7041358
81782565818748,-0.6514453,9.711803999999999,-0.7807764
81782585663881,-0.6706055000000001,9.77168,-0.6442603
81782605518858,-0.58198977,9.74773,-0.6011499
81782625373835,-0.58677983,9.697434,-0.66342044
81782645228684,-0.6346801999999999,9.7142,-0.7209009
81782665083661,-0.5987549,9.75252,-0.5724097
81782684929122,-0.5245093000000001,9.6615095,-0.6466553
81782704783843,-0.5508545,9.733359,-0.7544312
81782724638564,-0.66342044,9.874666,-0.6562354
81782744493413,-0.6682104999999999,9.946517,-0.48618898
81782764349632,-0.54366946,9.8938265,-0.5364844
81782784204481,-0.5724097,9.673484,-0.60833496
81782804059182,-0.6514453,9.484278,-0.71371585
81782823913902,-0.7376661,9.649534,-0.7113208000000001
81782843768623,-0.7879615,10.0063925,-0.6011499
81782863623342,-0.6849755999999999,10.035132,-0.4742139
81782883479070,-0.64186525,9.8866415,-0.34967285
81782903333791,-0.60833496,9.759705,-0.38320315
81782923188638,-0.5125342,9.716595,-0.6179150999999999
81782943043486,-0.51971924,9.659114,-0.732876
81782962898207,-0.5508545,9.702225,-0.51013917
81782982756173,-0.68976563,9.81958,-0.23231691
81783002610893,-0.7376661,9.7621,-0.2706372
81783022465742,-0.7448511,9.735755000000001,-0.57719976
81783042320589,-0.8286768,9.81958,-0.61552006
81783062176955,-0.7544312,9.855506,-0.44068359999999995
81783082031676,-0.73527104,9.915381,-0.34727785
81783101886523,-0.8310718,9.721385,-0.42870852
81783121741371,-0.8646021,9.623189,-0.4742139
81783141596092,-0.6777906,9.735755000000001,-0.50774413
81783161450939,-0.5292993,9.968072,-0.50774413
81783181308920,-0.62510014,9.939331,-0.5125342
81783201163769,-0.7161109,9.745335,-0.488584
81783221018616,-0.73527104,9.671089,-0.34967285
81783240873592,-0.6849755999999999,9.745335,-0.31853762
81783260728441,-0.6394701999999999,9.702225,-0.50774413
81783280586358,-0.59156984,9.613608000000001,-0.57719976
81783300441206,-0.60833496,9.716595,-0.4263135
81783320296055,-0.62749517,9.783655,-0.34009278
81783340151032,-0.57719976,9.778865,-0.4047583
81783360008581,-0.65384036,9.953702,-0.47900394
81783379863686,-0.728086,9.956097,-0.5029541000000001
81783399718663,-0.64186525,9.81958,-0.42152345
81783419573640,-0.67539555,9.783655,-0.3903882
81783439428745,-0.6730005,9.642349000000001,-0.49816409999999994
81783459283722,-0.5292993,9.570497999999999,-0.62749517
81783479140539,-0.4742139,9.70941,-0.54366946
81783498995516,-0.38080812,9.72857,-0.42391850000000003
81783518850493,-0.29698244,9.730965,-0.45505372
81783538705470,-0.39278322,9.82437,-0.46463382
81783558560575,-0.48139894,9.963282000000001,-0.56522465
81783578414418,-0.48618898,10.003997,-0.49816409999999994
81783598269395,-0.43110353,9.836346,-0.5029541000000001
81783618124500,-0.43110353,9.685459,-0.6059399999999999
81783637979477,-0.46702883,9.6615095,-0.81191164
81783657834454,-0.48618898,9.740545,-0.728086
81783677689431,-0.38799320000000004,9.754914999999999,-0.62749517
81783697546882,-0.33769777,9.793235000000001,-0.6490503000000001
81783717401859,-0.44547364,9.857901,-0.58677983
81783737256964,-0.45026368,9.783655,-0.64186525
81783757111941,-0.4143384,9.75731,-0.5939649
81783776966951,-0.36883304,9.764495,-0.49576905
81783796822056,-0.2706372,9.795630000000001,-0.5292993
81783816677159,-0.3281177,9.857901,-0.5556446
81783836532135,-0.50774413,9.81,-0.57001466
81783856387240,-0.62510014,9.6758795,-0.52690434
81783876236532,-0.61073,9.639954,-0.51732427
81783896091636,-0.59156984,9.769285,-0.5029541000000001
81783915946869,-0.6346801999999999,9.802814999999999,-0.51013917
81783935801972,-0.6442603,9.75731,-0.46702883
81783955657076,-0.5676197,9.78605,-0.46463382
81783975512309,-0.5748047,9.742939999999999,-0.4167334
81783995372654,-0.5604346,9.616004,-0.4382886
81784015228014,-0.62989014,9.75252,-0.3544629
81784035083375,-0.6466553,9.879456,-0.20118165
81784054938734,-0.5292993,9.860296,-0.31853762
81784074786470,-0.45505372,9.833950999999999,-0.38559815
81784094641703,-0.42152345,9.850716,-0.31853762
81784114496806,-0.51492923,9.929751,-0.19639161
81784134352038,-0.57001466,10.025552000000001,-0.2778223
81784154207271,-0.51492923,9.74773,-0.37122804
81784174062502,-0.49576905,9.611214,-0.45505372
81784193915741,-0.5556446,9.7142,-0.34967285
81784213770846,-0.58198977,9.778865,-0.33769777
81784233625949,-0.61073,9.707015,-0.34967285
81784253481053,-0.5005590999999999,9.742939999999999,-0.30416748
81784273336158,-0.40715334,9.80521,-0.2682422
81784293192814,-0.3544629,9.769285,-0.30416748
81784313047918,-0.42870852,9.817185,-0.3520679
81784332902895,-0.51492923,9.82437,-0.28740236
81784352757998,-0.58198977,9.833950999999999,-0.2706372
81784372614097,-0.5724097,9.836346,-0.24908204
81784392469202,-0.54366946,9.769285,-0.26105714
81784412324307,-0.45026368,9.778865,-0.26584718
81784432179412,-0.43349856,9.831555,-0.22034179999999998
81784452034389,-0.44307864,9.72378,-0.22034179999999998
81784471889494,-0.45026368,9.673484,-0.29698244
81784491736485,-0.48618898,9.754914999999999,-0.26584718
81784511591334,-0.4143384,9.829161000000001,-0.22992188
81784531446183,-0.3161426,9.788445,-0.22752686
81784551301160,-0.40954837,9.922566,-0.19639161
81784571156009,-0.5125342,9.814791,-0.2083667
81784591011192,-0.5245093000000001,9.666299,-0.23950197
81784610866041,-0.59156984,9.735755000000001,-0.26345217
81784630721018,-0.5843848,9.74773,-0.30895755
81784650575867,-0.47900394,9.750125,-0.23231691
81784670429924,-0.53169435,9.8866415,-0.17962648
81784690284773,-0.55803955,9.831555,-0.28261232
81784710139622,-0.5340894,9.721385,-0.29698244
81784729994599,-0.57719976,9.671089,-0.24908204
81784749849448,-0.57959473,9.695039999999999,-0.32093263
81784769704297,-0.5245093000000001,9.867481,-0.33530274
81784789561169,-0.52690434,9.898616,-0.17004639
81784809416146,-0.5676197,9.812395,-0.17962648
81784829270993,-0.6825806,9.73815,-0.28979737
81784849125969,-0.71371585,9.764495,-0.25387207
81784868980818,-0.61552006,9.77647,-0.119750984
81784888836543,-0.5891748,9.659114,-0.17962648
81784908691519,-0.6825806,9.814791,-0.25147706
81784928546368,-0.6610254,9.881851,-0.21794678
81784948401343,-0.5963599,9.81958,-0.14130616
81784968258672,-0.62989014,9.72857,-0.18441652
81784988113649,-0.6466553,9.692644,-0.3161426
81785007968624,-0.6466553,9.78605,-0.24908204
81785027823600,-0.61552006,9.853110000000001,-0.2083667
81785047678577,-0.6777906,9.841136,-0.23710695
81785067533552,-0.68737066,9.745335,-0.30895755
81785087386206,-0.6706055000000001,9.704619000000001,-0.32572266
81785107241183,-0.6993457,9.754914999999999,-0.28500733
81785127096158,-0.64186525,9.754914999999999,-0.2706372
81785146951134,-0.6059399999999999,9.793235000000001,-0.36164796
81785166806111,-0.59156984,9.764495,-0.364043
81785186661676,-0.6442603,9.793235000000001,-0.3065625
81785206516650,-0.7089258,9.833950999999999,-0.28261232
81785226371627,-0.6730005,9.80521,-0.31374758
81785246226602,-0.62749517,9.750125,-0.2802173
81785266081578,-0.6514453,9.754914999999999,-0.31374758
81785285936427,-0.6346801999999999,9.817185,-0.34248779999999995
81785305787408,-0.6227050999999999,9.78605,-0.2706372
81785325642256,-0.64186525,9.726174,-0.25866213
81785345497233,-0.7376661,9.798025,-0.33290774
81785365352082,-0.7496411000000001,9.81,-0.366438
81785385209881,-0.7089258,9.78605,-0.30895755
81785405064858,-0.6777906,9.750125,-0.28500733
81785424919835,-0.6706055000000001,9.685459,-0.33290774
81785444774684,-0.7065308000000001,9.735755000000001,-0.32572266
81785464629661,-0.6586304000000001,9.845925,-0.26345217
81785484487704,-0.59156984,9.845925,-0.17004639
81785504342681,-0.5891748,9.704619000000001,-0.21076173
81785524197658,-0.6849755999999999,9.73815,-0.27542725
81785544052635,-0.67539555,9.788445,-0.20597169
81785563907612,-0.613125,9.8866415,-0.14370118
81785583762589,-0.60833496,9.8866415,-0.23950197
81785603620016,-0.6706055000000001,9.690249,-0.30177248
81785623475121,-0.7448511,9.656719,-0.2083667
81785643330226,-0.7951465,9.81958,-0.12933107
81785663185331,-0.6658155,9.783655,-0.23710695
81785683039326,-0.6466553,9.745335,-0.29698244
81785702894303,-0.71371585,9.695039999999999,-0.22752686
81785722749280,-0.7041358,9.783655,-0.16046631
81785742604257,-0.69695073,9.946517,-0.1820215
81785762459234,-0.7448511,9.800421,-0.24189699
81785782316143,-0.732876,9.623189,-0.26345217
81785802171119,-0.73048097,9.695039999999999,-0.17004639
81785822026096,-0.7544312,9.795630000000001,-0.21076173
81785841881199,-0.7113208000000001,9.802814999999999,-0.24668702
81785861736175,-0.7041358,9.77647,-0.22273682
81785881591280,-0.6849755999999999,9.81,-0.15328126
81785901450223,-0.6945557,9.821976,-0.13651612
81785921305327,-0.70174074,9.699829,-0.21315674
81785941160560,-0.79035646,9.733359,-0.22992188
81785961015663,-0.7448511,9.788445,-0.1820215
81785980871962,-0.6777906,9.798025,-0.1580713
81786000727195,-0.7424561,9.766891000000001,-0.23471193
81786020582426,-0.7879615,9.72378,-0.21794678
81786040437658,-0.82388675,9.793235000000001,-0.16286133
81786060292891,-0.76880133,9.833950999999999,-0.1820215
81786080140936,-0.7041358,9.769285,-0.25866213
81786099995912,-0.7232959,9.6758795,-0.25387207
81786119851017,-0.7831714,9.735755000000001,-0.19639161
81786139705994,-0.7831714,9.841136,-0.16765137
81786159561096,-0.8167017,9.831555,-0.19639161
81786179416073,-0.8286768,9.711803999999999,-0.25387207
81786199271664,-0.80712163,9.7142,-0.26584718
81786219126768,-0.7783814,9.814791,-0.2682422
81786238981745,-0.77359134,9.788445,-0.24189699
81786258836848,-0.79035646,9.833950999999999,-0.23710695
81786278698901,-0.80233157,9.81958,-0.23231691
81786298554006,-0.8765772,9.7621,-0.28740236
81786318409239,-0.855022,9.735755000000001,-0.32332766
81786338264340,-0.7711963000000001,9.635164,-0.38799320000000004
81786358119573,-0.77359134,9.726174,-0.34488282
81786377974676,-0.8214916999999999,9.831555,-0.24189699
81786397825123,-0.8167017,9.862691,-0.24908204
81786417680228,-0.8262818000000001,9.826766000000001,-0.34488282
81786437535331,-0.7831714,9.721385,-0.48139894
81786457390435,-0.77359134,9.685459,-0.45505372
81786477245540,-0.77359134,9.697434,-0.3544629
81786497096992,-0.86220706,9.7740755,-0.27303225
81786516951968,-0.852627,9.754914999999999,-0.33290774
81786536807073,-0.8214916999999999,9.833950999999999,-0.4047583
81786556662048,-0.7496411000000001,9.802814999999999,-0.35925296
81786576515445,-0.71371585,9.733359,-0.3281177
81786596370422,-0.77359134,9.70941,-0.32332766
81786616225397,-0.855022,9.702225,-0.37601808
81786636080501,-0.80712163,9.783655,-0.3281177
81786655935478,-0.67539555,9.817185,-0.28979737
81786675790453,-0.6610254,9.77168,-0.33769777
81786695631831,-0.7783814,9.7621,-0.35925296
81786715486552,-0.84544194,9.83874,-0.39757326
81786735341271,-0.7568262,9.800421,-0.3281177
81786755195991,-0.7185059,9.77647,-0.29937744
81786775050712,-0.80233157,9.764495,-0.34727785
81786794907985,-0.7807764,9.663903999999999,-0.4382886
81786814762705,-0.76880133,9.711803999999999,-0.38080812
81786834617426,-0.8047266,9.814791,-0.32572266
81786854472145,-0.74724615,9.896221,-0.2778223
81786874320893,-0.7448511,9.783655,-0.33769777
81786894175358,-0.855022,9.7142,-0.43589357
81786914029949,-0.90052736,9.716595,-0.4047583
81786933884541,-0.7927515,9.78605,-0.3520679
81786953739134,-0.7807764,9.814791,-0.37362307
81786973593597,-0.85741705,9.75252,-0.41194338
81786993448037,-0.8167017,9.730965,-0.31374758
81787013302502,-0.732876,9.800421,-0.2921924
81787033157093,-0.69695073,9.754914999999999,-0.41194338
81787053011557,-0.7448511,9.716595,-0.41912845
81787072866150,-0.8478370000000001,9.77168,-0.3305127
81787092721753,-0.8143066999999999,9.857901,-0.2706372
81787112576345,-0.70174074,9.855506,-0.2778223
81787132430938,-0.7927515,9.7142,-0.42391850000000003
81787152285401,-0.8861573,9.620794,-0.45984375
81787172145156,-0.79754156,9.690249,-0.31135255
81787191999877,-0.7879615,9.826766000000001,-0.24189699
81787211854468,-0.7927515,9.73815,-0.36164796
81787231709188,-0.86939216,9.7621,-0.44786867
81787251563781,-0.8310718,9.814791,-0.3305127
81787271418372,-0.70174074,9.82437,-0.2682422
81787291278028,-0.7951465,9.718989,-0.34248779999999995
81787311132877,-0.9364527,9.671089,-0.4023633
81787330987596,-0.89573735,9.726174,-0.33769777
81787350842317,-0.7759864000000001,9.7812605,-0.28740236
81787370697038,-0.7448511,9.81958,-0.31135255
81787390556817,-0.8047266,9.793235000000001,-0.39517823
81787410411666,-0.82388675,9.711803999999999,-0.4143384
81787430266515,-0.84544194,9.716595,-0.2802173
81787450121364,-0.80712163,9.711803999999999,-0.2945874
81787469976213,-0.7879615,9.742939999999999,-0.364043
81787489831062,-0.80233157,9.778865,-0.32572266
81787509684301,-0.7592211999999999,9.831555,-0.2945874
81787529539150,-0.76161623,9.77168,-0.3065625
81787549393999,-0.83586186,9.697434,-0.34009278
81787569248848,-0.87897223,9.695039999999999,-0.34248779999999995
81787589107085,-0.7807764,9.735755000000001,-0.2945874
81787608962062,-0.7711963000000001,9.865086,-0.27542725
81787628816911,-0.78556645,9.73815,-0.28979737
81787648671888,-0.81909674,9.625584,-0.36164796
81787668526737,-0.85741705,9.783655,-0.2945874
81787688385268,-0.7759864000000001,9.881851,-0.23231691
81787708240245,-0.72569096,9.7740755,-0.29698244
81787728095222,-0.7879615,9.764495,-0.3784131
81787747950199,-0.79754156,9.754914999999999,-0.3281177
81787767805029,-0.7448511,9.769285,-0.23950197
81787787660006,-0.8933423,9.70941,-0.33530274
81787807515786,-0.8981324,9.666299,-0.4263135
81787827370762,-0.7783814,9.795630000000001,-0.24908204
81787847225867,-0.7496411000000001,9.798025,-0.28261232
81787867080842,-0.8334668,9.74773,-0.39757326
81787886937953,-0.8598120000000001,9.70941,-0.41912845
81787906793186,-0.8598120000000001,9.72378,-0.2778223
81787926650396,-0.8861573,9.77647,-0.22273682
81787946505500,-0.8813671999999999,9.735755000000001,-0.35925296
81787966360733,-0.84544194,9.764495,-0.40954837
81787986215836,-0.7927515,9.750125,-0.31374758
81788006073976,-0.7496411000000001,9.7621,-0.23950197
81788025929081,-0.79993653,9.800421,-0.30895755
81788045784312,-0.87897223,9.788445,-0.32093263
81788065639544,-0.84544194,9.74773,-0.28740236
81788085494777,-0.82388675,9.707015,-0.28261232
81788105348923,-0.85023195,9.692644,-0.32572266
81788125204155,-0.85023195,9.72378,-0.3544629
81788145059388,-0.8334668,9.79084,-0.3305127
81788164914619,-0.84544194,9.807606,-0.23950197
81788184769820,-0.8310718,9.79084,-0.28261232
81788204625053,-0.8646021,9.814791,-0.33530274
81788224480284,-0.85741705,9.75731,-0.2802173
81788244335516,-0.8430469,9.692644,-0.23471193
81788264190749,-0.86939216,9.783655,-0.28500733
81788284046108,-0.8669971,9.807606,-0.24189699
81788303900566,-0.84065187,9.726174,-0.19160157
81788323755671,-0.9053174,9.707015,-0.26105714
81788343610904,-0.86220706,9.7142,-0.29698244
81788363466009,-0.8310718,9.78605,-0.21315674
81788383321242,-0.7831714,9.7812605,-0.19878663
81788403182217,-0.8262818000000001,9.692644,-0.2802173
81788423037578,-0.8669971,9.716595,-0.27542725
81788442892811,-0.9532178,9.829161000000001,-0.26345217
81788462748172,-0.85741705,9.82437,-0.23231691
81788482600301,-0.7711963000000001,9.745335,-0.18681154
81788502455534,-0.84544194,9.702225,-0.30416748
81788522310767,-0.9412427,9.70941,-0.32093263
81788542166000,-0.91250247,9.831555,-0.21315674
81788562021233,-0.79035646,9.812395,-0.17962648
81788581876466,-0.7879615,9.699829,-0.24908204
81788601723385,-0.8646021,9.697434,-0.34248779999999995
81788621578490,-0.84065187,9.7740755,-0.23950197
81788641433467,-0.8167017,9.826766000000001,-0.21315674
81788661288572,-0.81909674,9.754914999999999,-0.244292
81788681143549,-0.9029224,9.800421,-0.27542725
81788700995514,-0.84065187,9.72857,-0.28500733
81788720850472,-0.79993653,9.697434,-0.23710695
81788740705449,-0.83586186,9.68067,-0.30177248
81788760560424,-0.8334668,9.766891000000001,-0.30895755
81788780416532,-0.85741705,9.850716,-0.2706372
81788800271509,-0.87178713,9.802814999999999,-0.28979737
81788820126484,-0.8262818000000001,9.75252,-0.33530274
81788839981460,-0.8262818000000001,9.77647,-0.25866213
81788859836565,-0.81191164,9.721385,-0.25866213
81788879691540,-0.8262818000000001,9.75731,-0.29698244
81788899542384,-0.85741705,9.718989,-0.3161426
81788919397361,-0.7927515,9.79084,-0.28500733
81788939252208,-0.7568262,9.845925,-0.2778223
81788959107184,-0.85741705,9.80521,-0.2802173
81788978962033,-0.90771246,9.678274,-0.28979737
81788998818832,-0.87178713,9.702225,-0.31374758
81789018673808,-0.7807764,9.77168,-0.29937744
81789038528785,-0.76401126,9.80521,-0.24908204
81789058383760,-0.81191164,9.7740755,-0.28740236
81789078238736,-0.8646021,9.766891000000001,-0.33530274
81789098093713,-0.8382569,9.795630000000001,-0.27303225
81789117945439,-0.7879615,9.821976,-0.19639161
81789137800287,-0.8143066999999999,9.766891000000001,-0.2706372
81789157655136,-0.855022,9.704619000000001,-0.44786867
81789177509983,-0.8765772,9.75252,-0.34248779999999995
81789197369319,-0.81191164,9.80521,-0.16765137
81789217224296,-0.81909674,9.829161000000001,-0.19878663
81789237079143,-0.8334668,9.72857,-0.38080812
81789256934119,-0.81191164,9.702225,-0.39517823
81789276789096,-0.7951465,9.754914999999999,-0.24908204
81789296654927,-0.78556645,9.807606,-0.19399660000000002
81789316510032,-0.80233157,9.807606,-0.27542725
81789336365265,-0.80712163,9.678274,-0.364043
81789356220498,-0.8334668,9.697434,-0.32093263
81789376075603,-0.7879615,9.742939999999999,-0.22992188
81789395930836,-0.7664063,9.862691,-0.25866213
81789415784405,-0.79993653,9.812395,-0.25866213
81789435639638,-0.7807764,9.685459,-0.30895755
81789455494743,-0.8047266,9.699829,-0.24668702
81789475349976,-0.8143066999999999,9.766891000000001,-0.25866213
81789495205125,-0.7592211999999999,9.807606,-0.19160157
81789515060230,-0.732876,9.77647,-0.23231691
81789534915335,-0.8214916999999999,9.798025,-0.32093263
81789554770440,-0.7759864000000001,9.79084,-0.23471193
81789574625545,-0.69216067,9.745335,-0.15567628
81789594481824,-0.7759864000000001,9.721385,-0.244292
81789614336929,-0.8646021,9.850716,-0.2778223
81789634192162,-0.7232959,9.766891000000001,-0.19878663
81789654047267,-0.71371585,9.685459,-0.21555176
81789673902500,-0.81909674,9.6686945,-0.2682422
81789693757605,-0.7879615,9.759705,-0.25387207
81789713615064,-0.7161109,9.807606,-0.20597169
81789733470148,-0.7568262,9.759705,-0.20357667
81789753325381,-0.80712163,9.7621,-0.21076173
81789773180612,-0.83586186,9.766891000000001,-0.10538086
81789793043458,-0.78556645,9.627979,-0.22513184
81789812898819,-0.7927515,9.620794,-0.36883304
81789832754178,-0.84065187,9.77647,-0.17244141
81789852609538,-0.7209009,9.860296,-0.023950197000000003
81789872464899,-0.71371585,9.795630000000001,-0.1820215
81789892320258,-0.81909674,9.730965,-0.30416748
81789912170846,-0.79993653,9.733359,-0.15088624
81789932026207,-0.79754156,9.826766000000001,-0.028740235
81789951880592,-0.7544312,9.704619000000001,-0.16765137
81789971735952,-0.76401126,9.68067,-0.2682422
81789991591313,-0.7879615,9.812395,-0.100590825
81790011449854,-0.76880133,9.889036,-0.023950197000000003
81790031305342,-0.76401126,9.867481,-0.1460962
81790051160831,-0.7783814,9.831555,-0.16286133
81790071016190,-0.7496411000000001,9.7740755,-0.122146
81790090870124,-0.728086,9.718989,-0.14370118
81790110725613,-0.7448511,9.75252,-0.1820215
81790130581100,-0.7664063,9.759705,-0.09580079
81790150436589,-0.7376661,9.766891000000001,-0.122146
81790170291950,-0.7664063,9.721385,-0.20118165
81790190147436,-0.8382569,9.692644,-0.21315674
81790209992922,-0.81909674,9.82437,-0.122146
81790229848155,-0.7041358,9.857901,-0.07903565
81790249703386,-0.69216067,9.697434,-0.08622070400000001
81790269558618,-0.8047266,9.702225,-0.22273682
81790289413851,-0.79035646,9.795630000000001,-0.16286133
81790309274841,-0.76880133,9.898616,0.016765138
81790329130073,-0.76880133,9.83874,-0.011975098
81790348985434,-0.6993457,9.625584,-0.18920656
81790368840793,-0.7209009,9.685459,-0.18441652
81790388691990,-0.68976563,9.829161000000001,-0.10538086
81790408547223,-0.7089258,9.821976,-0.06706055
81790428402454,-0.7759864000000001,9.721385,-0.21315674
81790448257686,-0.84544194,9.70941,-0.16525635
81790468112919,-0.73527104,9.817185,-0.09580079
81790487968150,-0.7065308000000001,9.860296,-0.11256592
81790507813331,-0.7089258,9.659114,-0.22034179999999998
81790527668436,-0.852627,9.735755000000001,-0.18441652
81790547523411,-0.8262818000000001,9.692644,-0.08622070400000001
81790567378387,-0.74724615,9.77168,-0.09580079
81790587233364,-0.7185059,9.793235000000001,-0.20357667
81790607085443,-0.7664063,9.81,-0.22034179999999998
81790626940419,-0.7544312,9.783655,-0.11017089999999999
81790646795396,-0.7568262,9.7621,-0.10777588
81790666650243,-0.7376661,9.7812605,-0.17244141
81790686499004,-0.7424561,9.783655,-0.16046631
81790706353725,-0.7185059,9.735755000000001,-0.17723145
81790726208572,-0.79993653,9.72378,-0.17483643
81790746063292,-0.76161623,9.649534,-0.19160157
81790765918013,-0.78556645,9.881851,-0.16286133
81790785772732,-0.69216067,9.79084,-0.16286133
81790805634029,-0.6562354,9.687855,-0.08861572
81790825488878,-0.7831714,9.692644,-0.23950197
81790845343725,-0.78556645,9.742939999999999,-0.2778223
81790865198573,-0.7185059,9.833950999999999,-0.12693603
81790885053422,-0.6730005,9.798025,-0.11256592
81790904907684,-0.732876,9.81,-0.18441652
81790924762660,-0.728086,9.735755000000001,-0.16765137
81790944617509,-0.7161109,9.795630000000001,-0.122146
81790964472356,-0.7089258,9.807606,-0.16046631
81790984327204,-0.70174074,9.778865,-0.1820215
81791004182181,-0.71371585,9.80521,-0.10777588
81791024032323,-0.66342044,9.80521,-0.12454102
81791043887171,-0.6610254,9.73815,-0.17244141
81791063741892,-0.69695073,9.7812605,-0.18681154
81791083596611,-0.7376661,9.783655,-0.15328126
81791103454185,-0.63707525,9.721385,-0.1460962
81791123309034,-0.6658155,9.726174,-0.20357667
81791143163753,-0.6945557,9.793235000000001,-0.15088624
81791163018601,-0.7089258,9.81958,-0.122146
81791182873450,-0.7041358,9.817185,-0.17244141
81791202724439,-0.69216067,9.821976,-0.12933107
81791222579031,-0.6825806,9.836346,-0.09340577
81791242433752,-0.6658155,9.707015,-0.24668702
81791262288471,-0.7568262,9.783655,-0.26584718
81791282143191,-0.6610254,9.848321,-0.15567628
81791301997912,-0.5724097,9.72857,-0.12933107
81791321857841,-0.7209009,9.623189,-0.22752686
81791341712689,-0.87178713,9.829161000000001,-0.28979737
81791361567410,-0.6849755999999999,9.936936,-0.12693603
81791381422257,-0.5364844,9.730965,-0.15328126
81791401278066,-0.7448511,9.656719,-0.2945874
81791421132915,-0.8334668,9.73815,-0.30177248
81791440987890,-0.7113208000000001,9.826766000000001,-0.17004639
81791460842738,-0.62031007,9.75252,-0.117355965
81791480697715,-0.732876,9.78605,-0.22034179999999998
81791500552562,-0.71371585,9.83874,-0.34967285
81791520404383,-0.7161109,9.901011,-0.27303225
81791540259104,-0.5939649,9.6615095,-0.2562671
81791560113951,-0.74006104,9.697434,-0.23950197
81791579968671,-0.8214916999999999,9.699829,-0.32572266
81791599823520,-0.8167017,9.742939999999999,-0.366438
81791619675155,-0.74724615,9.821976,-0.28500733
81791639529875,-0.6322852,9.807606,-0.29937744
81791659384596,-0.63707525,9.841136,-0.3065625
81791679239315,-0.6945557,9.7142,-0.23471193
81791699099529,-0.8214916999999999,9.707015,-0.27542725
81791718954378,-0.8430469,9.73815,-0.30895755
81791738809225,-0.728086,9.783655,-0.3544629
81791758664073,-0.69695073,9.81958,-0.23231691
81791778518922,-0.72569096,9.68067,-0.22992188
81791798373769,-0.86220706,9.81,-0.21794678
81791818221039,-0.85023195,9.898616,-0.19878663
81791838075632,-0.73527104,9.877061,-0.23950197
81791857930223,-0.6586304000000001,9.656719,-0.28500733
81791877784943,-0.6777906,9.606423,-0.2778223
81791897639536,-0.6706055000000001,9.611214,-0.22752686
81791917503489,-0.7185059,9.936936,-0.16046631
81791937351546,-0.6849755999999999,9.965676,-0.244292
81791957206395,-0.6059399999999999,9.630374,-0.41194338
81791977061370,-0.6514453,9.565708,-0.37601808
81791996921173,-0.61552006,9.656719,-0.28740236
81792016776150,-0.5221143,9.802814999999999,-0.34009278
81792036631125,-0.5628295999999999,9.795630000000001,-0.3903882
81792056486229,-0.62031007,9.79084,-0.2682422
81792076341206,-0.5221143,9.77168,-0.26584718
81792096196181,-0.5340894,9.716595,-0.35925296
81792116051564,-0.5987549,9.783655,-0.39278322
81792135906541,-0.47181886,9.850716,-0.39517823
81792155761516,-0.31853762,9.929751,-0.21794678
81792175616492,-0.37601808,9.7740755,-0.24189699
81792195471469,-0.6011499,9.697434,-0.3784131
81792215333356,-0.6658155,9.845925,-0.28740236
81792235188460,-0.35685793,9.7812605,-0.26345217
81792255043565,-0.21076173,9.699829,-0.34488282
81792274898668,-0.40715334,9.788445,-0.2945874
81792294748493,-0.4742139,9.845925,-0.38320315
81792314603470,-0.5939649,9.83874,-0.38559815
81792334458445,-0.6442603,9.75252,-0.4047583
81792354313549,-0.6825806,9.671089,-0.41194338
81792374168526,-0.4526587,9.764495,-0.39278322
81792394023501,-0.4526587,10.039923,-0.3065625
81792413887327,-0.5460645000000001,9.836346,-0.364043
81792433742560,-0.6394701999999999,9.678274,-0.4382886
81792453597791,-0.66342044,9.711803999999999,-0.39278322
81792473453023,-0.6227050999999999,9.656719,-0.39757326
81792493308256,-0.5364844,9.683064,-0.43349856
81792513160391,-0.40715334,9.845925,-0.44068359999999995
81792533015495,-0.4263135,9.946517,-0.35925296
81792552870728,-0.38799320000000004,9.750125,-0.2682422
81792572725959,-0.34488282,9.6758795,-0.3065625
81792592581063,-0.2921924,9.798025,-0.2921924
81792612436296,-0.33290774,9.877061,-0.28500733
81792632283879,-0.44547364,9.74773,-0.2562671
81792652138984,-0.5221143,9.671089,-0.2802173
81792671993961,-0.58198977,9.889036,-0.25147706
81792691849066,-0.5412744,9.939331,-0.2562671
81792711702531,-0.58677983,9.836346,-0.28740236
81792731557508,-0.7232959,9.70941,-0.42391850000000003
81792751412605,-0.72569096,9.68067,-0.34727785
81792771267581,-0.6849755999999999,9.833950999999999,-0.1820215
81792791122686,-0.7232959,9.843531,-0.28740236
81792810976253,-0.66342044,9.795630000000001,-0.39278322
81792830831229,-0.33290774,9.6615095,-0.43589357
81792850686334,-0.4622388,9.726174,-0.36164796
81792870541309,-0.58198977,9.850716,-0.31374758
81792890396285,-0.54366946,9.798025,-0.2682422
81792910251262,-0.47900394,9.613608000000001,-0.32332766
81792930106913,-0.6346801999999999,9.618399,-0.3903882
81792949961889,-0.62031007,9.879456,-0.37122804
81792969816994,-0.4143384,9.922566,-0.23950197
81792989671969,-0.44307864,9.778865,-0.25147706
81793009528384,-0.68018556,9.673484,-0.36164796
81793029383489,-0.6610254,9.699829,-0.39517823
81793049238464,-0.62989014,9.798025,-0.34009278
81793069093568,-0.5987549,9.821976,-0.35685793
81793088948545,-0.5843848,9.77168,-0.364043
81793108801837,-0.61552006,9.7740755,-0.34009278
81793128656941,-0.69695073,9.740545,-0.33769777
81793148511918,-0.58198977,9.783655,-0.2802173
81793168366893,-0.47181886,9.716595,-0.29937744
81793188221869,-0.44786867,9.637559,-0.41912845
81793208076846,-0.60833496,9.699829,-0.39517823
81793227929201,-0.63707525,9.836346,-0.34009278
81793247784048,-0.5987549,9.829161000000001,-0.35925296
81793267639025,-0.5987549,9.795630000000001,-0.44547364
81793287493872,-0.6586304000000001,9.692644,-0.36164796
81793307350914,-0.6706055000000001,9.707015,-0.2945874
81793327205891,-0.68018556,9.769285,-0.38559815
81793347060738,-0.6466553,9.850716,-0.364043
81793366915714,-0.5388794,9.877061,-0.3161426
81793386770691,-0.50534916,9.843531,-0.38320315
81793406622790,-0.54366946,9.690249,-0.46702883
81793426477639,-0.47181886,9.659114,-0.41194338
81793446332360,-0.42391850000000003,9.70941,-0.3903882
81793466187209,-0.5412744,9.692644,-0.5676197
81793486042058,-0.62749517,9.64714,-0.62510014
81793505896907,-0.5724097,9.769285,-0.4167334
81793525753248,-0.5340894,9.826766000000001,-0.4047583
81793545608097,-0.54366946,9.778865,-0.51732427
81793565462946,-0.45984375,9.733359,-0.5724097
81793585317795,-0.4023633,9.80521,-0.4526587
81793605171826,-0.49337405,9.821976,-0.4167334
81793625026675,-0.6562354,9.75252,-0.51971924
81793644881652,-0.68737066,9.716595,-0.5292993
81793664736501,-0.5412744,9.754914999999999,-0.4742139
81793684591350,-0.42391850000000003,9.74773,-0.5029541000000001
81793704446199,-0.51492923,9.697434,-0.58677983
81793724300932,-0.6706055000000001,9.663903999999999,-0.57719976
81793744155781,-0.68018556,9.697434,-0.48379397
81793764010630,-0.56522465,9.72378,-0.47181886
81793783865460,-0.48139894,9.635164,-0.5987549
81793803720309,-0.58198977,9.726174,-0.7089258
81793823578039,-0.5939649,9.654325,-0.6059399999999999
81793843433015,-0.4766089,9.558523,-0.49576905
81793863287992,-0.51013917,9.793235000000001,-0.38799320000000004
81793883142967,-0.5412744,9.843531,-0.55803955
81793902996425,-0.51492923,9.80521,-0.83586186
81793922851402,-0.5676197,9.812395,-0.87178713
81793942706249,-0.5508545,9.793235000000001,-0.732876
81793962557845,-0.46702883,9.807606,-0.84544194
81793982412694,-0.44547364,9.685459,-1.1208692
81794002267669,-0.4167334,9.599238,-1.1999048
81794022129374,-0.3784131,9.584868,-1.0346485
81794041984479,-0.366438,9.726174,-1.0035132
81794061839582,-0.48379397,9.867481,-0.9484278
81794081694686,-0.35685793,9.611214,-0.8861573
81794101549791,-0.33530274,9.546548,-0.74724615
81794121411313,-0.5221143,9.697434,-0.59156984
81794141266545,-0.49816409999999994,9.5561285,-0.6394701999999999
81794161121778,-0.28979737,9.651928999999999,-0.85741705
81794180977009,-0.244292,10.018367,-0.7783814
81794200832382,-0.098195806,10.085427000000001,-0.5724097
81794220687487,0.22752686,9.932146000000001,-0.62989014
81794240542718,0.39996827,9.795630000000001,-0.8334668
81794260397950,0.32093263,9.6615095,-1.0633887
81794280253183,-0.05508545,9.582474000000001,-0.9627979
81794300108414,-0.40954837,9.419611999999999,-0.77359134
81794319963888,-0.49097902,9.395662,-0.73527104
81794339819121,-0.37601808,9.671089,-0.6777906
81794359674224,-0.22992188,9.867481,-0.68737066
81794379529457,-0.06227051,9.826766000000001,-0.7209009
81794399384690,0.038320314,9.82437,-0.9244776
81794419245073,-0.17962648,9.7812605,-0.974773
81794439100434,-0.29698244,9.745335,-0.9508228000000001
81794458955667,-0.38080812,9.651928999999999,-1.1807446000000001
81794478811028,-0.50774413,9.687855,-1.0514137
81794498659025,-0.5388794,9.891430999999999,-0.81909674
81794518514258,-0.6442603,10.008787,-0.8981324
81794538369363,-0.6945557,10.049502,-0.613125
81794558224596,-0.5939649,9.79084,-0.49816409999999994
81794578079701,-0.014370117,9.963282000000001,-0.6586304000000001
81794597934934,0.75203615,10.41115,-0.5939649
81794617766321,1.2358301999999999,10.281819,-0.6849755999999999
81794637621042,1.096919,9.82437,-0.34248779999999995
81794657475763,1.2549903,9.8938265,-0.045505375
81794677330612,1.590293,10.049502,0.031135255
81794697185333,1.949546,9.79084,0.6730005
81794717023426,2.4501052000000003,9.560919,1.4825171
81794736877891,2.2872437999999997,9.335787,0.7951465
81794756732228,2.3590944,13.519885999999998,-2.8452832999999997
81794776586693,2.1627028,16.769928,-4.8283596
81794796441011,1.9016455,14.09469,-4.89542
81794816299882,-0.97956306,14.250367,-5.8438478
81794836154346,-5.815108,19.986439,-6.9934573
81794856008810,-17.660875,21.914429000000002,3.278782
81794875863274,-8.313113000000001,14.197676999999999,6.1073002999999995
81794895717738,-2.8596535,10.839858999999999,1.6741188000000002
81794915579091,-3.9972877999999996,11.01709,1.2741505
81794935433683,-2.5099807000000003,9.453142,-1.5088624
81794955288275,0.44786867,6.998247,-3.6332447999999995
81794975142739,0.45744875,6.246211,-3.0871804
81794994997331,0.29937744,5.072651400000001,-6.9958525
81795014857915,1.6884888,3.9853127,-3.8487966
81795034712507,1.7723145,2.8404932,1.6262183000000001
81795054567227,-1.2933106,3.0081446,4.87626
81795074421819,-2.7303224,4.4283915,2.8836036
81795094276539,-2.9243189999999997,5.1828227,1.6621436
81795114135020,-3.6021094,4.363725700000001,2.7518775
81795133989740,-3.1159205,3.8583767,5.225933
81795153844460,-1.5352076000000001,7.0126176,6.837781
81795173699180,1.3292358999999998,13.697117,8.183782
81795193553900,6.248606,16.51366,7.6377177
81795213416521,6.5072684,9.963282000000001,6.490503299999999
81795233271368,0.76401126,4.8283596,4.9169754999999995
81795253126216,0.6730005,4.4259962999999996,4.4691067
81795272981064,0.7113208000000001,8.871153,1.6932789000000001
81795292835784,-2.3950195,19.344573999999998,-6.72761
81795312691027,-14.183307000000001,31.367572999999997,-9.299861
81795332545875,-7.29523,11.910433,11.493699000000001
81795352400595,-4.4523416,-2.7303224,3.2189064
81795372255444,-4.9481106,2.2177882,-0.70174074
81795392110293,-3.4799635,7.3479204,-1.331631
81795411965836,-4.4403663,10.916499,-6.301296700000001
81795431820685,-2.2776637,12.188255,-9.620794
81795451675534,2.6249416,10.324929,-8.150250999999999
81795471530383,3.5757644,9.038803999999999,-5.527705
81795491385104,4.26074,10.039923,1.4034815
81795511248383,5.024751,12.085269,7.053333
81795531103360,1.7747096000000002,10.039923,-6.06419
81795550958337,-0.11496094,7.726333,-4.1625442999999995
81795570813314,0.016765138,8.804092,0.17244141
81795590668291,1.2382251,9.793235000000001,0.6394701999999999
81795610529052,1.0106983,9.623189,-1.3268408999999999
81795630384157,0.60833496,9.362132,0.37601808
81795650239262,0.32332766,9.4435625,2.9626392999999998
81795670094367,0.5125342,8.246053,0.33530274
81795689949472,0.9388476999999998,8.583751,-0.117355965
81795709814049,1.7363893,10.300980000000001,1.2478052
81795729669538,2.2273683999999996,10.248289,-0.119750984
81795749524880,0.5939649,9.469908,0.2802173
81795769380240,-2.0429518,8.693921000000001,2.2513185
81795789235600,-3.9517824999999998,10.015972,4.0978785
81795809089826,-5.1780324,14.082714999999999,2.6321266
81795828945314,-6.0498195,18.000967000000003,-1.8633252
81795848800802,-4.143383999999999,19.545755,-4.6056230000000005
81795868656162,-4.129014,18.137484,-2.1627028
81795888511650,-6.9048414000000005,15.143709,1.3507911
81795908371856,-4.993616,12.068503999999999,2.0094216
81795928227472,-1.6932789000000001,12.23376,0.3520679
81795948083088,1.8441651000000001,13.261223999999999,1.8489552
81795967935298,2.9362939999999997,10.722503,0.7113208000000001
81795987790914,1.1088941,6.713239999999999,0.100590825
81796007650102,0.17244141,4.722978599999999,-0.33290774
81796027505974,-1.9615209999999998,3.6164796000000003,-1.2382251
81796047361846,-4.521797,2.6417067000000003,-1.2430152
81796067217718,-2.792593,2.6153615,2.3950195
81796087073590,-0.5364844,4.1960745,2.047742
81796106928347,-1.0106983,5.728887,0.9867481
81796126784347,-0.22273682,5.5492606,1.9184108
81796146640220,1.6214283,5.240303,4.0930886
81796166496093,3.1255007000000004,6.2222610000000005,7.7311233999999995
81796186351966,3.3099171999999997,8.449629,11.651771
81796206194671,2.694397,13.119917999999998,9.553733
81796226050159,1.2406201000000001,14.64315,5.2810182999999995
81796245905647,-2.5530908,11.182346,6.1575956
81796265761135,-3.6739602,7.9538603000000005,8.270002
81796285616623,-1.219065,8.277188,5.4414845000000005
81796305458346,-0.90052736,11.745175999999999,0.95561284
81796325313450,-5.1564775,14.202466000000001,-4.615203
81796345168426,-10.403965,11.953543,-1.1280543
81796365023530,-5.7983427,7.244934599999999,3.2021412999999996
81796384878634,-2.0070264,7.27128,-1.6070582
81796404735054,-1.9567311,9.606423,-3.9493873
81796424590030,-1.5711329,12.372671,-6.7515600000000004
81796444445134,2.0261867,12.291241000000001,-5.853428
81796464300238,3.781736,10.245894,-2.5914113999999997
81796484155214,2.703977,9.383687,4.3062453000000005
81796504011999,-1.7172291000000002,9.422008,3.410508
81796523867103,-0.7568262,8.1143265,-1.7890796999999998
81796543722207,1.2765454,8.090376,-2.1531227000000004
81796563577311,1.1424243,8.780142,0.122146
81796583432415,0.60354495,9.3309965,1.5519726999999999
81796603287520,1.2094848999999999,9.685459,1.4106666
81796623133693,2.3662794,9.841136,0.17483643
81796642988669,2.6273365,10.003997,-0.58677983
81796662843517,1.829795,9.580078,0.39517823
81796682698493,0.119750984,8.377778999999999,0.117355965
81796702553341,-0.045505375,8.495134,1.4849122
81796722405373,0.8909473,9.912986,1.2430152
81796742260093,1.8082398000000002,11.314072999999999,-0.6466553
81796762114941,2.0405567,12.255316,0.7592211999999999
81796781969789,1.3220508,12.173884,1.094524
81796801824637,0.9915381,11.5751295,0.22513184
81796821674834,-0.24908204,11.934382000000001,-0.67539555
81796841529554,-3.4943337,14.731766,-2.7854077999999998
81796861384274,-4.2224197,14.810801500000002,-2.7734327000000003
81796881239122,-5.101392,12.822935000000001,0.07424561
81796901093842,-5.841453,11.359577999999999,-1.0777588
81796920945033,-6.255791,12.5738535,-2.7901978
81796940799625,-10.054293,14.154566,-1.4178516
81796960654217,-11.096126,12.490027,1.0466236
81796980508937,-4.449946400000001,9.551338000000001,3.4392480000000005
81797000363529,-2.2872437999999997,9.383687,0.07664063
81797020219773,-1.3196558,8.943004,-2.1243825000000003
81797040074493,1.3843212999999999,6.3779373,-4.150569
81797059929085,1.9830762,6.2246559999999995,-2.4956105
81797079783678,1.5280225,6.207891,-0.06227051
81797099638271,0.6562354,4.974456,1.1064991000000002
81797119496878,0.62031007,4.018843,1.5399976
81797139351599,-0.7041358,4.3493557,1.8896705000000003
81797159206318,-2.0836669999999997,5.520519999999999,2.6369166
81797179061038,-1.6956740000000001,6.1599903,2.6512868
81797198915758,-0.42391850000000003,5.951624,3.1494508
81797218775336,0.26345217,5.9468336,4.399651
81797238630057,0.033530276,7.8891945,4.967271
81797258484906,-0.13651612,12.765454,9.424402
81797278339755,2.1866529999999997,17.512384,11.167976
81797298194604,5.5947657,14.791641,5.702542
81797318052309,0.35925296,9.70941,3.3961379999999997
81797337907158,-3.9589673999999997,7.8676395,3.9469924
81797357762135,-4.6583133000000005,11.263778,2.9817994
81797377616984,-6.830596000000001,16.724422,-3.9445972
81797397471833,-9.513017999999999,14.156960999999999,-4.2439747
81797417328052,0.38320315,4.184099,5.0439115
81797437182901,-1.2166698999999999,3.0991554,1.5184423999999999
81797457037750,-2.0166066000000002,8.102350999999999,-2.7255323
81797476892599,-2.823728,11.558365,-3.5805542
81797496747576,-1.8800903999999998,12.149935000000001,-5.5564456
81797516608647,0.84065187,11.860137,-6.830596000000001
81797536463752,2.562671,10.38241,-1.5807129
81797556318729,1.5352076000000001,10.073453,4.9792457
81797576173706,-1.0442286,10.245894,3.6643800000000004
81797596028811,-0.5364844,9.242381,-0.117355965
81797615883232,0.33530274,9.357342,-1.1951148999999999
81797635738337,0.34009278,8.674761,-2.3638844
81797655593314,0.7592211999999999,7.062913000000001,-2.1722827000000002
81797675448291,1.3268408999999999,8.382568,-0.54366946
81797695303375,0.62749517,10.499766000000001,1.0657837
81797715159570,0.4047583,10.370435,1.8369801
81797735014674,-0.42391850000000003,8.919053,-0.33769777
81797754869778,-1.477727,8.681946,-0.050295413
81797774724754,-1.6980689999999998,9.347761,-0.2945874
81797794579858,-1.0825489,9.096285,-1.7244141
81797814430779,-0.5412744,9.0076685,-1.0346485
81797834285755,-0.47900394,9.565708,-0.059875492
81797854140859,-0.37362307,9.584868,-0.12454102
81797873995835,-0.62989014,8.988508,-0.51732427
81797893850811,-1.1687696,10.909314,-1.2669654
81797913702934,-1.096919,14.235995999999998,-2.2896388
81797933557910,-0.028740235,13.151051999999998,-2.1962330000000003
81797953412886,-1.3148658000000002,9.659114,-0.488584
81797973271476,-3.5374440000000003,7.699988,0.06466553
81797993126324,-4.873865,8.2125225,0.29937744
81798012984518,-5.276228400000001,9.268726,0.4167334
81798032839622,-3.5374440000000003,10.375225,-0.32572266
81798052694598,-2.0094216,10.887758999999999,-2.2656887
81798072549702,-1.6717237,11.939173,-2.663262
81798092404806,-1.5328126,12.947476,-2.0932472
81798112265191,-2.1267774,12.291241000000001,-1.3148658000000002
81798132120424,-2.1842580000000003,10.049502,0.23231691
81798151975657,-1.7387843,8.475974,2.299219
81798171830890,-1.4968873,7.5778419999999995,2.7279273999999996
81798191686119,-1.1208692,7.431746,1.3220508
81798211540221,0.46942386,7.4892262999999994,-0.73527104
81798231395453,0.22034179999999998,8.006551,-0.8334668
81798251250557,-1.0538087,7.704778,-0.3903882
81798271105789,-1.8321900000000002,7.3670800000000005,-0.25387207
81798290960894,-2.4860303,8.071216999999999,-0.4526587
81798310816279,-1.8896705000000003,9.80521,-0.64186525
81798330671384,-0.7113208000000001,10.861414,1.2430152
81798350526617,-0.081430666,10.751244,2.1770728
81798370381722,0.28261232,9.972861,1.4920973
81798390236955,0.30895755,10.504556,0.38799320000000004
81798410090676,-0.8334668,11.867322,1.334026
81798429945781,-2.299219,11.776311999999999,1.9040406000000003
81798449800886,-2.5411158,10.705738,-0.26584718
81798469655991,-1.2549903,9.024434,-1.4873072
81798489511096,-1.7124390999999999,9.683064,-0.11017089999999999
81798509366943,-0.60833496,9.867481,-1.2645704
81798529221920,0.5125342,9.484278,-2.3255641
81798549077025,-0.53169435,9.795630000000001,-0.732876
81798568932130,-1.4034815,9.72378,-0.2802173
81798588787235,-1.6286133999999999,9.433982,-0.69216067
81798608638488,-2.0405567,9.754914999999999,-0.2682422
81798628493465,-2.095642,9.915381,-0.62510014
81798648348442,-1.8609301999999999,9.625584,-1.331631
81798668203547,-1.6980689999999998,9.735755000000001,-1.2861254999999998
81798688058524,-1.7890796999999998,9.843531,-1.0442286
81798707909911,-1.6932789000000001,9.541758999999999,-1.2454101999999998
81798727764888,-1.3268408999999999,9.412427000000001,-1.2406201000000001
81798747619714,-1.0657837,9.582474000000001,-1.1112891000000003
81798767474691,-1.0777588,9.613608000000001,-1.0154883
81798787329666,-1.1352394,9.410032000000001,-1.0490186000000001
81798807182338,-1.1879296999999998,9.465117,-1.0490186000000001
81798827037314,-0.977168,9.5489435,-0.96040285
81798846892162,-1.0106983,9.453142,-0.70174074
81798866747138,-0.79993653,9.536968,-0.98195803
81798886601986,-0.6730005,9.575289,-0.9963281999999999
81798906452732,-0.76161623,9.635164,-0.87418216
81798926307580,-0.6993457,9.644744000000001,-0.8669971
81798946162428,-0.6586304000000001,9.508227999999999,-1.1927198
81798966017148,-0.90771246,9.632769,-1.0226734
81798985871996,-0.85741705,9.793235000000001,-0.93405765
81799005734134,-0.81191164,9.798025,-0.89573735
81799025589110,-0.91010743,9.769285,-0.97237796
81799045444086,-1.1879296999999998,9.711803999999999,-0.90771246
81799065299062,-1.477727,9.659114,-0.974773
81799085153910,-1.5998731000000002,9.606423,-0.8646021
81799105008435,-1.5447876,9.685459,-0.6586304000000001
81799124863411,-1.4322218,9.6686945,-0.6610254
81799144718387,-1.4202466,9.522598,-0.7065308000000001
81799164573363,-1.2861254999999998,9.524992999999998,-0.91010743
81799184428467,-1.2645704,9.565708,-0.87418216
81799204281194,-1.2549903,9.608819,-0.8143066999999999
81799224136042,-1.2406201000000001,9.5561285,-0.89573735
81799243991018,-1.3388159,9.520203,-0.7879615
81799263845995,-1.2070899,9.520203,-0.7209009
81799283700972,-1.1256591999999999,9.5489435,-0.6562354
81799303558141,-1.2310401000000002,9.6686945,-0.69695073
81799323413118,-1.2525953,9.639954,-0.62749517
81799343268095,-1.1280543,9.5489435,-0.7089258
81799363123072,-1.101709,9.611214,-0.5963599
81799382978049,-0.97956306,9.402847,-0.76401126
81799402833026,-1.0681788,9.4435625,-0.90771246
81799422683047,-1.1735597,9.462723,-0.852627
81799442537896,-1.0370435,9.453142,-0.72569096
81799462392745,-0.9963281999999999,9.589659,-0.5005590999999999
81799482247594,-1.0633887,9.604028999999999,-0.44547364
81799502102443,-1.1759547,9.532178,-0.68976563
81799521962620,-1.2382251,9.508227999999999,-0.8310718
81799541817597,-1.1855347,9.572892999999999,-0.76401126
81799561672446,-1.0394385,9.673484,-0.5987549
81799581527423,-0.92208254,9.711803999999999,-0.62031007
81799601382272,-0.9651929,9.651928999999999,-0.67539555
81799621237457,-1.0538087,9.572892999999999,-0.73527104
81799641092434,-1.1088941,9.541758999999999,-0.8669971
81799660947283,-1.2118799999999998,9.477093,-0.9364527
81799680802260,-1.1328443000000001,9.546548,-0.9268726
81799700657109,-1.0562036,9.618399,-0.81909674
81799720516312,-1.101709,9.587264,-0.69695073
81799740371289,-1.1759547,9.611214,-0.6825806
81799760226266,-1.2549903,9.577683,-0.7664063
81799780081368,-1.2981006000000002,9.520203,-0.80233157
81799799936344,-1.2430152,9.551338000000001,-0.87897223
81799819786139,-1.2502003000000002,9.620794,-0.852627
81799839640987,-1.3531861,9.639954,-0.76880133
81799859495963,-1.331631,9.604028999999999,-0.85741705
81799879350811,-1.3076807,9.575289,-0.87178713
81799899205787,-1.3436059999999999,9.596844,-0.8765772
81799919067846,-1.334026,9.546548,-0.9148975
81799938922950,-1.3220508,9.541758999999999,-0.87418216
81799958778054,-1.3651612,9.575289,-0.87897223
81799978633030,-1.2909156000000002,9.558523,-0.9699829
81799998488199,-1.3124708,9.501043,-0.9699829
81800018347070,-1.4034815,9.546548,-0.91010743
81800038202174,-1.3819263000000002,9.604028999999999,-0.88376224
81800058057406,-1.3268408999999999,9.601633999999999,-0.85023195
81800077912638,-1.2837305,9.572892999999999,-0.86939216
81800097767742,-1.2430152,9.517808,-0.91729254
81800117620536,-1.2789403999999998,9.527389,-0.91250247
81800137475640,-1.2645704,9.584868,-0.9316626
81800157330873,-1.2454101999999998,9.551338000000001,-0.9196875
81800177186106,-1.223855,9.510622999999999,-0.8430469
81800197041208,-1.2286451,9.582474000000001,-0.8382569
81800216896880,-1.2406201000000001,9.601633999999999,-0.91250247
81800236752112,-1.2310401000000002,9.5489435,-0.9388476999999998
81800256607344,-1.22625,9.546548,-0.96040285
81800276462448,-1.2382251,9.570497999999999,-0.977168
81800296317680,-1.2478052,9.587264,-0.9388476999999998
81800316174293,-1.1783496,9.496253,-0.89573735
81800336029526,-1.0705738,9.474698,-0.9580079
81800355884759,-1.101709,9.596844,-0.96040285
81800375739992,-1.1280543,9.651928999999999,-0.9148975
81800395595225,-1.1136841999999998,9.570497999999999,-0.9867481
81800415453126,-1.1687696,9.517808,-0.9532178
81800435308359,-1.1328443000000001,9.560919,-0.9532178
81800455163592,-1.099314,9.683064,-0.93405765
81800475018825,-1.1567944,9.704619000000001,-0.90052736
81800494874058,-1.2957056999999998,9.639954,-0.87418216
81800514722219,-1.2693603999999998,9.587264,-0.8981324
81800534577196,-1.3531861,9.625584,-0.8214916999999999
81800554432301,-1.2597803,9.611214,-1.0083033000000001
81800574287406,-1.2885206,9.589659,-1.0106983
81800594142511,-1.3292358999999998,9.560919,-1.0562036
81800613991006,-1.3747413,9.582474000000001,-0.9867481
81800633845983,-1.2885206,9.587264,-0.9651929
81800653700960,-1.3196558,9.594449000000001,-0.97956306
81800673556065,-1.346001,9.627979,-0.96040285
81800693411042,-1.3412110000000002,9.6758795,-0.89573735
81800713262147,-1.334026,9.735755000000001,-0.9316626
81800733116996,-1.334026,9.735755000000001,-0.9436377
81800752971973,-1.3220508,9.690249,-0.9364527
81800772826822,-1.3651612,9.683064,-0.8933423
81800792681778,-1.4274316999999999,9.64714,-0.9148975
81800812530720,-1.4058765,9.582474000000001,-0.9388476999999998
81800832385440,-1.346001,9.558523,-0.9651929
81800852240160,-1.4154567,9.6686945,-0.9532178
81800872095008,-1.346001,9.788445,-0.91010743
81800891949728,-1.3436059999999999,9.74773,-0.8167017
81800911804724,-1.3220508,9.683064,-0.9148975
81800931659444,-1.3100758,9.620794,-0.97956306
81800951514164,-1.3196558,9.632769,-0.9699829
81800971368884,-1.3388159,9.685459,-0.9053174
81800991223604,-1.3268408999999999,9.606423,-0.87178713
81801011077754,-1.2166698999999999,9.608819,-0.9580079
81801030932474,-1.2454101999999998,9.750125,-0.974773
81801050787194,-1.223855,9.764495,-0.9508228000000001
81801070641786,-1.2478052,9.673484,-0.9148975
81801090496506,-1.2022998,9.596844,-0.9580079
81801110356840,-1.1472143999999997,9.620794,-0.91729254
81801130211688,-1.1208692,9.604028999999999,-0.8909473
81801150066408,-1.2022998,9.589659,-0.9388476999999998
81801169921256,-1.2358301999999999,9.7142,-0.9915381
81801189776104,-1.1999048,9.75252,-1.0106983
81801209632354,-1.22146,9.745335,-1.0274634
81801229487203,-1.3004956,9.649534,-0.95561284
81801249342052,-1.2909156000000002,9.639954,-0.9244776
81801269196773,-1.2166698999999999,9.541758999999999,-0.9532178
81801289051622,-1.1639795,9.620794,-0.96758795
81801308906220,-1.2166698999999999,9.6615095,-0.90052736
81801328761068,-1.22625,9.70941,-0.9651929
81801348615916,-1.1376343,9.77168,-0.96040285
81801368470764,-1.1448194,9.759705,-0.96758795
81801388325484,-1.1567944,9.683064,-0.97237796
81801408178741,-1.1496094,9.608819,-1.0226734
81801428033461,-1.2022998,9.656719,-1.0418334999999999
81801447888182,-1.2621753,9.649534,-1.0059083
81801467742903,-1.2861254999999998,9.604028999999999,-0.98914313
81801487597624,-1.2334352,9.699829,-1.0011181999999998
81801507462633,-1.2525953,9.769285,-0.977168
81801527317610,-1.1687696,9.608819,-1.0849438999999999
81801547172587,-1.2933106,9.620794,-1.094524
81801567027564,-1.3052857,9.613608000000001,-1.0346485
81801586882541,-1.2358301999999999,9.656719,-0.96040285
81801606736694,-1.1064991000000002,9.546548,-1.0753639
81801626591671,-1.2909156000000002,9.577683,-1.0514137
81801646446648,-1.1975098,9.673484,-1.0274634
81801666301625,-1.1831397,9.841136,-0.855022
81801686156602,-1.0777588,9.798025,-0.9364527
81801706012227,-1.1112891000000003,9.6758795,-1.0130934
81801725867191,-1.1999048,9.639954,-1.0346485
81801745722167,-1.1975098,9.687855,-1.0106983
81801765577143,-1.1903248,9.620794,-0.9532178
81801785432119,-1.2645704,9.546548,-0.9532178
81801805287095,-1.2717555,9.544153,-1.0873389
81801825137213,-1.2669654,9.690249,-0.9484278
81801844992189,-1.214275,9.795630000000001,-0.8885523000000001
81801864847037,-1.223855,9.754914999999999,-0.97956306
81801884702013,-1.4034815,9.77168,-0.9987232
81801904556861,-1.4441968,9.730965,-0.9268726
81801924421047,-1.3268408999999999,9.663903999999999,-0.9484278
81801944276151,-1.223855,9.587264,-1.0011181999999998
81801964131255,-1.3052857,9.572892999999999,-1.0035132
81801983986359,-1.3052857,9.707015,-0.9963281999999999
81802003841594,-1.2645704,9.721385,-0.9436377
81802023704049,-1.2573853000000002,9.721385,-0.977168
81802043559409,-1.2310401000000002,9.642349000000001,-1.094524
81802063414769,-1.22146,9.618399,-1.0585986
81802083270129,-1.1448194,9.6615095,-1.094524
81802103125489,-1.2046948999999998,9.6615095,-1.0154883
81802122977376,-1.1903248,9.637559,-1.0035132
81802142832609,-1.2621753,9.716595,-0.97956306
81802162687970,-1.3627661,9.70941,-0.94603276
81802182543327,-1.5136524,9.704619000000001,-0.9316626
81802202398559,-1.590293,9.601633999999999,-0.9867481
81802222253584,-1.5352076000000001,9.568104,-1.0202783000000002
81802242108816,-1.3292358999999998,9.599238,-1.0873389
81802261964048,-1.1927198,9.5489435,-1.1160791
81802281819280,-1.1136841999999998,9.536968,-1.0106983
81802301674512,-1.1328443000000001,9.604028999999999,-0.9388476999999998
81802321533027,-1.1735597,9.711803999999999,-0.98914313
81802341388388,-1.1639795,9.742939999999999,-1.1064991000000002
81802361243749,-1.2094848999999999,9.718989,-1.1424243
81802381098982,-1.2741505,9.570497999999999,-1.0178833
81802400954343,-1.5136524,9.524992999999998,-0.96758795
81802420807168,-1.6597486000000001,9.489068,-0.95561284
81802440662401,-1.5352076000000001,9.479486999999999,-1.089734
81802460517634,-1.4274316999999999,9.580078,-1.1064991000000002
81802480372867,-1.3915064,9.73815,-1.0370435
81802500228100,-1.4010864,9.7740755,-1.0729688
81802520077835,-1.463357,9.745335,-1.0035132
81802539932940,-1.4418018,9.6615095,-0.92926764
81802559788173,-1.3771361999999998,9.618399,-0.9987232
81802579643278,-1.3268408999999999,9.651928999999999,-0.98435307
81802599498383,-1.2334352,9.6758795,-0.9508228000000001
81802619351652,-1.2070899,9.649534,-0.91010743
81802639206757,-1.3028906999999998,9.699829,-0.8478370000000001
81802659061862,-1.2382251,9.70941,-0.8885523000000001
81802678916967,-1.1807446000000001,9.656719,-1.0130934
81802698772072,-1.2406201000000001,9.637559,-1.0274634
81802718628573,-1.2358301999999999,9.690249,-0.9651929
81802738483678,-1.3172607,9.635164,-0.91010743
81802758338783,-1.3891114,9.5633135,-0.9436377
81802778193866,-1.3579761000000001,9.6615095,-0.9532178
81802798049098,-1.3028906999999998,9.77647,-0.9196875
81802817896488,-1.2621753,9.733359,-1.0011181999999998
81802837751464,-1.2957056999999998,9.730965,-1.1064991000000002
81802857606440,-1.2909156000000002,9.651928999999999,-1.0154883
81802877461416,-1.0873389,9.649534,-0.8765772
81802897316392,-0.90771246,9.673484,-0.9627979
81802917163249,-1.0083033000000001,9.6758795,-1.1400293
81802937017969,-1.1831397,9.6686945,-1.0466236
81802956872817,-1.2094848999999999,9.625584,-0.8382569
81802976727665,-1.2525953,9.594449000000001,-0.9651929
81802996582385,-1.3819263000000002,9.616004,-1.096919
81803016442146,-1.3028906999999998,9.656719,-1.0298585
81803036296994,-1.22625,9.687855,-0.9484278
81803056151843,-1.2573853000000002,9.644744000000001,-0.977168
81803076006690,-1.2166698999999999,9.620794,-0.9987232
81803095861538,-1.2046948999999998,9.678274,-0.9436377
81803115716387,-1.1831397,9.75731,-0.87897223
81803135571929,-1.1735597,9.783655,-0.90052736
81803155426777,-1.2334352,9.704619000000001,-1.0418334999999999
81803175281754,-1.2573853000000002,9.618399,-1.0274634
81803195136601,-1.1112891000000003,9.580078,-0.93405765
81803214993174,-1.0011181999999998,9.644744000000001,-0.9532178
81803234848023,-1.0130934,9.678274,-1.0442286
81803254703000,-1.0729688,9.656719,-0.9867481
81803274557846,-1.1400293,9.704619000000001,-0.8669971
81803294412823,-1.2166698999999999,9.721385,-0.8813671999999999
81803314246052,-1.2358301999999999,9.644744000000001,-0.9532178
81803334100516,-1.2454101999999998,9.592053,-1.0322535
81803353954981,-1.3292358999999998,9.606423,-0.9699829
81803373809572,-1.3268408999999999,9.64714,-0.9388476999999998
81803393664036,-1.3100758,9.699829,-0.90771246
81803413518501,-1.3196558,9.671089,-0.8765772
81803433372919,-1.2406201000000001,9.692644,-0.8813671999999999
81803453227255,-1.1304493,9.690249,-0.8933423
81803473081592,-1.1520045,9.735755000000001,-0.89573735
81803492936055,-1.1448194,9.726174,-0.9029224
81803512801900,-1.1639795,9.707015,-0.91010743
81803532656493,-1.1999048,9.6758795,-0.9627979
81803552511084,-1.1328443000000001,9.606423,-0.9532178
81803572365676,-1.0801538,9.611214,-0.91729254
81803592220269,-1.0753639,9.671089,-0.97237796
81803612082059,-1.1136841999999998,9.716595,-0.977168
81803631936779,-1.1280543,9.695039999999999,-0.99393314
81803651791500,-1.1855347,9.592053,-0.96040285
81803671646219,-1.2573853000000002,9.565708,-0.9364527
81803691501068,-1.2741505,9.68067,-0.8310718
81803711355789,-1.1975098,9.730965,-0.80233157
81803731212435,-1.1615845,9.74773,-0.87418216
81803751067155,-1.219065,9.735755000000001,-0.8909473
81803770921876,-1.2933106,9.7740755,-0.7831714
81803790776595,-1.214275,9.716595,-0.70174074
81803810634087,-1.1448194,9.718989,-0.74724615
81803830488936,-1.1424243,9.742939999999999,-0.8167017
81803850343783,-1.0729688,9.733359,-0.81191164
81803870198631,-1.1328443000000001,9.639954,-0.8214916999999999
81803890053352,-1.1160791,9.604028999999999,-0.82388675
81803909908199,-0.98435307,9.707015,-0.75203615
81803929770008,-0.8981324,9.7812605,-0.78556645
81803949625113,-1.0753639,9.802814999999999,-0.8813671999999999
81803969480088,-1.214275,9.718989,-0.855022
81803989335064,-1.1951148999999999,9.644744000000001,-0.84065187
81804009190169,-1.3028906999999998,9.580078,-0.8334668
81804029054937,-1.3052857,9.5633135,-0.90052736
81804048910169,-1.3244458000000001,9.520203,-0.94603276
81804068765402,-1.4010864,9.589659,-0.9268726
81804088620633,-1.3579761000000001,9.718989,-0.80233157
81804108476116,-1.1879296999999998,9.730965,-0.7496411000000001
81804128331349,-1.1735597,9.78605,-0.7831714
81804148186582,-1.2118799999999998,9.733359,-0.8167017
81804168041812,-1.2478052,9.716595,-0.7879615
81804187897045,-1.2070899,9.697434,-0.7544312
81804207752276,-1.0705738,9.685459,-0.7496411000000001
81804227610318,-1.0633887,9.671089,-0.8047266
81804247465679,-1.0274634,9.764495,-0.87418216
81804267321038,-1.096919,9.733359,-0.9053174
81804287176271,-1.2334352,9.613608000000001,-0.8813671999999999
81804307031632,-1.3699511999999998,9.599238,-0.8262818000000001
81804326887209,-1.3699511999999998,9.642349000000001,-0.7927515
81804346742570,-1.3555812,9.613608000000001,-0.8813671999999999
81804366597931,-1.4465919,9.599238,-0.9436377
81804386453292,-1.4513819,9.697434,-0.86220706
81804406311743,-1.3364209999999999,9.7621,-0.7185059
81804426167232,-1.2070899,9.740545,-0.75203615
81804446022593,-1.1520045,9.750125,-0.8310718
81804465878082,-1.2478052,9.707015,-0.9029224
81804485733571,-1.3507911,9.594449000000001,-0.82388675
81804505588932,-1.2454101999999998,9.520203,-0.76161623
81804525438233,-1.1663746000000002,9.635164,-0.7951465
81804545293594,-1.1041040000000002,9.759705,-0.80712163
81804565148827,-1.096919,9.778865,-0.79754156
81804585004188,-1.1663746000000002,9.7621,-0.8765772
81804604859421,-1.2478052,9.627979,-0.8669971
81804624712788,-1.3148658000000002,9.5489435,-0.87418216
81804644568149,-1.3412110000000002,9.568104,-0.7879615
81804664423510,-1.3771361999999998,9.692644,-0.76401126
81804684278871,-1.4609618999999998,9.685459,-0.8214916999999999
81804704128784,-1.4609618999999998,9.656719,-0.89573735
81804723984017,-1.3483961000000002,9.620794,-0.8047266
81804743839228,-1.2573853000000002,9.711803999999999,-0.80712163
81804763694461,-1.2070899,9.745335,-0.855022
81804783549694,-1.3364209999999999,9.829161000000001,-0.9268726
81804803404924,-1.3603711,9.742939999999999,-0.8095166
81804823218008,-1.1975098,9.644744000000001,-0.84065187
81804843072473,-1.1879296999999998,9.580078,-1.0035132
81804862927064,-1.1735597,9.5633135,-0.9963281999999999
81804882781528,-1.1448194,9.642349000000001,-0.8813671999999999
81804902635993,-1.2502003000000002,9.649534,-0.8382569
81804922483478,-1.3483961000000002,9.663903999999999,-0.9627979
81804942337558,-1.3412110000000002,9.611214,-0.98195803
81804962191639,-1.3579761000000001,9.702225,-0.8909473
81804982045718,-1.3028906999999998,9.68067,-0.92926764
81805001899798,-1.3651612,9.627979,-0.9963281999999999
81805021754007,-1.4274316999999999,9.704619000000001,-0.9029224
81805041609336,-1.4346168,9.659114,-0.8167017
81805061463288,-1.4034815,9.683064,-0.9148975
81805081317369,-1.3555812,9.70941,-0.99393314
81805101171448,-1.3364209999999999,9.666299,-0.93405765
81805121034872,-1.2885206,9.651928999999999,-0.87897223
81805140889081,-1.3268408999999999,9.687855,-0.9196875
81805160743288,-1.2454101999999998,9.599238,-0.9364527
81805180597496,-1.1687696,9.613608000000001,-0.977168
81805200451705,-1.1424243,9.654325,-0.9029224
81805220314732,-1.0538087,9.7142,-0.86939216
81805240169068,-1.0322535,9.683064,-0.9053174
81805260023405,-1.1352394,9.639954,-0.94603276
81805279877740,-1.1903248,9.644744000000001,-0.91250247
81805299732076,-1.2382251,9.611214,-0.86220706
81805319586413,-1.3028906999999998,9.513017999999999,-0.85741705
81805339446460,-1.2981006000000002,9.611214,-0.90052736
81805359300925,-1.2621753,9.695039999999999,-0.7951465
81805379155390,-1.0921290000000001,9.927357,-0.8646021
81805399009855,-1.1735597,9.917776,-0.8478370000000001
81805418870152,-1.096919,9.659114,-1.0226734
81805438724617,-1.2525953,9.570497999999999,-0.9268726
81805458579082,-1.3028906999999998,9.601633999999999,-0.8765772
81805478433675,-1.1328443000000001,9.659114,-0.8909473
81805498288140,-1.1591895,9.6615095,-0.99393314
81805518153469,-1.2454101999999998,9.685459,-1.0466236
81805538008190,-1.1543995,9.697434,-0.9388476999999998
81805557862911,-1.0777588,9.692644,-0.93405765
81805577717632,-1.1208692,9.671089,-0.974773
81805597572353,-1.094524,9.70941,-0.97956306
81805617427074,-1.1232642,9.764495,-0.9316626
81805637286079,-1.1041040000000002,9.663903999999999,-0.9699829
