UPTIMENANO,Ax,Ay,Az
81751254348657,-0.3659232,0.33510786,9.534972
81751274203506,-0.24815609,0.053803854,9.420516
81751294058353,0.22975251,-0.42227972,10.093211
81751313908399,0.75639915,-1.0069572,10.93705
81751333763120,0.8174395,-1.3583134,11.038344
81751353617839,0.7263247,-0.7278803,10.57312
81751373472559,0.40841883,-0.12986866,9.330763
81751393327280,-0.03701639,-0.027532991,8.979402
81751413182042,-0.03974315,-0.30465305,9.082338
81751433036634,0.29800063,-0.5041619,9.32652
81751452891355,0.62299734,-0.10125227,9.938149
81751472747684,1.4316331,0.5091802,9.2810755
81751492602404,1.3915676,-0.0035995264,9.949149
81751512457125,1.6739447,0.19047344,10.491006
81751532316664,2.0384698,0.84777176,9.501095
81751552171512,1.1686798,0.50314105,9.101768
81751572026233,0.81359345,-0.24409245,9.398471
81751591881080,0.501509,-1.4418297,10.410506
81751611741677,0.58080345,-1.5953268,11.111638
81751631596654,1.204466,-0.32374582,10.495762
81751651451501,0.91680366,0.07053357,9.980762
81751671306477,-0.16030525,-0.14005834,10.105612
81751691161454,-0.022700714,0.14738077,10.012566
81751711016301,0.1864355,0.35263124,9.700134
81751730872941,0.08641553,0.8361558,9.1169405
81751750727918,-0.015193814,1.3047843,8.760194
81751770582893,-0.08603277,1.0278633,8.751973
81751790437869,-0.002754425,0.8466156,8.579629
81751810292974,-0.038455073,0.54418933,8.96757
81751830146296,-0.26534915,-0.55396533,10.390996
81751850001272,-0.31907395,-0.7910618,10.485139
81751869856121,0.1252061,-0.072471,10.133031
81751889711096,0.6103126,0.1544177,10.190774
81751909570454,0.32596514,-0.02696117,9.888834
81751929425431,-0.2997956,-0.1738146,9.684536
81751949280534,-0.43089712,-0.0921539,9.875542
81751969135510,0.08870449,-0.08998601,10.006257
81751988990487,0.5114232,-0.22064173,10.098333
81752008845462,0.51501137,-0.043271467,9.707797
81752028712062,-0.027800957,0.015938586,9.565153
81752048567295,-1.3042449,-0.14678243,10.027573
81752068422654,-0.6537164,-0.062487062,9.894971
81752088277886,-0.44729844,0.11338712,9.548553
81752108133119,-0.5697588,0.011834501,9.602358
81752127987929,-0.31378722,-0.43035117,9.9157095
81752147843289,-0.24087511,-0.6872721,10.262649
81752167698650,-0.7611604,-0.556275,10.008758
81752187553881,-1.120676,-0.41542992,9.789041
81752207410612,-1.1610031,-0.1408034,9.81505
81752227265973,-0.8437117,-0.09460451,9.76898
81752247121332,-0.84678054,-0.48698333,9.968051
81752266976692,-0.25424272,-0.33288682,9.644201
81752286832053,-0.45290563,0.043504074,9.758227
81752306687540,-1.0059093,-0.18777908,10.459581
81752326536573,-0.8602856,-0.25127152,10.335477
81752346391806,-0.57545066,-0.41815546,10.230865
81752366247037,-0.67664015,0.047058903,9.828219
81752386102269,-0.42977202,0.6169738,9.301969
81752405957502,-1.0000575,-0.91346073,10.044622
81752425813674,-1.9355206,-2.480224,10.867788
81752445669034,-1.4503325,-1.8025755,10.608157
81752465524267,-0.819162,-0.66785234,9.978455
81752485379498,-0.6685256,-0.3411227,9.809777
81752505234779,0.26646757,0.27873462,9.938636
81752525090140,0.12046669,0.019985208,10.217754
81752544945371,-0.5896608,-0.2087075,10.098927
81752564800603,-0.6562524,0.45497665,10.104493
81752584655964,-0.13678928,0.9712495,9.83263
81752604511195,0.23849498,1.2042931,9.370702
81752624361618,0.06964619,0.92621714,9.19241
81752644216723,-0.3062485,0.32954088,9.507439
81752664071954,-0.46954954,0.10580036,9.2495575
81752683927186,0.17691061,0.27267876,9.210179
81752703782291,0.16250107,-0.17300086,9.588924
81752723632737,0.067814335,0.043558322,10.567905
81752743487841,1.0514331,0.38831067,10.027262
81752763342946,2.2889986,-0.3726765,10.057598
81752783198177,2.7491796,-0.8963555,11.396608
81752803053281,2.479569,-0.30349383,10.099752
81752822908386,-0.2318102,-0.28303277,9.075146
81752842763026,-1.346637,0.2606057,8.201385
81752862618130,-0.9860408,0.53973174,7.671732
81752882473235,-1.1058495,0.23036686,7.3778014
81752902328210,-1.0111191,0.19388345,7.925382
81752922174081,-0.6634058,-0.17900822,8.972299
81752942028930,0.04032353,-0.99109775,10.074723
81752961883777,0.513729,-0.6163219,10.467913
81752981738625,0.80059123,-0.411526,10.282896
81753001593474,0.9726184,-0.4076464,10.244333
81753021450826,1.3663056,0.13966647,10.190032
81753041305674,1.3446405,0.41002613,9.780001
81753061160523,1.0697087,0.374729,9.376447
81753081015498,0.8210948,0.19953302,9.832939
81753100870346,0.58902985,-0.06241457,9.968309
81753120725195,0.5371589,0.15252261,9.185171
81753140580737,0.78016406,0.31521666,8.696002
81753160435585,1.088757,-0.043006334,9.250859
81753180290434,1.3291327,-0.75799805,9.987681
81753200145281,1.2133279,-0.81084996,10.117866
81753220003679,0.58808255,-0.6579562,8.661956
81753239858656,-0.08774195,-0.3064683,7.0961623
81753259713631,-0.762745,-1.3196663,8.608199
81753279568479,-1.8834983,-0.8109443,6.898566
81753299423456,-0.4372094,-0.8314124,6.9763103
81753319279160,2.2715795,-2.2596495,4.697327
81753339134136,5.3617797,-1.0019817,3.2504
81753358988985,8.392954,3.2161007,8.029941
81753378843960,1.2308631,3.755057,13.335481
81753398698808,-1.8741876,0.29478374,6.389398
81753418553785,2.679684,0.42212865,1.8557118
81753438409467,4.6495285,2.4672122,4.156641
81753458264443,4.5226107,3.128904,5.9433923
81753478119292,4.823547,1.9864731,3.1607614
81753497976171,3.8306773,1.2325963,4.0889196
81753517837608,2.9979248,1.4672655,5.921368
81753537692712,6.1522107,-1.8409067,8.414314
81753557547816,9.713469,-5.1324577,11.166838
81753577402792,7.682197,-4.201189,15.239279
81753597257896,2.8398235,-2.822266,16.164286
81753617121180,1.9620718,-6.641396,16.248861
81753636976540,0.54454094,-10.742563,19.242125
81753656831772,-3.8434713,-7.427589,20.29543
81753676687132,-8.225256,-3.4099135,22.732332
81753696542364,-9.53578,-3.2831726,21.05598
81753716397724,-7.5092626,-7.6635294,15.860632
81753736255627,-11.153745,12.745343,9.512425
81753756110987,1.441639,10.8367815,15.291791
81753775966347,0.49917266,5.968354,17.612211
81753795821707,-0.0063982075,2.2138605,9.901299
81753815677067,-2.426943,4.051029,8.463126
81753835530617,1.704346,5.7951603,8.862108
81753855385977,-5.0648417,3.1144953,6.8236485
81753875241337,-6.5365868,2.0935059,5.552046
81753895096697,-3.8573303,1.4972144,4.6297684
81753914952057,-4.900403,-0.9735512,6.0758786
81753934792325,-6.8801007,0.0041296175,6.1898894
81753954647429,-4.757325,-0.54952455,6.2565775
81753974502405,-1.0323167,-3.6019099,7.52055
81753994357509,-0.78284484,-2.2240639,6.599062
81754014212613,0.5604785,0.37434614,8.759941
81754034074123,2.9223623,0.17059994,11.69543
81754053929355,4.2220054,-0.045128517,14.520775
81754073784587,5.399266,-0.76631975,20.443804
81754093639691,5.3464813,-1.0098418,21.661047
81754113494923,6.1817927,1.7307341,15.4782295
81754133349716,6.5105896,4.110409,11.370989
81754153204948,3.756427,4.527366,9.395936
81754173060180,-2.2568033,0.5712028,3.7447252
81754192915412,-4.5407815,-5.2560186,-0.05718494
81754212770644,-6.9066668,-7.2605953,0.84059054
81754232629911,-5.2615533,-3.6850266,1.5887249
81754252485143,-4.7478375,0.4947509,1.730548
81754272340503,-4.7331667,0.42366126,5.4303765
81754292195735,-0.7442268,-1.9966722,8.463099
81754312051095,-1.7572981,-2.7243397,9.282235
81754331904249,3.770047,-4.420508,8.589875
81754351759481,5.813979,2.7584312,6.0611835
81754371614713,2.4496317,2.2731073,11.480681
81754391469945,0.15294322,-2.734249,17.903938
81754411325177,1.53008,-4.188501,20.256132
81754431180301,2.6827483,0.7546956,13.686549
81754451035533,2.461871,0.9949002,9.276982
81754470890765,-0.18195438,1.5177331,9.594895
81754490745997,-3.5274405,1.7021654,11.250702
81754510601229,-2.7201982,-3.4997241,12.037017
81754530456351,-2.2101765,-5.7043166,9.413384
81754550311455,-2.0564704,-3.1669807,4.589552
81754570166687,-6.8730083,-1.8212023,8.909027
81754590021791,-7.4713416,3.1859457,10.862028
81754609877023,-3.7078319,2.83591,9.571628
81754629726367,-0.95226866,-1.8265427,9.5971365
81754649581471,2.1945934,-3.474909,9.388927
81754669436575,4.3754773,-0.53648216,8.45629
81754689291551,1.5531174,2.2540443,8.072792
81754709146655,1.7424,1.1314013,6.9392843
81754729000729,-0.041860353,1.801359,8.112108
81754748855833,-2.5564659,0.34183395,9.716989
81754768710809,-3.411976,-1.3168898,9.890585
81754788565913,1.8674265,-0.3457477,7.8646173
81754808420889,4.7235727,1.5870328,7.483901
81754828277084,3.9310658,3.7603877,8.474324
81754848132060,3.4762876,8.079554,9.852283
81754867987164,0.9800309,7.107954,13.84717
81754887842140,0.8868683,4.8108654,9.208574
81754907697244,0.6880471,3.529416,6.1340194
81754927551537,6.881437,2.8898158,9.444085
81754947406513,3.2972558,-0.05868886,13.157397
81754967261617,-2.1159556,-0.28745717,14.324018
81754987116593,-2.2058127,0.6757787,16.984318
81755006971569,-0.011835762,1.8034996,15.406778
81755026831452,0.48409122,1.0829798,12.625505
81755046686556,1.7838888,-0.93152755,12.134806
81755066541788,1.5038959,-0.44196755,11.153097
81755086396892,-0.7851805,0.14991538,10.021469
81755106251996,-2.211008,3.2943888,9.438918
81755126103356,-0.3992937,4.4333587,9.764558
81755145958460,-0.19779319,0.50666916,9.602505
81755165813436,2.0998547,-0.54585844,7.161518
81755185668540,7.41791,-0.874488,4.0800176
81755205523644,8.151295,-2.1889281,3.055273
81755225378634,-1.8710284,-0.28661692,6.0870748
81755245233738,-5.0383706,3.6398964,7.89923
81755265088842,-1.0557181,4.207628,8.796877
81755284943946,1.1231998,1.419995,6.485017
81755304799050,-3.3943949,0.5065822,3.8135598
81755324654580,-2.063574,-1.0123234,5.969601
81755344509684,7.4290667,-3.154751,8.885963
81755364364788,6.8834844,0.4875913,11.693346
81755384220020,0.05936461,3.2713497,13.532681
81755404075124,1.434245,-0.9016048,16.579317
81755423931666,4.33945,-1.2507018,16.197073
81755443786898,1.860641,3.090646,10.129973
81755463642002,-0.09163457,2.2773821,8.093285
81755483497234,0.55765504,-1.5154655,8.996929
81755503352338,0.40541872,-1.4422166,10.842602
81755523207108,1.1469263,0.63408333,12.941291
81755543062084,1.9088068,2.2399542,12.26555
81755562917188,1.8246179,1.9988577,9.842113
81755582772164,1.8778607,0.46355945,8.925265
81755602627140,1.0476084,-0.33800092,5.387872
81755622488375,0.86654913,0.8295873,3.5251322
81755642343607,0.5713001,1.2906479,7.1223454
81755662198711,2.029837,1.1983378,10.6432495
81755682053943,1.9099215,1.2924823,11.653206
81755701909175,-0.094010025,0.6234202,10.949718
81755721765973,-0.893204,-3.5930312,11.137007
81755741621077,-1.0046818,-4.4349484,11.149218
81755761476309,-1.1304035,2.2503004,9.808199
81755781331541,0.13900588,2.8670468,10.222224
81755801186645,2.541372,-1.5686072,10.524585
81755821039882,1.6464325,-1.9401087,9.926074
81755840895114,1.7715584,-1.6169592,9.791241
81755860750346,0.9114465,0.32892522,10.097435
81755880605450,1.3614748,1.2707415,9.792603
81755900460682,0.69439435,1.2274373,9.520707
81755920314437,-0.34893754,1.2785515,9.730168
81755940169669,-1.3777628,0.52329,9.931433
81755960024901,-1.9172575,-0.11188737,9.630914
81755979880005,-1.5481625,0.16226295,9.215751
81755999735237,-0.6944006,1.0035104,9.586253
81756019594156,-0.18545729,1.5485069,9.962678
81756039449388,0.12584192,1.3103577,9.680212
81756059304748,0.3805534,0.8334309,9.83596
81756079159980,0.53261495,1.046012,9.744063
81756099015212,0.3459262,1.388163,9.50973
81756118872679,-0.106824175,0.88905436,9.339829
81756138728039,-0.31064963,0.24500065,9.296688
81756158583399,-0.35927567,0.32442603,9.786147
81756178438759,-0.5500206,0.98192936,10.257284
81756198294120,-0.1426147,1.4470198,10.246806
81756218153453,0.25214103,1.3774208,9.897104
81756238008814,0.7491412,1.4420942,9.66885
81756257864300,0.94059134,1.6876279,9.509896
81756277719660,0.6209118,1.5682349,9.36911
81756297575020,0.0044481885,1.7576165,9.294073
81756317429147,-0.72925675,2.4922948,10.342223
81756337284507,-1.6030558,2.694445,12.732833
81756357139868,-1.438409,2.2017765,13.786665
81756376995229,-0.62413824,1.7041564,11.858776
81756396850718,0.13234513,0.36587828,8.77929
81756416708235,2.138335,0.46283782,8.1937895
81756436563724,4.2343516,1.9729345,9.223988
81756456419208,2.7852561,-1.3392035,9.502813
81756476274696,2.2290602,-2.1263797,10.186609
81756496130056,1.9339226,-2.2333145,12.203899
81756515980221,0.6191391,-2.5677433,13.996606
81756535835581,0.9325584,-1.6840094,12.415192
81756555690941,0.03551598,-0.58346385,10.268291
81756575546301,-2.2998219,-2.8317082,8.33052
81756595401661,-2.1798246,-3.9020455,6.961777
81756615252807,-0.22733976,-1.5626185,6.8805885
81756635108167,2.0538664,-0.14264487,6.5737123
81756654963527,2.2254124,-0.3163431,5.640797
81756674818759,1.1289941,-0.3047803,6.179091
81756694674119,1.8345387,-0.908647,7.3751097
81756714515386,2.2945082,-0.5134725,7.908676
81756734370362,1.8959575,0.49111697,8.702405
81756754225338,0.48740807,0.60792345,10.166481
81756774080442,-0.8335106,-0.09997467,11.188639
81756793935418,-1.4130147,-0.9577241,10.502794
81756813780556,-0.510999,-1.5478532,9.506089
81756833635404,0.093869805,-1.823692,8.84716
81756853490124,0.8588663,-2.3271,9.670115
81756873344972,1.8368425,-1.6516508,11.572477
81756893199693,2.155952,-0.4494145,11.946898
81756913049652,1.3841659,1.389092,10.932178
81756932904245,0.44609433,1.3813951,9.446928
81756952758834,-0.4214255,-0.014796085,8.535626
81756972613426,-1.3948174,-1.7676544,9.177348
81756992468018,-1.8427765,-1.9856932,10.087425
81757012323993,-0.9681227,-1.1918011,10.338318
81757032178585,0.34333917,-0.053955015,10.365871
81757052033049,1.0932845,-0.26129273,10.000731
81757071887641,1.7247734,-0.08105352,9.602002
81757091742233,1.5777793,0.14974836,9.925571
81757111601926,0.9437812,-0.303137,9.866189
81757131456646,0.15662052,-1.0805149,9.090773
81757151311366,-0.025678439,-0.99880654,9.234666
81757171166086,-0.030386962,-0.28713185,9.550203
81757191020678,0.26332146,-0.099056445,9.871076
81757210882071,0.57058716,-0.100237384,10.104741
81757230736919,0.56221884,0.16639581,10.149336
81757250591767,0.44714358,0.09801671,10.157259
81757270446488,0.34101632,-0.3770692,9.72176
81757290301335,0.47376806,-0.9534174,9.172013
81757310155452,0.3896208,-1.5178305,9.207165
81757330010299,0.24859376,-1.5227542,9.157072
81757349865147,0.20929694,-1.3696033,9.181537
81757369719995,0.0076609864,-0.98275596,9.554304
81757389574843,0.16077812,-0.56599975,10.013672
81757409423526,0.73122185,0.037933033,10.06457
81757429278375,1.1606885,-0.02524338,9.886536
81757449133096,1.2630172,-0.21116287,9.810855
81757468987945,0.5985803,-0.42375034,9.708933
81757488842666,-0.20498051,-0.3906697,9.57969
81757508705157,-0.20898756,-0.17776878,9.439316
81757528560006,-0.17341588,-0.12747625,9.349081
81757548414855,-0.23153844,-0.27405658,9.4765
81757568269832,-0.13180864,-0.40266705,9.599941
81757588124681,0.18167032,-0.5098846,9.648632
81757607983412,0.5105919,-0.398802,9.687008
81757627838517,0.5393877,-0.22787732,9.71283
81757647693494,0.48164672,-0.14196023,9.7029915
81757667548471,0.30055973,-0.28705165,9.6555605
81757687403448,0.2247765,-0.49455342,9.646134
81757707258425,0.41101235,-0.48816252,9.82222
81757727122862,0.6239638,-0.32060257,9.919081
81757746977950,0.5775505,-0.14843042,9.713912
81757766833183,0.43998793,-0.15206687,9.6636915
81757786688414,0.3192526,-0.26194987,9.640746
81757806543518,0.34388334,-0.35669708,9.544711
81757826399170,0.4390289,-0.3056718,9.543599
81757846254530,0.45225614,-0.21228203,9.670089
81757866109762,0.33766192,-0.16385363,9.774295
81757885965122,0.26403847,-0.20302966,9.813608
81757905820354,0.30076814,-0.33310515,9.745027
81757925675952,0.35132688,-0.39856294,9.68828
81757945531312,0.45620662,-0.3047644,9.742123
81757965386544,0.44147366,-0.16783252,9.866655
81757985241904,0.37722528,-0.19213995,9.895596
81758005097264,0.3839431,-0.3229511,9.758345
81758024961740,0.40953183,-0.3832023,9.721342
81758044817356,0.51899856,-0.39082065,9.771449
81758064672972,0.43270823,-0.2517143,9.832051
81758084528460,0.3031522,-0.2388328,9.818894
81758104384076,0.33667654,-0.35093555,9.743366
81758124242026,0.28707626,-0.3832455,9.698186
81758144097770,0.3493302,-0.39178258,9.638239
81758163953387,0.37848878,-0.37092593,9.658973
81758183809130,0.40536952,-0.35792857,9.801579
81758203664874,0.39726618,-0.36047697,9.787207
81758223522738,0.30631083,-0.36295807,9.80704
81758243378482,0.32770178,-0.31544673,9.806457
81758263234226,0.29725364,-0.34005275,9.875988
81758283089970,0.35362294,-0.29396635,9.920785
81758302945715,0.45409727,-0.26050657,9.681667
81758322793274,0.3992243,-0.30758026,9.658476
81758342648891,0.40153003,-0.25197545,9.698699
81758362504380,0.36324167,-0.22999336,9.678635
81758382359997,0.32252955,-0.17838249,9.925213
81758402215614,0.37458327,-0.11388255,10.134394
81758422070701,0.41713855,-0.1807983,9.920706
81758441926190,0.38393772,-0.20004244,9.68339
81758461781679,0.34818193,-0.3125875,9.660054
81758481637168,0.33067778,-0.23986636,9.7245245
81758501492657,0.31959167,-0.2230654,9.77552
81758521339642,0.3143254,-0.30322534,9.790661
81758541195003,0.29830986,-0.3958677,9.712868
81758561050364,0.2676049,-0.35527956,9.768184
81758580905597,0.29443708,-0.22765745,9.837931
81758600760958,0.3281997,-0.24433447,9.753804
81758620608467,0.27285898,-0.29728654,9.791389
81758640463572,0.29416946,-0.3722754,9.828377
81758660318677,0.29090795,-0.43792838,9.72894
81758680173910,0.3207367,-0.35857612,9.716932
81758700029015,0.2884815,-0.36168748,9.677874
81758719883772,0.19067486,-0.3607022,9.708928
81758739738877,0.2280759,-0.26956335,9.724827
81758759594088,0.2487347,-0.26990306,9.872282
81758779449192,0.28168347,-0.17572579,10.0686
81758799304296,0.26530245,-0.17814027,9.953033
81758819153762,0.15388007,-0.22255336,9.863958
81758839008738,0.39678854,-0.15506896,9.698078
81758858863842,0.28352854,-0.20633759,9.571243
81758878718818,0.049716946,-0.21424828,9.731352
81758898573922,0.100927494,-0.16026984,9.828022
81758918422382,0.0044713044,-0.23676983,9.768775
81758938277230,0.051567934,-0.2925924,9.662235
81758958132078,0.16116624,-0.23477405,9.588595
81758977986926,0.15305428,-0.27638066,9.778075
81758997841774,0.22461462,-0.33686328,10.001871
81759017702815,0.23730351,-0.31983748,9.88705
81759037557791,0.31312084,-0.46595898,9.879279
81759057412767,0.35187423,-0.43342343,9.770683
81759077267615,0.29944476,-0.40000066,9.699234
81759097122591,0.49643272,-0.36129123,9.8861
81759116975629,0.37088645,-0.3428894,9.860713
81759136830605,0.3167181,-0.35532016,9.716721
81759156685453,0.36501434,-0.310223,9.642184
81759176540430,0.2592369,-0.36582923,9.723168
81759196395279,0.27471507,-0.29390842,9.920688
81759216250121,0.2948181,-0.17910343,9.8609295
81759236104969,0.2927184,-0.27711168,9.803567
81759255959817,0.43448392,-0.31806046,9.810123
81759275814665,0.43175924,-0.26773655,9.836361
81759295669641,0.3809728,-0.31365424,9.792294
81759315529443,0.2819281,-0.34266207,9.760165
81759335384420,0.3411563,-0.38734284,9.705424
81759355239397,0.2991094,-0.37229228,9.775591
81759375094502,0.23433226,-0.27049118,9.840995
81759394949479,0.22208585,-0.26415706,9.82813
81759414807088,0.18397765,-0.17359902,9.789056
81759434662065,0.10622082,-0.20146108,9.752605
81759454517170,0.1864623,-0.28752536,9.791683
81759474372147,0.22031057,-0.26153085,9.806147
81759494227124,0.25706962,-0.3214116,9.687737
81759514083843,0.2806694,-0.31801006,9.67319
81759533938948,0.28115132,-0.3315587,9.768599
81759553793925,0.2990793,-0.32484096,9.835537
81759573648902,0.3000162,-0.26602778,9.889455
81759593504007,0.29179344,-0.34074414,9.803435
81759613358630,0.27623752,-0.28163415,9.743911
81759633213735,0.2540171,-0.23162846,9.79369
81759653068712,0.26611155,-0.33607763,9.783364
81759672923817,0.2707779,-0.27510574,9.728692
81759692778794,0.2982985,-0.3111086,9.805145
81759712637141,0.17879322,-0.30116326,9.812332
81759732489345,0.1485997,-0.29950124,9.830999
81759752344577,0.24740723,-0.31910387,9.750561
81759772199681,0.19470833,-0.2904421,9.757107
81759792054785,0.2164094,-0.21682784,9.752303
81759811912778,0.28389046,-0.22379276,9.857817
81759831768010,0.2109063,-0.3021535,9.813809
81759851623242,0.28957918,-0.31838349,9.78357
81759871478474,0.25050473,-0.31436947,9.787071
81759891333706,0.19980285,-0.3627797,9.793598
81759911189822,0.33030868,-0.3676244,9.815801
81759931045182,0.31785175,-0.39535707,9.678489
81759950900414,0.27026793,-0.35958588,9.687055
81759970755646,0.19404557,-0.27058166,9.840421
81759990610878,0.25953454,-0.33680162,9.901708
81760010472999,0.2873864,-0.33487067,9.870561
81760030328487,0.28027043,-0.40846714,9.7458725
81760050183975,0.3721843,-0.49830213,9.795551
81760070039463,0.3783757,-0.39771715,9.794387
81760089894823,0.36914414,-0.39214283,9.783982
81760109749915,0.38858578,-0.3995541,9.818911
81760129605275,0.24890122,-0.37697625,9.838599
81760149460764,0.25068954,-0.32897323,9.840644
81760169316253,0.21042195,-0.24414945,9.707965
81760189171739,0.19431528,-0.280214,9.70657
81760209025228,0.21064313,-0.3486264,9.747956
81760228880588,0.2682476,-0.31251335,9.804353
81760248735948,0.27813983,-0.3647379,9.812094
81760268591436,0.2848594,-0.40007013,9.805914
81760288446796,0.25699493,-0.40228277,9.796625
81760308302157,0.262254,-0.31576702,9.715044
81760328155498,0.12864219,-0.28563842,9.727833
81760348010859,0.15789706,-0.354364,9.764344
81760367866220,0.15336098,-0.3589398,9.702176
81760387721709,0.20248868,-0.38834608,9.770697
81760407577070,0.31875747,-0.43466824,9.911315
81760427431443,0.2973292,-0.47190833,9.881479
81760447286804,0.30181536,-0.55223244,9.805868
81760467142037,0.29946345,-0.46696296,9.770145
81760486997398,0.2211048,-0.30922672,9.77431
81760506852759,0.15393417,-0.2058109,9.743458
81760526706168,0.11483603,-0.21009386,9.71959
81760546561401,0.06620577,-0.21561286,9.756023
81760566416634,0.072450094,-0.17282377,9.809256
81760586271995,0.16021511,-0.20665747,9.772495
81760606127228,0.2259859,-0.38799608,9.681669
81760625978473,0.22507848,-0.39754692,9.687514
81760645833706,0.42258352,-0.34331992,9.74791
81760665688939,0.25591654,-0.21090879,9.826537
81760685544172,0.1893729,-0.19641003,9.923333
81760705399405,0.20998448,-0.19607379,9.911378
81760725249372,0.07603393,-0.18552588,9.837148
81760745104477,0.056718323,-0.38959232,9.736212
81760764959431,0.24398787,-0.40105852,9.654283
81760784814535,0.25361097,-0.38975596,9.689496
81760804669639,0.31738913,-0.32400993,9.769027
81760824524444,0.2070255,-0.26082966,9.848677
81760844379420,0.093595035,-0.36286622,9.802469
81760864234524,0.114911444,-0.34337762,9.892226
81760884089628,0.15400384,-0.2523485,9.803076
81760903944604,0.22143102,-0.31029552,9.737652
81760923801354,0.22291477,-0.24483122,9.719031
81760943656458,0.13694836,-0.33944392,9.717899
81760963511562,0.22056107,-0.38991487,9.875594
81760983366666,0.23555654,-0.34346437,9.85779
81761003221770,0.22843555,-0.50277656,9.762264
81761023084926,0.35976812,-0.48301217,9.76167
81761042940158,0.2173127,-0.40878955,9.744217
81761062795390,0.13061918,-0.34095487,9.9320345
81761082650750,0.108238965,-0.407756,9.811765
81761102505982,0.14638023,-0.5295141,9.623172
81761122361215,0.26438805,-0.57823986,9.75302
81761142214892,0.45331708,-0.3748879,9.550067
81761162070252,0.07205964,-0.32905436,9.969447
81761181925485,-0.063267335,-0.37050697,9.952046
81761201780716,0.21462548,-0.5232482,9.723213
81761221635113,0.10742098,-0.3935528,9.857483
81761241490346,0.091553755,-0.23253669,9.868536
81761261345577,0.20773259,-0.3498839,9.730108
81761281200809,0.04506679,-0.46292898,9.658959
81761301055914,0.2190364,-0.3155439,9.854279
81761320906943,0.15453544,-0.082928546,9.917753
81761340762047,-0.124871366,-0.22328445,9.737643
81761360617152,-0.0076734982,-0.15817767,9.697176
81761380466466,-0.01185987,-0.08623288,9.851415
81761400321571,-0.042754304,-0.32079723,9.767362
81761420176804,0.18754072,-0.3976484,9.752708
81761440034129,0.25098884,-0.47399756,9.625188
81761459889234,0.350799,-0.63248205,9.711124
81761479744339,0.31225383,-0.67568296,9.750378
81761499599572,0.19770609,-0.6892108,9.775569
81761519460175,0.1895442,-0.61516243,9.921674
81761539315536,0.046935517,-0.6874113,9.802078
81761559170769,0.0013767364,-0.7997961,9.882953
81761579026002,0.2717646,-0.50330985,9.710065
81761598881235,0.3692711,-0.28343883,9.763279
81761618736712,0.23150425,-0.18608388,9.836703
81761638591945,0.07618037,-0.2159498,9.823454
81761658447178,0.08114531,-0.2521402,9.767164
81761678302539,0.031419665,-0.09283073,9.759812
81761698157772,0.1397533,0.03624417,9.786859
81761718013133,0.21953298,-0.007949863,9.882025
81761737865594,0.2386946,-0.13749577,9.891392
81761757720826,0.18161222,-0.36316314,9.967659
81761777576059,0.28725463,-0.434224,9.768727
81761797431290,0.12560368,-0.48940817,9.683175
81761817284177,0.027357413,-0.4008359,9.849681
81761837139410,0.14331302,-0.20088059,9.685577
81761856994641,0.07514172,-0.28372917,9.619067
81761876849873,-0.042151302,-0.34696326,9.772259
81761896705106,0.035257865,-0.4363625,9.82807
81761916560337,0.07982188,-0.29586786,9.7991705
81761936417730,-0.02876582,-0.25154024,9.6499815
81761956272963,0.14316647,-0.5585214,9.846646
81761976128194,0.13077132,-0.64919627,9.742333
81761995983554,0.16785362,-0.45814475,9.72523
81762015838787,0.29827562,-0.39959443,9.942451
81762035696645,0.10620225,-0.60399777,9.904046
81762055552005,0.015790949,-0.5352132,9.72489
81762075407366,0.16108713,-0.28831285,9.708421
81762095262725,0.13464497,-0.3393798,9.747528
81762115115131,0.106854245,-0.45905644,9.752623
81762134970364,0.15430115,-0.44884855,9.733556
81762154825723,0.10949949,-0.36250067,9.798404
81762174680955,0.0654025,-0.19840534,9.757083
81762194536316,0.102783166,-0.19984783,9.753663
81762214391547,0.15746933,-0.20812568,9.801334
81762234243994,0.20753917,-0.18755119,9.9277115
81762254099227,0.18156306,-0.15656582,9.718316
81762273954330,0.18915106,-0.11203007,9.742129
81762293809562,0.2959262,-0.2190451,9.790602
81762313664795,0.20317574,-0.30458948,9.816565
81762333518222,0.25788406,-0.28659406,9.7767935
81762353373327,0.25659266,-0.2595936,9.788675
81762373228432,0.22273418,-0.2538321,9.798937
81762393083537,0.10630966,-0.28871572,9.700455
81762412938214,0.11565436,-0.30825317,9.733314
81762432793319,0.072402164,-0.29881638,9.813371
81762452648424,0.16077891,-0.3537995,9.791507
81762472503529,0.10890543,-0.3226083,9.795128
81762492358634,0.07311644,-0.40881777,9.63377
81762512213739,0.035400562,-0.44547138,9.838468
81762532071416,0.1296226,-0.3663589,9.923825
81762551926521,0.06673907,-0.2843054,9.8290205
81762571781754,-0.010779589,-0.3264396,9.871926
81762591636859,-0.020310452,-0.41481385,9.791715
81762611491964,0.08940778,-0.38847718,9.790138
81762631349637,0.18824431,-0.3573208,9.781254
81762651204870,0.11973344,-0.47066224,9.712747
81762671060103,0.12628445,-0.39071932,9.772207
81762690915336,0.14744772,-0.3561753,9.842765
81762710763903,0.11532188,-0.33538088,9.897258
81762730619008,0.107707456,-0.30014446,9.715956
81762750474113,0.0028833882,-0.322477,9.637523
81762770329196,0.02166803,-0.34088072,9.727725
81762790184301,0.114451624,-0.37346542,9.826331
81762810039404,0.19475187,-0.39254797,9.807702
81762829890564,0.04009186,-0.427011,9.80454
81762849745541,0.05123635,-0.44419903,9.757554
81762869600644,0.020127771,-0.3549474,9.818993
81762889455620,0.10665281,-0.3840208,9.717941
81762909310597,0.15960422,-0.3836969,9.819361
81762929164457,0.06502019,-0.36583975,9.865025
81762949019305,0.050232206,-0.45528322,9.811903
81762968874282,0.07809672,-0.39844495,9.877513
81762988729257,0.058777437,-0.34764418,9.695331
81763008585544,-0.04466807,-0.40777332,9.708148
81763028440521,-0.0023848335,-0.49114203,9.779464
81763048295496,0.09448071,-0.5179095,9.764484
81763068150472,0.20979185,-0.42149246,9.803565
81763088005449,0.07072837,-0.3999012,9.730277
81763107860424,-0.016762596,-0.43364242,9.805261
81763127714536,0.10539342,-0.3311418,9.828863
81763147569513,0.113823295,-0.3033154,9.765558
81763167424488,0.04075115,-0.36547247,9.809403
81763187279464,0.041073665,-0.42953113,9.737502
81763207134441,0.08051737,-0.4041442,9.865751
81763226996318,0.1875258,-0.33696344,9.837522
81763246851420,0.1224429,-0.31993818,9.785901
81763266706653,0.061119482,-0.35298872,9.818386
81763286561756,0.059179652,-0.36492586,9.842296
81763306416860,0.14150861,-0.41717976,9.757915
81763326271965,0.13051808,-0.461834,9.8688965
81763346121239,0.18717395,-0.55693424,9.789628
81763365976215,0.12411821,-0.4542192,9.741102
81763385831192,0.013660937,-0.32322767,9.713313
81763405686295,-0.1197237,-0.32340336,9.722054
81763425538327,-0.17596418,-0.3395225,9.805871
81763445393176,-0.11329417,-0.2389258,9.759178
81763465248023,-0.004647189,-0.18999845,9.858529
81763485102999,0.124600135,-0.29743594,9.830042
81763504957848,0.081930354,-0.3392428,9.819363
81763524819087,0.06782584,-0.32420748,9.82243
81763544674063,0.037904903,-0.36647338,9.685517
81763564529168,0.0929703,-0.36249197,9.790969
81763584384143,0.0011150817,-0.31765932,9.729608
81763604239119,0.009379813,-0.37181106,9.702965
81763624094224,0.09072778,-0.43317622,9.816389
81763643952716,0.12657937,-0.45353648,9.814456
81763663807948,0.13320757,-0.34828314,9.866015
81763683663053,-0.006769767,-0.3770189,9.7857485
81763703518156,0.036812402,-0.49187416,9.750993
81763723372772,0.10747081,-0.3605697,9.79935
81763743227877,0.031838167,-0.3352318,9.775904
81763763075472,0.044755943,-0.38706735,9.767118
81763782930448,0.043410473,-0.4036268,9.739245
81763802785553,0.090378635,-0.33687282,9.757257
81763822637816,0.07386018,-0.27638203,9.7992525
81763842492920,0.07766973,-0.29677412,9.7238245
81763862348025,0.09561735,-0.30486473,9.885242
81763882203000,0.11551029,-0.23649913,9.783307
81763902058104,0.05427258,-0.30576554,9.741758
81763921913081,0.18478382,-0.29365557,9.841346
81763941768672,0.15874183,-0.25867492,9.855537
81763961623648,0.15557604,-0.23332782,9.831336
81763981478753,0.17612454,-0.31971222,9.76186
81764001333856,0.20273119,-0.36280817,9.731362
81764021195866,0.1355583,-0.29933926,9.815808
81764041051099,0.14725782,-0.36403248,9.81201
81764060906330,0.15049122,-0.4081689,9.812578
81764080761562,0.1566245,-0.36526752,9.779104
81764100616667,0.12629162,-0.35991037,9.745867
81764120476287,0.0945634,-0.37340364,9.821496
81764140331520,0.119162686,-0.40081897,9.818587
81764160186881,0.12293098,-0.36394876,9.7573595
81764180042242,0.11407753,-0.34344554,9.765321
81764199897603,0.14872742,-0.37887657,9.688313
81764219752964,0.043610606,-0.3112281,9.790596
81764239606003,0.09850403,-0.29371727,9.768356
81764259461364,0.107800215,-0.30603665,9.826998
81764279316597,0.110102996,-0.31763464,9.8039465
81764299171958,0.073965356,-0.39920628,9.720935
81764319025017,0.076982245,-0.30350393,9.8106985
81764338880250,0.11661841,-0.28355342,9.721254
81764358735483,0.17343277,-0.259026,9.775309
81764378590716,0.090216,-0.299273,9.797948
81764398445949,0.065556295,-0.36989418,9.730481
81764418301310,0.18107633,-0.24238147,9.785616
81764438135563,0.15246198,-0.24586166,9.856426
81764457990412,0.1376011,-0.32039925,9.916585
81764477845261,0.13648538,-0.28135958,9.775888
81764497700110,0.0857373,-0.34437597,9.6843195
81764517554959,0.16694078,-0.31241226,9.679337
81764537417682,0.14922449,-0.22987276,9.761208
81764557272659,0.2079957,-0.20538336,9.909048
81764577127636,0.16614412,-0.20499234,9.878788
81764596982591,0.08906859,-0.3190274,9.732075
81764616831692,0.120955944,-0.2960627,9.707556
81764636686541,0.07526168,-0.2764249,9.738112
81764656541390,0.100383684,-0.2738529,9.792612
81764676396367,0.16634719,-0.26133493,9.801927
81764696251216,0.20713046,-0.35666835,9.773628
81764716106065,0.21368036,-0.37262586,9.8423
81764735960574,0.18477556,-0.31381947,9.921786
81764755815423,0.17971945,-0.27079332,9.82894
81764775670270,0.113173366,-0.2532983,9.752561
81764795524990,0.17899914,-0.3477383,9.694979
81764815379839,0.14540105,-0.23056799,9.802803
81764835239206,0.13757358,-0.26844835,9.83546
81764855094182,0.1834125,-0.33843118,9.862745
81764874949159,0.24021743,-0.3191431,9.840456
81764894804006,0.16067515,-0.2869262,9.689735
81764914658982,0.051430207,-0.3580363,9.782797
81764934513959,0.0127768,-0.35901853,9.781353
81764954360352,0.11094241,-0.38381445,9.808245
81764974215072,0.1953099,-0.3740682,9.800861
81764994069793,0.122663714,-0.3847341,9.789098
81765013924512,0.11618092,-0.26015,9.730229
81765033782011,0.010529717,-0.3005175,9.765687
81765053636732,0.11422964,-0.46893823,9.822373
81765073491451,0.22420816,-0.31629875,9.883458
81765093346171,0.1283039,-0.27296367,9.774388
81765113200892,0.020806545,-0.337706,9.799929
81765133063151,0.010884348,-0.37658334,9.772586
81765152917999,0.14133425,-0.3801206,9.772719
81765172772976,0.12682754,-0.29996073,9.799077
81765192627823,0.067048974,-0.3918466,9.735518
81765212482671,0.11114374,-0.36640403,9.785443
81765232337520,0.11736099,-0.30765927,9.8084955
81765252193997,0.13428403,-0.3211198,9.832165
81765272049102,0.1147349,-0.3533716,9.864744
81765291904079,0.12365502,-0.39910668,9.765662
81765311759056,0.16140956,-0.34044805,9.708348
81765331618397,0.0706176,-0.31224772,9.680905
81765351473502,0.09296341,-0.33568272,9.738197
81765371328607,0.16916431,-0.29671013,9.92286
81765391183712,0.100304574,-0.29525048,9.789317
81765411038817,0.0702157,-0.29746974,9.81907
81765430891690,0.073899746,-0.3042484,9.812457
81765450746667,0.06926785,-0.3706105,9.802437
81765470601772,0.22678591,-0.28823614,9.863002
81765490456749,0.06285589,-0.32290268,9.744755
81765510311854,0.025437614,-0.4042019,9.6719265
81765530166831,0.0733195,-0.38478833,9.644872
81765550021630,0.19610858,-0.33200523,9.812709
81765569876607,0.19390169,-0.24067585,9.993704
81765589731712,0.029463787,-0.34733462,9.772015
81765609586689,0.08823777,-0.44776875,9.790609
81765629447042,0.12921475,-0.33645517,9.759185
81765649302275,0.14604832,-0.3537544,9.796705
81765669157508,0.17152184,-0.34138846,9.753981
81765689012741,0.09449094,-0.38241664,9.745317
81765708867974,0.14077078,-0.33106714,9.801736
81765728723184,0.07812718,-0.2879523,9.798644
81765748587053,0.108741805,-0.3849977,9.865908
81765768442542,0.17103057,-0.29840988,9.841303
81765788298029,0.07067031,-0.34874487,9.778824
81765808153389,0.14131773,-0.39341906,9.786928
81765828008878,0.10497755,-0.34538743,9.724815
81765847859454,0.12234513,-0.35942328,9.612131
81765867714814,0.17849694,-0.32990015,9.766716
81765887570303,0.10864615,-0.34956965,9.861764
81765907425662,0.15675697,-0.30232757,9.870015
81765927281077,0.109368645,-0.30236688,9.851439
81765947136438,0.04038584,-0.36393163,9.755648
81765966991925,0.10862779,-0.28732133,9.714838
81765986847413,0.15841869,-0.3498313,9.686884
81766006702774,0.15865253,-0.3784455,9.713901
81766026558261,0.13644944,-0.3399946,9.785074
81766046394315,0.21550292,-0.30537996,9.758369
81766066249292,0.113984294,-0.23404597,9.882754
81766086104139,0.0809657,-0.27308005,9.887099
81766105959115,0.08315156,-0.34497926,9.831843
81766125814092,0.13847218,-0.3586437,9.649524
81766145675900,0.15982057,-0.41051567,9.702781
81766165531004,0.17134348,-0.31686053,9.737905
81766185386109,0.18380183,-0.31304693,9.814373
81766205241342,0.09376184,-0.30505183,9.834195
81766225103563,0.037793484,-0.31744125,9.824278
81766244958668,0.14767379,-0.36559534,9.757694
81766264813899,0.19660906,-0.29225472,9.755293
81766284669131,0.14237855,-0.2934393,9.770849
81766304524364,0.20317076,-0.3334392,9.846654
81766324379595,0.18952337,-0.2890403,9.805051
81766344237063,0.14621332,-0.3082007,9.706456
81766364092296,0.1026978,-0.23892124,9.798473
81766383947529,0.117535174,-0.22735491,9.828512
81766403802762,0.12926142,-0.29168317,9.731385
81766423658123,0.13868344,-0.29765108,9.75118
81766443507552,0.17872192,-0.31550467,9.841779
81766463362785,0.21166398,-0.2198218,9.928258
81766483217890,0.13283424,-0.2858654,9.827062
81766503072995,0.10694314,-0.40759763,9.762407
81766522923144,0.12841073,-0.34343508,9.710102
81766542778121,0.20003174,-0.28711584,9.6727085
81766562633098,0.17775272,-0.3279336,9.751563
81766582488075,0.16269892,-0.33711168,9.812756
81766602343052,0.17690264,-0.27192223,9.863897
81766622198029,0.15012997,-0.2253734,9.835328
81766642052360,0.095339105,-0.2755789,9.732391
81766661907337,0.10242263,-0.30401716,9.696686
81766681762314,0.17565584,-0.3024778,9.746615
81766701617291,0.23405145,-0.31250468,9.766509
81766721472268,0.14835055,-0.2831031,9.855571
81766741324575,0.11012653,-0.34719986,9.8550205
81766761179404,0.13952348,-0.29872945,9.749117
81766781034381,0.23119709,-0.25049734,9.760687
81766800889356,0.19512783,-0.21966043,9.906175
81766820744204,0.14715683,-0.266085,9.764589
81766840599181,0.222911,-0.37811407,9.629477
81766860454644,0.28438914,-0.23860796,9.706604
81766880309620,0.15415092,-0.15822726,9.994085
81766900164597,0.14624228,-0.18955646,9.799822
81766920019572,0.10673958,-0.3149891,9.783484
81766939880918,0.2917131,-0.30586442,9.800173
81766959736023,0.1695866,-0.10156303,9.82011
81766979591126,0.12616941,-0.20490961,9.845108
81766999446230,0.27318862,-0.38949236,9.826013
81767019301335,0.23365138,-0.2179822,9.782024
81767039163021,0.17979865,-0.14706895,9.693693
81767059018253,0.15057087,-0.29182446,9.693514
81767078873358,0.17697917,-0.29170865,9.818937
81767098728589,0.21581367,-0.2415938,9.80654
81767118583821,0.16066033,-0.22914322,9.713487
81767138439054,0.1509773,-0.40657213,9.7457485
81767158291640,0.24523292,-0.2935927,9.850846
81767178146872,0.313899,-0.17660926,9.912245
81767198001977,0.2750893,-0.19195943,9.797676
81767217857080,0.12781335,-0.24779584,9.736787
81767237711473,0.1126876,-0.25809112,9.771818
81767257566578,0.16247769,-0.16634072,9.768225
81767277421179,0.16360861,-0.08551977,9.796292
81767297276412,0.20561197,-0.24518177,9.813615
81767317131517,0.19146147,-0.25663203,9.778152
81767336988526,0.27406204,-0.16990082,9.789168
81767356843759,0.23883668,-0.20053521,9.778985
81767376698992,0.19142166,-0.23288079,9.833584
81767396554353,0.23248608,-0.29711008,9.867861
81767416409586,0.18879515,-0.2850201,9.817013
81767436264819,0.27695212,-0.315955,9.80622
81767456120636,0.2523235,-0.3018717,9.707654
81767475975869,0.25569478,-0.27868745,9.81383
81767495831102,0.26903072,-0.17164871,9.834929
81767515686335,0.16964087,-0.21166795,9.809059
81767535547816,0.2036983,-0.33669513,9.791357
81767555403177,0.28185314,-0.35057884,9.752037
81767575258538,0.25282007,-0.22482668,9.77947
81767595113899,0.25863793,-0.26371306,9.781131
81767614969260,0.24406661,-0.3001672,9.842066
81767634824621,0.2798563,-0.27119336,9.835575
81767654673230,0.32385632,-0.22119585,9.805594
81767674528335,0.1523103,-0.2072008,9.8465605
81767694383568,0.20603631,-0.30234522,9.824139
81767714238673,0.2513826,-0.2185109,9.711363
81767734093778,0.19969329,-0.18527412,9.69667
81767753952560,0.18612237,-0.24934901,9.729081
81767773807792,0.22234501,-0.22920293,9.834498
81767793663025,0.31905618,-0.21040933,9.850362
81767813518256,0.27966103,-0.17791246,9.814561
81767833374250,0.21193527,-0.21345267,9.849398
81767853229611,0.24857494,-0.2684269,9.750182
81767873084970,0.2706016,-0.26648876,9.750278
81767892940202,0.3467369,-0.21726145,9.784221
81767912795563,0.29711327,-0.16979982,9.7462015
81767932650922,0.27121872,-0.23347725,9.716768
81767952505173,0.33369896,-0.28296083,9.777265
81767972360534,0.2972939,-0.19495532,9.90701
81767992215893,0.30256206,-0.15948512,9.8840065
81768012071253,0.2503913,-0.2506983,9.637026
81768031926614,0.2630103,-0.33034393,9.685896
81768051777475,0.2899694,-0.299664,9.726673
81768071632707,0.3225021,-0.107266225,9.7438545
81768091487940,0.3386783,-0.16831006,9.829668
81768111343171,0.3109726,-0.16276824,9.864481
81768131201323,0.19566406,-0.094102584,9.843132
81768151056684,0.26202032,-0.07986583,9.757076
81768170911915,0.30319065,-0.15003791,9.884355
81768190767276,0.37133464,0.038155243,9.82139
81768210622509,0.10686491,-0.0017704342,9.725757
81768230477870,0.04072556,-0.031103086,9.84737
81768250338780,0.2646434,0.019124448,9.871299
81768270194141,0.087462984,-0.07602392,9.762125
81768290049628,0.16222441,-0.017902112,9.63443
81768309904988,0.13572396,-0.081471525,9.724938
81768329760349,0.14546256,-0.14931194,9.750072
81768349610711,0.40523434,0.14616416,9.734255
81768369465943,0.3025171,-0.049937513,9.891956
81768389321176,0.15784521,-0.31966895,9.912773
81768409176537,0.08628624,-0.13258612,9.681414
81768429023042,0.24634351,-0.07244189,9.826647
81768448878147,0.44061124,-0.11334414,9.838857
81768468733252,0.47961903,-0.2300035,9.851564
81768488588229,0.46570837,-0.18490504,9.749005
81768508443334,0.45425746,-0.13422132,9.742532
81768528298439,0.38325134,-0.027680136,9.7329035
81768548156176,0.32725483,-0.050335854,9.665209
81768568011281,0.40828466,-0.17887871,9.717888
81768587866514,0.39078456,-0.19599973,9.777837
81768607721619,0.32932582,-0.18440507,9.957831
81768627576724,0.40565997,0.006763052,9.80698
81768647428635,0.52012104,-0.096955195,9.660833
81768667283868,0.4123977,-0.18334566,9.848424
81768687138973,0.17388679,-0.058183096,9.839613
81768706994078,0.18289967,0.008812677,9.64111
81768726849183,0.29403898,-0.0039144014,9.688674
81768746704288,0.3162545,-0.027876353,9.790507
81768766556444,0.21926798,-0.07448338,9.97438
81768786411420,0.10209712,-0.048427444,9.814758
81768806266525,0.25580525,0.030355055,9.687323
81768826121500,0.34736627,-0.009664555,9.875956
81768845974660,0.5315615,0.0842764,9.717119
81768865829637,0.38616392,-0.11159963,9.740434
81768885684612,0.1794411,-0.043483548,10.111233
81768905539588,0.068873644,0.053560853,10.075455
81768925394565,0.2670495,0.23488188,9.566246
81768945245426,0.36313805,-0.15186943,9.616001
81768965100274,0.25888547,-0.25132734,9.948308
81768984955123,0.34925613,-0.12630378,9.957661
81769004809970,0.42567447,0.060048915,9.67645
81769024664818,0.22804369,-0.08177335,9.692448
81769044519667,0.0413743,-0.11151754,9.842953
81769064369365,0.16664979,7.208954E-4,9.834201
81769084224085,0.33156222,-0.12295667,9.753618
81769104078934,0.44391915,-0.2263313,9.689122
81769123933653,0.33810654,0.013284871,9.895289
81769143791567,0.2800891,0.038377136,9.797844
81769163646416,0.29768577,-0.118761346,9.815651
81769183501263,0.24825606,-0.2089067,9.8554535
81769203356111,0.442576,-0.03178923,9.940816
81769223210832,0.4339526,-0.27522415,9.968324
81769243066737,0.3045097,-0.19568348,9.722674
81769262921585,0.3309005,0.25234452,9.391074
81769282776434,0.2636151,-0.029976865,9.799439
81769302631281,0.2836141,-0.35805973,9.860227
81769322486129,0.27232522,-0.123321034,9.993123
81769342340850,0.21673924,-0.15915985,9.838882
81769362199354,0.22609405,-0.13695711,9.681094
81769382054202,0.3257781,-0.011588449,9.80242
81769401909179,0.449464,0.04195635,9.780841
81769421764026,0.46900314,-0.13472724,9.858091
81769441617046,0.5006363,-0.0814854,9.784192
81769461471895,0.3913814,-0.05924101,9.8973875
81769481326742,0.194883,-0.116180845,9.934736
81769501181590,0.18731697,-0.08387281,9.713394
81769521036439,0.30445212,-0.16609812,9.738553
81769540893390,0.38764042,-0.09279892,9.745468
81769560748238,0.32428917,0.0076088593,9.653469
81769580603087,0.2556488,-0.048386477,9.757012
81769600457934,0.29893652,-0.06819718,9.968018
81769620312654,0.263429,0.040904474,9.871202
81769640167503,0.23489092,-0.16738361,9.756024
81769660021887,0.3433155,-0.24339849,9.6591425
81769679876735,0.32284823,-0.050581787,9.724433
81769699731584,0.2800268,0.14510138,9.80125
81769719586303,0.30726618,-0.058228303,9.82775
81769739450733,0.403235,-0.155337,9.787867
81769759305710,0.39413643,-0.041413337,9.770437
81769779160813,0.29348406,0.002910645,9.848616
81769799017025,0.24947135,-0.034689654,9.853515
81769818872130,0.28022963,-0.050059363,9.767566
81769838727105,0.3162497,-0.06263167,9.769493
81769858584982,0.28832483,-0.053918887,9.744788
81769878440087,0.25065362,-0.0031213071,9.746859
81769898295318,0.16723639,0.004420036,9.744882
81769918150422,-0.01852552,-0.04770278,9.726393
81769938005655,0.067386486,-0.012129657,9.8873
81769957867780,0.24948952,0.037532467,9.835687
81769977723012,0.3162547,-0.01138106,9.984616
81769997578373,0.36422613,-0.054785244,9.879363
81770017433732,0.5633141,0.06465723,9.781329
81770037291384,0.78702766,0.16077383,9.934266
81770057146745,0.22929896,-0.4518319,10.077577
81770077002104,-0.08477146,-0.06370439,9.734023
81770096857464,0.24330895,0.60018295,9.616828
81770116712825,0.13054198,0.08335728,9.833362
81770136568184,-0.015555123,-0.6539838,9.58118
81770156421027,0.21725224,-0.8345189,9.51875
81770176276388,0.35865265,-0.19785756,9.500314
81770196131747,0.3320582,0.19334257,9.581318
81770215987107,0.13881984,0.44858766,9.620069
81770235842468,0.19634615,0.04239368,9.884792
81770255701062,-0.068277955,-0.5769827,10.048128
81770275556550,0.105369866,-0.23488805,9.905692
81770295411911,0.204574,0.3490695,9.874525
81770315267398,0.09991651,0.3666019,9.97594
81770335119485,0.1027641,-0.0050312686,9.903821
81770354974846,0.2708535,-0.22200088,9.8075
81770374830333,0.43380073,-0.17122371,9.855592
81770394685693,0.6038553,-0.05105465,9.953128
81770414541054,0.41607103,-0.069285,9.751269
81770434396413,0.26636305,-0.17836578,9.734994
81770454250060,0.29727063,-0.12280323,9.80384
81770474105421,0.41556597,-0.14225721,9.842785
81770493960782,0.39508265,-0.111024916,9.883487
81770513816140,0.2060482,-0.03808977,9.841529
81770533671501,0.07074371,0.03453484,9.7493
81770553524902,0.07009689,0.07081948,9.594366
81770573380134,-0.019566974,-0.17724128,9.6069355
81770593235495,-0.043950897,-0.2278386,9.695001
81770613090854,-0.0645422,-0.17469753,9.738646
81770632922981,0.064015694,-0.06941277,9.850272
81770652777830,0.35985267,-0.021195916,9.837358
81770672632679,0.57986516,-0.23540689,9.965459
81770692487400,0.56402296,-0.33312815,9.804448
81770712342249,0.5448934,-0.33144516,9.627464
81770732197092,0.5224009,-0.27318493,9.801448
81770752049641,0.71213603,-0.2834718,9.818762
81770771904362,0.75810474,-0.37482476,9.8664055
81770791759081,0.79991716,-0.36885896,9.701578
81770811613929,0.82811165,-0.26337403,9.698262
81770831468650,0.68202466,-0.20008503,9.828942
81770851317529,0.44264495,-0.23334037,9.842129
81770871172249,0.37903804,-0.13809264,9.73074
81770891026842,0.44999796,-0.09057614,9.821673
81770910881433,0.46361396,0.003640088,9.804993
81770930736025,0.24098568,0.02009354,9.88474
81770950590618,0.10796091,0.14686741,9.865847
81770970448360,-0.047039814,-0.008529609,9.765816
81770990302952,-0.09297408,-0.02196767,9.71183
81771010157673,-0.08865206,0.071400434,9.658924
81771030012264,-0.08490297,0.050059848,9.812618
81771049870129,-0.07757718,0.07012143,9.91049
81771069724850,-0.08629344,0.050805464,9.823915
81771089579441,-0.07828917,0.003802231,9.743308
81771109434033,-0.048550043,-0.034188125,9.691011
81771129288754,-0.04653409,-0.09946094,9.7363615
81771149148928,0.0655811,-0.08234667,9.731356
81771169003648,0.13522832,-0.06547413,9.754947
81771188858369,0.17894986,-0.02596698,9.944193
81771208713088,0.11903799,-0.11100004,9.863584
81771228567808,0.16393109,-0.10084958,9.7984085
81771248422529,0.12832977,-0.17463586,9.807957
81771268279760,0.23759654,-0.19855535,9.823263
81771288134481,0.40199217,-0.16765447,9.782901
81771307989202,0.44266647,-0.273709,9.704934
81771327843923,0.40896463,-0.30240878,9.797239
81771347698566,0.3016705,-0.19975713,9.8444195
81771367553415,0.09597199,-0.24484004,9.781586
81771387408136,0.17695631,-0.13580212,9.870038
81771407262857,0.2555274,-0.21862997,9.829906
81771427117706,0.34392434,-0.18438467,9.769921
81771446966921,0.32325011,-0.21224783,9.651733
81771466821514,0.28693166,-0.19023688,9.701431
81771486676235,0.29768577,-0.11449997,9.937519
81771506530828,0.20403124,-0.17087115,9.815328
81771526385421,0.23446126,-0.11253186,9.839542
81771546240014,0.19043717,-0.1653882,9.847863
81771566104865,0.18964769,-0.14363676,9.710229
81771585959714,0.27465072,-0.10199071,9.748247
81771605814563,0.24516594,-0.19514929,9.693975
81771625669412,0.33089083,-0.09439587,9.898286
81771645528705,0.275327,-0.08442768,9.78136
81771665383810,0.31548446,-0.10430303,9.751064
81771685238787,0.31333852,-0.08774378,9.9545355
81771705089723,0.3266983,-0.19400486,9.747201
81771724944700,0.43180782,-0.18795207,9.671746
81771744799677,0.3528829,-0.2825482,9.672198
81771764656030,0.27694982,-0.21092053,9.804714
81771784511135,0.33130744,0.029456336,9.944872
81771804366108,0.32914823,-0.025079258,9.792323
81771824221084,0.42509675,-0.16647586,9.811203
81771844076061,0.33809125,-0.1218824,9.773516
81771863941489,0.25305015,-0.11195669,9.819065
81771883796721,0.35586262,-0.068833746,9.846575
81771903652082,0.21913075,-0.20894986,9.673055
81771923507313,0.20887247,-0.23918588,9.755961
81771943370615,0.15809844,0.018449478,9.821371
81771963226104,0.09668143,0.036397703,9.848809
81771983081591,0.011414419,-0.13848817,9.87155
81772002937079,-0.07421932,-0.16879632,9.694003
81772022792568,0.11014379,-0.14027204,9.823923
81772042648183,0.15499854,-0.10352523,9.788002
81772062512253,0.09790577,-0.1692485,9.754447
81772082367998,0.21699426,-0.10647435,9.804833
81772102223741,0.1812671,-0.14187713,9.674816
81772122079357,0.19564019,-0.09690906,9.956303
81772141935102,0.10334174,-0.0037991765,9.941448
81772161795490,0.095945746,-0.03551204,9.814911
81772181651362,0.29991516,6.5323693E-4,9.976879
81772201507235,0.0046151984,-0.15741275,9.830724
81772221363106,0.11885827,4.864587E-4,10.312168
81772241216113,0.19037797,0.06046559,10.148805
81772261071730,0.056887366,-0.1120283,9.5974865
81772280927473,0.44867584,-0.08706755,10.197321
81772300783217,0.23753457,-0.051826455,10.099138
81772320638962,0.1643931,0.11776328,9.78442
81772340494705,0.42703205,0.07675352,10.026765
81772360349614,0.43670195,-0.023463065,9.915266
81772380205231,0.5695363,0.27929032,10.009694
81772400060976,0.5270506,0.4178561,9.894359
81772419916721,0.6087491,0.22113997,10.121838
81772439772466,0.5252776,0.12211145,10.054152
81772459614767,0.3901296,0.1741073,9.630168
81772479470128,0.7368516,0.2220089,10.121994
81772499325617,0.45256537,0.056508187,10.046581
81772519180978,0.3968701,0.15260708,9.838143
81772539032815,0.6203207,0.31323153,10.108255
81772558888176,0.3783373,0.03554924,9.860648
81772578743537,0.5840606,-0.009430934,9.950554
81772598599026,0.81372577,0.26295486,9.831186
81772618454387,0.66118795,0.2237064,9.9224825
81772638309748,0.2436335,0.17949389,9.7327795
81772658161019,-0.053843964,-0.02987615,10.1021385
81772678016380,0.032102946,0.18724175,10.745017
81772697871741,-0.1292012,0.2910584,10.113321
81772717727102,-0.028837947,0.114219606,9.837684
81772737582335,0.33206,0.18366559,9.826272
81772757435252,0.1956898,-0.046223324,9.729175
81772777290593,0.2854331,0.23323454,10.130459
81772797145954,-0.01840219,0.29460394,9.828168
81772817001185,3.5740412E-4,0.41405466,10.037403
81772836856545,0.30963254,0.64824504,10.012193
81772856711906,0.0017044563,0.5425116,9.627154
81772876559105,-0.15242788,0.67621714,10.009586
81772896414209,-0.29557857,0.5708351,9.89242
81772916269442,-0.23930407,0.65611434,9.81025
81772936124545,0.14611712,0.9039199,9.86353
81772955969284,0.25847128,0.8896939,9.859057
81772975824133,0.13865158,0.75424457,10.014857
81772995679108,0.20831455,0.627128,9.902977
81773015533956,0.3455433,0.8076982,9.68841
81773035388933,0.5374294,1.0645467,10.012986
81773055234784,0.4454653,0.9850067,10.044425
81773075089376,0.28316095,0.7615446,9.975146
81773094943969,0.19304419,0.46661812,10.134256
81773114798688,0.14800844,0.20332012,9.878752
81773134653280,0.25139788,0.2753745,10.286136
81773154507873,0.28470972,0.4818293,10.67572
81773174357620,-0.14073014,0.44595683,10.859308
81773194212212,-0.07626353,0.9948317,11.126556
81773214066677,0.0025121036,1.3345549,11.634154
81773233921142,-0.021214109,1.7731618,12.131392
81773253780176,-0.5938622,2.4309108,12.046094
81773273634769,-0.8327579,2.8129318,11.970308
81773293489232,-0.2987386,3.774234,11.401529
81773313343824,-0.48810288,4.3470435,10.566884
81773333198289,-0.3235648,4.1999526,9.918261
81773353048461,-2.7865102,-1.7953169,9.697804
81773372902798,-2.9428928,-3.77075,8.990885
81773392757135,-2.770284,-5.8209558,8.646755
81773412611472,-3.0906568,-6.362745,8.106162
81773432465937,-1.729845,-5.3860474,8.882002
81773452320274,0.011252295,-5.835862,10.500398
81773472184411,1.2886367,-8.092156,11.927823
81773492038876,3.811105,-9.359568,13.258652
81773511893341,3.0656836,-6.207067,13.3379
81773531747934,0.931668,-4.100045,11.556568
81773551602399,-1.0079418,-3.5400238,8.776184
81773571460746,-3.9735656,-3.326573,6.0712447
81773591315339,-3.8338141,-2.5384762,6.3147955
81773611169932,-2.2957797,-2.6649933,6.163324
81773631024525,-1.8746519,-2.457773,5.1738443
81773650879118,-1.0751274,-2.4838092,4.383438
81773670743055,0.7150728,-1.0225128,4.4744925
81773690597904,2.9453485,-0.021456504,4.418478
81773710452625,3.9248557,-0.9522999,4.753535
81773730307474,2.4310246,-0.062107753,5.7845397
81773750162323,1.5553721,0.69274896,6.2315717
81773770023120,1.389867,0.029648412,5.982367
81773789877950,1.6178334,0.36170822,6.7529316
81773809735679,2.3467832,0.9373281,8.696386
81773829590655,2.38988,2.0714276,12.745108
81773849445631,-1.3784031E-5,3.5770028,17.16265
81773869303435,-1.257848,4.6221356,17.04907
81773889158539,0.57031566,4.483077,11.261206
81773909013643,2.784455,3.3474922,8.515245
81773928868747,2.4021451,0.0980771,14.597143
81773948723851,0.40970004,-9.782706,23.654993
81773968583845,2.2028995,-17.368841,15.615391
81773988439077,3.2987247,-4.142074,2.4600182
81774008294309,9.005235,7.6126957,-0.8239657
81774028149669,12.114464,5.2731123,3.8008614
81774048004901,4.775261,-6.4361525,8.499478
81774067855751,1.2789446,-10.995719,9.411412
81774087710855,-2.2334173,-14.572828,9.2573
81774107566087,-3.9906974,-8.53847,10.23773
81774127421191,-5.5379586,-3.7464855,9.779925
81774147276423,-4.882927,1.2803179,9.612522
81774167131132,-2.2552361,9.319507,10.914301
81774186986365,0.15145457,-3.2924783,10.680595
81774206841595,0.113561206,-2.4889805,8.046727
81774226696699,1.7969778,2.0424407,7.7797203
81774246551931,2.1362789,2.55782,9.261922
81774266411905,0.9920554,0.6233617,9.375049
81774286267137,0.94020915,1.9375125,8.151095
81774306122497,1.8546282,3.9067118,8.498391
81774325977729,-0.65031046,0.60799783,9.428117
81774345833090,-2.8707604,-0.2999592,9.315058
81774365687963,-2.044207,-0.8623583,10.722574
81774385543324,-1.1526083,-0.44013917,11.125082
81774405398685,-2.7635188,0.3617111,10.335984
81774425254046,-0.70815057,-0.024211785,10.756712
81774445109407,1.5022058,-2.7100568,12.166752
81774464963610,3.71204,-5.455202,15.082093
81774484818971,2.9018855,-7.1410356,15.518577
81774504674204,-0.9408463,-7.6700287,13.973628
81774524529565,-2.8425603,-7.4208155,13.971712
81774544384798,0.9150567,-7.1673346,13.970099
81774564231675,8.217844,-8.104626,12.969336
81774584086908,4.502867,-4.7792196,10.762662
81774603942013,-3.197924,-2.3791232,9.9274645
81774623797118,-4.2029138,0.57707924,9.787633
81774643652223,-2.304074,1.3382728,8.122783
81774663499342,-1.722819,-0.32827196,6.6033006
81774683354191,-0.8267206,-1.7969404,4.712737
81774703209168,-0.13135162,-2.5146232,2.8878512
81774723064017,1.3289888,-2.169745,2.1018023
81774742918994,3.5967112,-0.92965233,3.1932414
81774762775941,4.1611032,-1.14582,4.374954
81774782630918,3.4652035,-0.7875516,5.5343046
81774802485745,0.9799199,0.18054137,7.0160103
81774822340593,0.7992936,1.7233695,7.2837048
81774842195441,3.0922089,2.7025018,8.45244
81774862046298,6.135226,2.9134262,11.328082
81774881901146,5.0018377,3.730573,15.237174
81774901755994,1.9334931,5.1193857,17.081154
81774921610842,2.7294242,2.9252775,13.028598
81774941465690,4.6183543,-1.215175,8.491949
81774961323781,3.9737659,-2.0999773,11.087723
81774981178629,-1.638566,-5.749087,17.076317
81775001033477,-3.6653514,-23.134665,17.41186
81775020888325,1.7723461,-6.375052,5.164865
81775040743173,2.4357288,-1.0934958,-0.1625185
81775060596479,0.4838389,-4.7455683,6.2077365
81775080451327,-2.5675955,-7.4525924,11.249783
81775100306175,-8.195407,-7.519852,12.747452
81775120161023,-9.513763,-0.14339739,11.96807
81775140015871,-3.501557,3.330618,9.946383
81775159870719,0.83634096,1.9396949,8.17333
81775179721532,5.947114,-0.9264566,8.333346
81775199576253,0.4657391,-2.0832665,10.366929
81775219430974,-3.4808893,0.6136022,10.055445
81775239285695,-1.7120948,1.5053711,8.76218
81775259140540,3.912187,0.96279156,9.028555
81775279005992,5.2306514,1.9544191,9.686087
81775298860968,2.031313,3.113752,9.978569
81775318715944,2.065167,1.9811631,9.275877
81775338570920,-0.8125759,2.3421636,9.15848
81775358425897,0.51707757,0.5137517,9.484622
81775378282426,2.5264912,-1.2808607,10.330569
81775398137403,0.92986184,-1.1142163,9.6581
81775417992508,0.46564004,-0.03705997,10.058792
81775437847485,0.3026523,0.8655119,11.910679
81775457702590,0.9209224,0.3590693,12.451012
81775477561941,2.0852087,0.08030065,11.825019
81775497417046,1.9065456,0.09661522,10.569337
81775517272151,0.12731345,0.63337547,9.721658
81775537127256,-2.4667625,-0.15100095,10.980085
81775556982361,-2.8557289,-1.7624557,14.164641
81775576832308,-1.1217681,-1.6012334,13.9964285
81775596687285,-2.2187605,-3.169034,11.447181
81775616542262,-5.2049537,-4.6481423,11.6093855
81775636397239,-2.5778503,-6.1972766,13.67094
81775656252344,4.995746,-9.755027,14.025387
81775676108821,4.5249777,-5.782185,12.989179
81775695963798,-1.7239482,-1.9096262,11.481126
81775715818903,-2.706651,-1.015919,10.262025
81775735673863,-2.647954,-1.785009,8.958289
81775755528967,-3.266588,0.5658311,7.534857
81775775389753,-2.5471525,-0.3826948,7.8062677
81775795244857,-1.9387666,-0.63808763,6.320895
81775815099593,-1.9021112,0.91843945,3.0702994
81775834954697,0.39984584,0.38610908,3.0403094
81775854809801,1.0913817,-0.6940726,4.187262
81775874665222,0.13721126,-0.7133972,4.752194
81775894520326,-0.75364053,-1.6266263,4.972815
81775914375558,-1.2605374,-0.9207231,5.601595
81775934230790,-0.6820352,-0.016925234,7.1451874
81775954085894,1.3646744,-0.15584716,9.803633
81775973941632,4.7203927,-1.0644183,13.877743
81775993796864,4.4423757,-0.38079622,15.058597
81776013652096,0.9022582,0.75581276,11.972536
81776033507328,1.3035187,0.15372331,8.486712
81776053362432,4.0830407,-2.1289804,7.267204
81776073215226,2.3023467,-3.4162376,7.365276
81776093070458,-0.11453301,-2.1685514,7.434269
81776112925563,0.19304706,-0.8551478,8.225587
81776132780796,-1.2052495,-0.65100676,8.778734
81776152636026,-5.274763,-0.5569538,12.315652
81776172495086,-10.95745,0.05197255,20.93092
81776192350318,-1.3990359,-10.496826,30.286861
81776212205550,2.8423457,-6.9936376,11.558534
81776232060782,-7.4767547,4.6539593,-2.6681364
81776251916142,-5.455456,2.46881,3.3681104
81776271773891,-0.8958689,1.7597587,6.830576
81776291629124,-3.0409043,1.5425534,9.999132
81776311484485,-7.2610803,2.278959,12.112974
81776331339718,-3.6946468,2.924631,11.467897
81776351194951,3.8867311,-1.1646782,10.4705925
81776371054272,7.7366896,-3.220809,10.150704
81776390909633,-2.8424027,-0.69554776,8.909473
81776410764994,-4.7694497,1.6633929,8.477931
81776430620483,-1.6687721,-0.14694895,9.941116
81776450475844,-0.5280439,-0.121551715,10.292219
81776470321769,-0.16561535,0.6061516,10.472891
81776490176874,-0.7434508,0.8960787,10.212472
81776510032107,-2.3872156,1.2241228,8.8989935
81776529887340,-0.09296478,-0.84973747,9.121071
81776549742445,2.2397323,-3.5081122,10.604861
81776569592624,-1.7223141,-2.3177457,10.800828
81776589447729,-2.9640589,-0.4734004,9.406798
81776609302962,-1.2784758,-1.0094601,9.893387
81776629158067,-2.400408,0.73561597,10.755389
81776649013172,-2.520898,2.2690115,10.152299
81776668863091,-0.61847097,1.595642,9.599446
81776688718068,-0.021055616,0.828779,9.659957
81776708573045,-1.0743821,1.7788929,9.02299
81776728428000,-0.10466904,2.3357966,8.926308
81776748282977,-0.1924304,2.0423625,9.250516
81776768134886,-0.50172716,0.68558055,9.979081
81776787989733,-0.76846564,-0.75916404,10.385823
81776807844581,-0.57986605,-1.4547795,10.250502
81776827699429,-0.17142001,-1.017298,9.743094
81776847554277,0.2594561,-0.3652744,9.81957
81776867405754,0.08824011,-0.45128906,9.596672
81776887260602,-0.83963186,-0.15423481,9.427175
81776907115450,-1.052156,-0.20417762,9.712275
81776926970298,-0.16728243,-0.7706767,9.884028
81776946825146,0.201757,-1.0553532,9.746419
81776966681451,-0.280135,-0.91461456,9.571588
81776986536299,-0.3850223,-1.0584152,9.451472
81777006391147,-0.5115728,-1.0154638,9.50997
81777026245995,-0.87907875,-0.75153667,9.636732
81777046100843,-0.7575909,-0.671119,9.89749
81777065957855,-0.41347602,-0.64702153,10.077668
81777085812703,-0.18160646,-0.24508256,9.982007
81777105667679,0.15380329,-0.054671418,9.849878
81777125522527,0.320498,-0.19644561,9.829245
81777145377503,0.13735467,-0.3781336,9.861837
81777165230803,-0.16524261,-0.49299517,9.591047
81777185085523,0.024427066,-0.57594436,9.560762
81777204940371,0.108258486,-0.3756921,9.636019
81777224795092,0.15550792,-0.19752622,9.647482
81777244649939,0.18554734,-0.14462623,9.691273
81777264506596,0.13660915,-0.21471478,9.74259
81777284361444,0.0693535,-0.41751522,9.649745
81777304216292,-0.11275813,-0.5218271,9.587057
81777324071012,-0.32293692,-0.5855525,9.567723
81777343925860,-0.63765544,-0.6927374,9.683083
81777363784121,-0.39199483,-0.73559207,9.712699
81777383638970,-0.2911095,-0.6615114,9.678582
81777403493947,-0.3276041,-0.74169296,9.69987
81777423348924,-0.4899895,-0.8155678,9.6174755
81777443203773,-0.55894864,-0.86418295,9.514463
81777463063608,-0.30518833,-0.8700157,9.536277
81777482918585,-0.18045068,-0.7855897,9.55615
81777502773562,-0.28116372,-0.73257965,9.87363
81777522628539,-0.24173209,-0.819099,10.114921
81777542483644,-0.1449359,-0.8501372,9.791028
81777562316487,-0.19162916,-0.7935798,9.525752
81777582171080,-0.17807356,-0.88108075,9.58264
81777602025673,-0.21890236,-0.8867303,9.737649
81777621880266,-0.29483458,-0.55803657,9.932601
81777641734731,-0.17268558,-0.15432283,9.805528
81777661589324,-0.46675992,0.34861666,9.354811
81777681444099,-0.2923593,0.35677043,9.184935
81777701298564,0.13140664,0.06891333,9.261009
81777721153157,0.551346,-0.46223474,9.632094
81777741007622,0.834475,-0.6800567,9.856965
81777760862087,0.6399329,-0.6053123,10.143418
81777780653307,-0.26718318,-0.39540246,9.899275
81777800506619,-0.37163433,-0.2814452,9.459931
81777820364441,-0.060553636,-0.34687078,9.346026
81777840217753,0.124254376,-0.24321012,9.697662
81777860071193,0.47829756,-0.220836,9.962944
81777879944779,0.39904067,-0.07878047,9.769709
81777899798475,0.115018606,-0.34414348,9.647666
81777919652171,0.04029602,-0.8636476,9.668925
81777939505867,0.09254002,-1.1444411,9.652656
81777959359563,0.265199,-1.3034658,9.621138
81777979239877,0.3238018,-0.94148934,9.645598
81777999094085,0.17003137,-0.34591335,9.681797
81778018948293,0.13879204,0.06968423,9.61428
81778038802501,0.33159396,0.37259576,9.683071
81778058656709,0.45610914,0.4969859,9.829592
81778078503237,0.59704137,0.39636895,9.933122
81778098357189,0.58340055,0.04780691,9.885238
81778118211141,0.3673709,-0.21124326,9.717325
81778138065221,0.32992598,-0.3582104,9.720549
81778157919173,0.22456743,-0.1938181,9.667599
81778177790082,0.18627048,0.024961507,9.565596
81778197644419,0.1622152,0.0069387793,9.597323
81778217498628,-0.0108305365,-0.19713819,9.596801
81778237352834,-0.32435974,-0.50324625,9.5969925
81778257207042,-0.24761045,-0.595617,9.586182
81778277079597,-0.09649904,-0.52997327,9.491388
81778296934189,-0.04262152,-0.43791455,9.534462
81778316788781,-0.06856759,-0.39113075,9.593659
81778336643373,0.57394516,-0.44175816,9.6124525
81778356497966,0.49672282,-0.473169,9.592217
81778376371923,0.49573722,-0.470105,9.563159
81778396226900,0.5145428,-0.4770563,9.62634
81778416081877,0.4742017,-0.50215685,9.738177
81778435936854,0.53057724,-0.55770624,9.750148
81778455791831,0.5747192,-0.57353234,9.626959
81778475654476,0.4869961,-0.5142494,9.537481
81778495509581,0.41230962,-0.46264574,9.448727
81778515364686,0.38708168,-0.46820256,9.432018
81778535219791,0.12896322,-0.52606285,9.457177
81778555074896,-0.102561966,-0.5443384,9.359662
81778574931871,0.031578377,-0.44719675,9.337322
81778594787104,-0.0757331,-0.26983413,9.36381
81778614642337,-0.29980958,-0.3897306,9.449181
81778634497570,-0.050487407,-0.6347259,9.698368
81778654352803,0.26130435,-0.8464071,9.984285
81778674214520,0.33180967,-0.8577094,10.00518
81778694070009,0.29403475,-0.5778718,9.818425
81778713925370,-0.26274243,-0.38606942,9.994536
81778733780731,-0.013310471,-0.65291,10.247733
81778753636220,0.3350348,-0.66912043,10.28435
81778773496954,0.41535738,-0.25854206,10.065178
81778793352570,0.25789666,0.15931395,9.789229
81778813208186,0.1292727,0.22554618,9.579153
81778833063802,-0.07701858,0.011191352,9.422916
81778852919418,0.0472491,-0.28479525,9.598604
81778872782269,0.22055908,-0.5644923,9.94369
81778892638141,0.09934455,-0.4921869,10.080332
81778912494013,-0.06546078,-0.23467846,10.103467
81778932350013,-0.12991594,-0.21861842,9.969368
81778952205885,-0.061815515,-0.365551,9.771007
81778972070126,0.16128132,-0.47486362,9.833762
81778991926254,0.0077630505,-0.19198325,9.651893
81779011782510,-0.10353418,-0.03565258,9.639292
81779031638638,-0.18088889,-0.17060348,9.78155
81779051494894,-0.1681497,-0.35645223,9.760619
81779071355185,-0.19233093,-0.40888882,9.7689905
81779091211697,-0.0747625,-0.36441842,9.882335
81779111068209,0.05502397,-0.2610235,9.926228
81779130924721,-0.083623156,-0.17943041,9.865445
81779150781233,-0.24325211,-0.27711272,9.778571
81779170626648,-0.09415036,-0.3395552,9.782013
81779190482905,0.17065059,-0.24311936,9.747681
81779210339162,0.21405894,-0.19681951,9.708633
81779230195416,-0.04302948,-0.25095865,9.6948185
81779250051672,-0.12115311,-0.28218636,9.735391
81779269907413,0.10288564,-0.17580865,9.765029
81779289763797,0.15109211,-0.1495507,9.842223
81779309620181,0.033911575,-0.26819476,9.835211
81779329476565,0.14832343,-0.28135222,9.82309
81779349332950,0.19694747,-0.15484343,9.885436
81779369150509,0.28591377,-0.25823176,9.874035
81779389005614,0.15728663,-0.36303774,9.79508
81779408860591,-0.0078080213,-0.4697549,9.651663
81779428715696,0.07435967,-0.46947882,9.63578
81779448570801,0.16603754,-0.4248174,9.888772
81779468426600,0.24477097,-0.3824018,10.027428
81779488281705,0.15350981,-0.4456863,9.946037
81779508136810,0.045898598,-0.4849778,9.768546
81779527991787,-0.04968243,-0.5594692,9.728905
81779547846892,-0.08144322,-0.5911437,9.74968
81779567703087,-0.033353798,-0.5956136,9.787117
81779587558192,-0.019173257,-0.5348836,9.747044
81779607413425,-0.10892245,-0.48076853,9.671905
81779627268530,-0.15279692,-0.4001219,9.692998
81779647123763,-0.15393297,-0.4011821,9.789324
81779666970852,-0.09943873,-0.44029447,9.878443
81779686825701,-0.044034064,-0.41116577,9.889661
81779706680422,0.023263404,-0.38618585,9.871316
81779726535271,-0.0603759,-0.327746,9.728172
81779746390120,-0.13273442,-0.3129971,9.663228
81779766250863,-0.1825506,-0.35267,9.656905
81779786105693,-0.11061319,-0.4442676,9.720891
81779805960669,0.011954775,-0.37059245,9.758642
81779825814069,0.09842271,-0.3639411,9.982772
81779845669045,0.11016335,-0.38688123,9.990522
81779865524271,0.032108385,-0.257017,9.853918
81779885379247,0.051826335,-0.22682971,9.7694645
81779905234351,0.07996443,-0.20291863,9.622316
81779925089327,0.1469177,-0.1692309,9.72084
81779944944303,0.1795844,-0.2754834,9.836683
81779964806173,0.10008648,-0.27690428,9.837975
81779984661277,0.099575356,-0.31279835,9.912353
81780004516509,0.1336208,-0.26133478,9.931347
81780024371741,0.14133406,-0.14602935,9.8072405
81780044226973,0.09098958,-0.24795227,9.764224
81780064079572,-0.082556166,-0.34596798,9.7020035
81780083934804,-0.076166146,-0.30596578,9.63704
81780103789908,0.0923901,-0.28885603,9.711363
81780123645140,0.16309978,-0.26495185,9.846433
81780143500372,0.13831162,-0.2751024,9.88561
81780163349637,0.05872855,-0.21996327,9.952732
81780183204614,0.062462475,-0.19295546,9.927005
81780203059591,0.053327844,-0.1927209,9.872418
81780222914696,0.05431398,-0.28064835,9.778035
81780242769669,0.013470508,-0.35037836,9.680302
81780262624645,-0.07895143,-0.41412094,9.654993
81780282483186,-0.081279665,-0.37684575,9.69388
81780302338290,-0.06434268,-0.44492313,9.791892
81780322193394,-0.06368904,-0.5833684,9.875483
81780342048498,-0.046676174,-0.640315,9.929936
81780361903603,0.029828018,-0.54342353,9.938233
81780381762022,-0.022239164,-0.37955987,9.795507
81780401617127,-0.15877683,-0.40912953,9.767522
81780421472360,-0.17382856,-0.5040556,9.773183
81780441327465,-0.008283791,-0.48327842,9.661974
81780461182570,0.088169634,-0.4616689,9.676875
81780481029427,0.009766852,-0.5746118,9.775351
81780500884404,-0.17421407,-0.47448006,9.834408
81780520739381,-0.09154103,-0.29790553,9.857749
81780540594358,0.11986759,-0.28999755,9.875592
81780560449335,0.18142115,-0.43483707,9.884298
81780580296656,0.13988474,-0.53118914,9.832112
81780600151505,0.010597085,-0.47240865,9.707996
81780620006482,-0.053062066,-0.4247052,9.629368
81780639861331,0.029712861,-0.39666092,9.70769
81780659716180,0.12620743,-0.33481923,9.898783
81780679567067,0.09084537,-0.22485077,9.942407
81780699421788,0.018223481,-0.17769621,9.842906
81780719276637,-0.04792324,-0.25912556,9.772865
81780739131339,-0.11242684,-0.4874335,9.752885
81780758986059,-0.023434684,-0.5282219,9.681125
81780778842717,-0.010722347,-0.4238394,9.722693
81780798697437,-0.20863996,-0.3594931,9.827625
81780818552157,-0.4188886,-0.4433114,9.936723
81780838407005,-0.3274321,-0.47720158,9.821023
81780858261725,-0.12681776,-0.40543988,9.620048
81780878119700,0.0026062692,-0.3665606,9.701065
81780897974548,-0.08523777,-0.3304887,9.864572
81780917829396,-0.213445,-0.31755474,9.832244
81780937684116,-0.061768163,-0.3498033,9.724728
81780957538964,0.052756626,-0.34433225,9.66478
81780977399103,0.13398816,-0.27474466,9.74944
81780997253951,-0.005621675,-0.14452954,9.838851
81781017108799,-0.097426005,-0.14084879,9.88669
81781036963775,-0.0029737412,-0.22513545,9.840005
81781056818623,0.06664091,-0.31654137,9.776343
81781076674940,0.22529843,-0.47692198,9.831765
81781096529916,0.13221574,-0.461699,9.835958
81781116384892,0.09074345,-0.31997913,9.853341
81781136239741,-0.004497088,-0.24696308,9.729814
81781156094718,0.06825089,-0.29136738,9.661455
81781175950381,0.25263909,-0.3421125,9.803703
81781195805357,0.35367912,-0.40928087,9.988876
81781215660205,0.21804754,-0.4129799,9.912945
81781235515181,0.031931523,-0.43068045,9.739871
81781255370029,0.11188252,-0.3544137,9.805195
81781275233580,0.21755332,-0.3053878,9.967433
81781295088557,0.15090157,-0.24852069,9.888516
81781314943662,0.0731783,-0.33934376,9.714851
81781334798767,0.10475183,-0.2301984,9.643705
81781354653872,0.13861622,-0.034087002,9.744645
81781374508977,0.104132816,0.044413596,9.852431
81781394362994,0.07099799,-0.06987478,9.803731
81781414218099,0.052629936,-0.21235254,9.699714
81781434073332,0.09869046,-0.2911511,9.831388
81781453928437,0.10707343,-0.42012617,9.989256
81781473783542,0.04461937,-0.3872111,9.870054
81781493637507,0.058289766,-0.37257418,9.798843
81781513492612,0.02731531,-0.26891175,9.775701
81781533347717,-0.08538325,-0.2449835,9.819075
81781553202822,-0.06952953,-0.41478658,9.83611
81781573057799,0.07751237,-0.44481942,9.739997
81781592918054,0.0820073,-0.37142786,9.720181
81781612773287,-0.03320191,-0.24336065,9.76716
81781632628520,-0.04298397,-0.17366865,9.79177
81781652483753,0.078171454,-0.16784757,9.787548
81781672338986,0.14418928,-0.21445149,9.770022
81781692190945,-0.051733825,-0.22459103,9.818288
81781712046178,-0.27643117,-0.17611802,9.703115
81781731901283,-0.17450707,-0.210194,9.73058
81781751756495,0.07376918,-0.3644363,9.837103
81781771611599,0.039953712,-0.43475115,9.957448
81781791473965,-0.11283983,-0.58897907,10.002861
81781811329325,-0.24565803,-0.53859866,9.8033085
81781831184603,-0.2401756,-0.49623218,9.688439
81781851039963,-0.16252424,-0.46228555,9.74484
81781870895195,-0.18269458,-0.43550283,9.9306555
81781890746626,-0.22138895,-0.49340546,9.859492
81781910601858,-0.18986188,-0.53475386,9.643694
81781930457090,-0.1071264,-0.5105676,9.650212
81781950312450,-0.12737364,-0.39986268,9.741351
81781970167682,-0.20130108,-0.26655993,9.783899
81781990026419,-0.05661719,-0.23610677,9.7738495
81782009881907,0.12642257,-0.158524,9.744199
81782029737267,0.18864481,-0.06413439,9.742889
81782049592755,0.1152835,-0.09491297,9.660879
81782069448243,0.06916997,-0.22356458,9.4163265
81782089299379,0.19775252,-0.30271742,9.455535
81782109154739,0.33781233,-0.25472966,9.7131815
81782129010099,0.33320117,-0.1270128,10.011874
81782148865331,0.26985702,-0.14194229,10.173219
81782168720691,0.12562369,-0.3979636,10.1076975
81782188571838,0.23086703,-0.6995309,9.9347315
81782208426943,0.26567414,-0.6532438,9.72813
81782228282174,0.23524314,-0.5165013,9.7148285
81782248137278,0.13270867,-0.39273566,9.741942
81782267992510,0.07718813,-0.26333237,9.704897
81782287846564,0.1307971,-0.2277075,9.769415
81782307701668,0.13217309,-0.22602622,9.805487
81782327556772,0.078106865,-0.24039982,9.841292
81782347411876,0.07335746,-0.40567988,9.970478
81782367266980,-6.6503824E-4,-0.6328526,9.895865
81782387125369,-0.057164807,-0.76845753,9.850503
81782406980602,-0.047684927,-0.817323,9.760953
81782426835707,-0.076005116,-0.6472417,9.682569
81782446690940,-0.057202034,-0.46354333,9.677519
81782466546045,-0.20847939,-0.3418755,9.731484
81782486398328,-0.24338041,-0.28071535,9.812405
81782506253433,-0.07165276,-0.25510228,9.853503
81782526108538,-0.023912162,-0.18405971,9.808774
81782545963643,-0.0652401,-0.19657004,9.751847
81782565818748,-0.13861501,-0.24208158,9.760907
81782585663881,0.0023009607,-0.2493685,9.812659
81782605518858,0.03768129,-0.1593381,9.782204
81782625373835,-0.027073663,-0.17058495,9.736263
81782645228684,-0.079997234,-0.22131854,9.75873
81782665083661,0.067743525,-0.17393087,9.785853
81782684929122,-0.01685143,-0.10911223,9.696692
81782704783843,-0.1179669,-0.13906984,9.7763815
81782724638564,-0.003816145,-0.23813194,9.915799
81782744493413,0.17023438,-0.22832419,9.97672
81782764349632,0.10838048,-0.109989874,9.922063
81782784204481,0.02532695,-0.1537683,9.708228
81782804059182,-0.11089161,-0.2682025,9.528959
81782823913902,-0.09419216,-0.3543655,9.696864
81782843768623,0.03935736,-0.38536248,10.04789
81782863623342,0.16107269,-0.28520265,10.064327
81782883479070,0.27198794,-0.24182957,9.906942
81782903333791,0.22955853,-0.21491079,9.781098
81782923188638,-0.019353293,-0.1323064,9.748787
81782943043486,-0.1448227,-0.15143688,9.698546
81782962898207,0.08119501,-0.17155962,9.729381
81782982756173,0.34991536,-0.3069407,9.835511
81783002610893,0.30612874,-0.36383903,9.782121
81783022465742,-7.5853686E-4,-0.38562545,9.773645
81783042320589,-0.039610635,-0.4787983,9.861994
81783062176955,0.12908107,-0.40090704,9.88519
81783082031676,0.22459339,-0.37534463,9.939049
81783101886523,0.13651077,-0.48692438,9.753157
81783121741371,0.09054828,-0.53115416,9.658565
81783141596092,0.05440255,-0.3420427,9.76638
81783161450939,0.05881895,-0.1937539,9.992969
81783181308920,0.06361192,-0.28930682,9.967749
81783201163769,0.08360439,-0.38558728,9.775858
81783221018616,0.21886286,-0.40898064,9.69421
81783240873592,0.25214815,-0.36321783,9.764564
81783260728441,0.057896856,-0.33419752,9.730615
81783280586358,-0.021860354,-0.31185573,9.644007
81783300441206,0.13480042,-0.402169,9.735715
81783320296055,0.22583072,-0.4109406,9.798442
81783340151032,0.15626253,-0.36747763,9.796108
81783360008581,0.09916592,-0.44669557,9.976161
81783379863686,0.08297967,-0.52287424,9.981317
81783399718663,0.14820932,-0.4324429,9.838946
81783419573640,0.18068881,-0.46359983,9.802087
81783439428745,0.066134505,-0.4755282,9.666721
81783459283722,-0.08053492,-0.3472932,9.599025
81783479140539,0.0043032435,-0.28063646,9.732129
81783498995516,0.11484603,-0.17530674,9.742992
81783518850493,0.075579025,-0.0949679,9.74537
81783538705470,0.080500014,-0.18885647,9.841052
81783558560575,-0.003402824,-0.28351918,9.986882
81783578414418,0.06579327,-0.28057185,10.024045
81783598269395,0.04690277,-0.2304904,9.855821
81783618124500,-0.06314071,-0.24456571,9.710682
81783637979477,-0.26539314,-0.30143374,9.698496
81783657834454,-0.17612998,-0.3101415,9.773307
81783677689431,-0.085352585,-0.20207775,9.780314
81783697546882,-0.109881766,-0.15322927,9.818718
81783717401859,-0.03383346,-0.2525944,9.882107
81783737256964,-0.091880284,-0.2647245,9.811021
81783757111941,-0.04925788,-0.22488108,9.781441
81783776966951,0.044991013,-0.16941097,9.782457
81783796822056,0.0028582208,-0.074514374,9.81337
81783816677159,-0.02240439,-0.12802798,9.878143
81783836532135,-0.027141226,-0.3090262,9.834764
81783856387240,0.020629108,-0.42500952,9.701029
81783876236532,0.016527444,-0.41425893,9.664235
81783896091636,0.018914152,-0.3909278,9.792275
81783915946869,0.01655649,-0.43362466,9.827001
81783935801972,0.032752756,-0.4384411,9.779825
81783955657076,0.012892292,-0.35975462,9.806899
81783975512309,0.058765575,-0.3672673,9.76169
81783995372654,0.03622653,-0.35224688,9.635782
81784015228014,0.12796,-0.41229424,9.769735
81784035083375,0.28753066,-0.42156217,9.889486
81784054938734,0.17078885,-0.29924107,9.873618
81784074786470,0.10211055,-0.22112934,9.849011
81784094641703,0.1687972,-0.18514962,9.861693
81784114496806,0.3010311,-0.26076588,9.937057
81784134352038,0.22502212,-0.31281695,10.038194
81784154207271,0.116554655,-0.2681122,9.764003
81784174062502,0.009163363,-0.25574774,9.631345
81784193915741,0.108934455,-0.3113736,9.730769
81784213770846,0.12477685,-0.33555713,9.795446
81784233625949,0.09420745,-0.36867142,9.725051
81784253481053,0.12943394,-0.25472987,9.756348
81784273336158,0.16396262,-0.1583037,9.814679
81784293192814,0.11160261,-0.10159222,9.77928
81784313047918,0.06502505,-0.17144157,9.831137
81784332902895,0.13366847,-0.25456953,9.837852
81784352757998,0.0972602,-0.2695516,9.850708
81784372614097,0.11791674,-0.25799143,9.852053
81784392469202,0.101237416,-0.23274302,9.784593
81784412324307,0.08825294,-0.13987811,9.791439
81784432179412,0.13369554,-0.117298216,9.841969
81784452034389,0.13113347,-0.13049564,9.734607
81784471889494,0.053903647,-0.14626561,9.687258
81784491736485,0.09076718,-0.17645001,9.768626
81784511591334,0.12233579,-0.09917224,9.839317
81784531446183,0.114462174,-0.0026006775,9.795525
81784551301160,0.15825006,-0.08820796,9.931305
81784571156009,0.15229122,-0.19545622,9.8272505
81784591011192,0.11766006,-0.2152279,9.680375
81784610866041,0.10215494,-0.28177574,9.7526655
81784630721018,0.056588866,-0.27831978,9.765989
81784650575867,0.12333218,-0.16643827,9.762452
81784670429924,0.18493587,-0.20949492,9.898615
81784690284773,0.08307957,-0.24687378,9.847992
81784710139622,0.06307904,-0.22807382,9.7377
81784729994599,0.11308501,-0.26837417,9.687124
81784749849448,0.0425529,-0.27642182,9.713625
81784769704297,0.02872195,-0.2170291,9.884676
81784789561169,0.19396614,-0.20202552,9.9101305
81784809416146,0.18540198,-0.24635707,9.825603
81784829270993,0.07854367,-0.36681888,9.759135
81784849125969,0.11533328,-0.39244512,9.785289
81784868980818,0.23994943,-0.2818701,9.789562
81784888836543,0.165874,-0.2635736,9.673722
81784908691519,0.10112646,-0.35751525,9.834697
81784928546368,0.13464999,-0.33083904,9.899893
81784948401343,0.18310848,-0.2678492,9.833337
81784968258672,0.12645042,-0.30698812,9.74503
81784988113649,-0.0055158744,-0.32998058,9.713731
81785007968624,0.049605004,-0.32480568,9.805052
81785027823600,0.08394687,-0.2922097,9.869835
81785047678577,0.055235278,-0.35498103,9.860756
81785067533552,-0.035742655,-0.36387002,9.7675905
81785087386206,-0.05258664,-0.34602708,9.726918
81785107241183,-0.011528041,-0.37480053,9.776916
81785127096158,0.011812312,-0.31519926,9.774668
81785146951134,-0.06941934,-0.2624641,9.814871
81785166806111,-0.07182078,-0.2489029,9.785742
81785186661676,-0.01704953,-0.30441746,9.814455
81785206516650,0.0038910222,-0.36920768,9.8566065
81785226371627,-0.02572941,-0.3322003,9.827639
81785246226602,0.005104027,-0.28563955,9.770139
81785266081578,-0.05694085,-0.29881427,9.776946
81785285936427,-0.07937783,-0.27492574,9.83948
81785305787408,0.025026128,-0.27140063,9.805789
81785325642256,0.043542862,-0.19646314,9.748685
81785345497233,-0.024327876,-0.2919032,9.827027
81785365352082,-0.05694366,-0.3047369,9.84054
81785385209881,-0.0020232217,-0.2627506,9.813041
81785405064858,0.019502042,-0.23232886,9.77503
81785424919835,-0.030468615,-0.23024704,9.7115755
81785444774684,-0.020285042,-0.26343623,9.763216
81785464629661,0.04286927,-0.20779552,9.869165
81785484487704,0.13316897,-0.13684978,9.863298
81785504342681,0.08843213,-0.14282621,9.723321
81785524197658,0.029051302,-0.23964745,9.763112
81785544052635,0.09939918,-0.22474271,9.810802
81785563907612,0.16157903,-0.15532148,9.904141
81785583762589,0.06569789,-0.15466516,9.906811
81785603620016,7.582887E-4,-0.2286825,9.715422
81785623475121,0.09638871,-0.30032632,9.6825075
81785643330226,0.1821252,-0.3394948,9.845034
81785663185331,0.06774697,-0.21674657,9.806522
81785683039326,0.0060266242,-0.20199633,9.76919
81785702894303,0.07694982,-0.26828527,9.719931
81785722749280,0.14598295,-0.25169006,9.805958
81785742604257,0.12871578,-0.23782465,9.968899
81785762459234,0.06694347,-0.29504374,9.827004
81785782316143,0.03990537,-0.2923162,9.650142
81785802171119,0.13468611,-0.28022385,9.719036
81785822026096,0.09792041,-0.30116132,9.821796
81785841881199,0.06128518,-0.25212818,9.828259
81785861736175,0.08151647,-0.24180156,9.801003
81785881591280,0.15095982,-0.21807629,9.831504
81785901450223,0.16385414,-0.21940741,9.843641
81785921305327,0.08045046,-0.23233595,9.724408
81785941160560,0.06780276,-0.31972602,9.762631
81785961015663,0.11806789,-0.26575926,9.814123
81785980871962,0.14025815,-0.19420478,9.819792
81786000727195,0.06517085,-0.26296845,9.794136
81786020582426,0.084231734,-0.30337718,9.753005
81786040437658,0.14388211,-0.3322694,9.82251
81786060292891,0.12381,-0.2759241,9.861001
81786080140936,0.039807282,-0.21219775,9.795665
81786099995912,0.045271225,-0.22719613,9.703431
81786119851017,0.10471609,-0.2838714,9.764491
81786139705994,0.13667928,-0.27844796,9.868799
81786159561096,0.10774398,-0.3124528,9.8618355
81786179416073,0.046643414,-0.33059943,9.744681
81786199271664,0.02595425,-0.30768955,9.7464075
81786219126768,0.032853954,-0.27227598,9.845442
81786238981745,0.058450904,-0.26972255,9.818068
81786258836848,0.081677996,-0.27906665,9.864225
81786278698901,0.08592126,-0.29180506,9.850347
81786298554006,0.028533086,-0.3684984,9.798621
81786318409239,-0.008109724,-0.3480592,9.772376
81786338264340,-0.07674179,-0.26811433,9.669742
81786358119573,-0.030615794,-0.26695758,9.759285
81786377974676,0.08689365,-0.3088912,9.8635645
81786397825123,0.08499238,-0.30115026,9.894635
81786417680228,-0.012032248,-0.3119171,9.8625345
81786437535331,-0.14306603,-0.2731129,9.759885
81786457390435,-0.11347043,-0.26550385,9.722667
81786477245540,-0.01251801,-0.26557526,9.731065
81786497096992,0.077532925,-0.34726298,9.80938
81786516951968,0.02295451,-0.33742598,9.791924
81786536807073,-0.04611186,-0.3023005,9.871765
81786556662048,0.0033492325,-0.2303497,9.835301
81786576515445,0.03375895,-0.1966945,9.762966
81786596370422,0.03837557,-0.25771272,9.74206
81786616225397,-0.005160465,-0.33884293,9.741191
81786636080501,0.045382515,-0.2853739,9.818122
81786655935478,0.08115336,-0.15106872,9.8431635
81786675790453,0.032143805,-0.1378746,9.798811
81786695631831,0.014646791,-0.25536945,9.796331
81786715486552,-0.018907826,-0.31918406,9.877824
81786735341271,0.04742715,-0.23093551,9.832248
81786755195991,0.074767835,-0.19305882,9.805223
81786775050712,0.028950697,-0.27869305,9.799552
81786794907985,-0.06580731,-0.2640272,9.701479
81786814762705,-0.005578602,-0.248527,9.746458
81786834617426,0.05427215,-0.2771849,9.849063
81786854472145,0.106764816,-0.21239962,9.925435
81786874320893,0.04386255,-0.21622926,9.815299
81786894175358,-0.053478252,-0.33273605,9.755674
81786914029949,-0.019290294,-0.37489972,9.75941
81786933884541,0.03471334,-0.26358002,9.82082
81786953739134,0.013906988,-0.25062293,9.849686
81786973593597,-0.024722092,-0.3290315,9.793245
81786993448037,0.07075305,-0.28644046,9.765759
81787013302502,0.09245772,-0.19836581,9.829692
81787033157093,-0.028187236,-0.16711651,9.786985
81787053011557,-0.03402659,-0.21513705,9.7516775
81787072866150,0.06095062,-0.3110816,9.808837
81787092721753,0.12683009,-0.26666924,9.890771
81787112576345,0.114128575,-0.15330961,9.882513
81787132430938,-0.030214094,-0.26177332,9.752148
81787152285401,-0.0674541,-0.3561551,9.665662
81787172145156,0.07773618,-0.25514546,9.72434
81787191999877,0.15122977,-0.2336709,9.857345
81787211854468,0.031367347,-0.25026783,9.773802
81787231709188,-0.04311927,-0.32968408,9.80533
81787251563781,0.07219482,-0.2785891,9.851255
81787271418372,0.122679,-0.14220953,9.851262
81787291278028,0.052959252,-0.24563052,9.754239
81787311132877,0.004403319,-0.3942129,9.716656
81787330987596,0.08025417,-0.31361452,9.767807
81787350842317,0.110859066,-0.18381688,9.813854
81787370697038,0.08298658,-0.15476646,9.851146
81787390556817,0.009918097,-0.22947298,9.831502
81787410411666,-0.007867797,-0.25677395,9.752109
81787430266515,0.12804416,-0.2550752,9.753156
81787450121364,0.10723013,-0.2201109,9.746663
81787469976213,0.036383405,-0.21096615,9.779185
81787489831062,0.077539526,-0.21633948,9.81444
81787509684301,0.10226995,-0.16530824,9.863311
81787529539150,0.08928064,-0.17352478,9.804167
81787549393999,0.066921055,-0.2569683,9.73571
81787569248848,0.07184556,-0.2999296,9.735942
81787589107085,0.10338068,-0.19265987,9.769009
81787608962062,0.12408089,-0.17170721,9.8967495
81787628816911,0.108979374,-0.19641085,9.7715
81787648671888,0.040909335,-0.24872112,9.663852
81787668526737,0.11772472,-0.2649701,9.821293
81787688385268,0.16780978,-0.16808046,9.912149
81787708240245,0.09265813,-0.13642049,9.8040905
81787728095222,0.022805477,-0.2120032,9.801223
81787747950199,0.07372322,-0.21356878,9.790355
81787767805029,0.15686515,-0.14083783,9.798299
81787787660006,0.09166078,-0.30909374,9.750855
81787807515786,0.0028524396,-0.33425638,9.711538
81787827370762,0.15597035,-0.17363945,9.826893
81787847225867,0.11721366,-0.15242311,9.828843
81787867080842,0.017520076,-0.25885853,9.787935
81787886937953,0.0036501666,-0.29225048,9.752034
81787906793186,0.14169215,-0.26008412,9.761181
81787926650396,0.19813658,-0.2711222,9.8133335
81787946505500,0.061335098,-0.2989439,9.777407
81787966360733,0.004952566,-0.27320448,9.805774
81787986215836,0.08420165,-0.20113128,9.784903
81788006073976,0.14423375,-0.14042273,9.791701
81788025929081,0.089213446,-0.2027752,9.835372
81788045784312,0.09147761,-0.28134963,9.828618
81788065639544,0.11276348,-0.24429466,9.784847
81788085494777,0.11158565,-0.2249491,9.74278
81788105348923,0.0869786,-0.25517562,9.731581
81788125204155,0.053165954,-0.26191124,9.763658
81788145059388,0.07306504,-0.23504531,9.828726
81788164914619,0.15835842,-0.21740943,9.843217
81788184769820,0.11530283,-0.2112473,9.827166
81788204625053,0.073946275,-0.25590628,9.854904
81788224480284,0.12411188,-0.23820938,9.795236
81788244335516,0.16154644,-0.21618366,9.728329
81788264190749,0.12168308,-0.24874982,9.822439
81788284046108,0.17027158,-0.22457725,9.844791
81788303900566,0.18198189,-0.20729181,9.76042
81788323755671,0.1333914,-0.29001117,9.74741
81788343610904,0.0868433,-0.25836262,9.753101
81788363466009,0.15938854,-0.2001724,9.820255
81788383321242,0.15956847,-0.15059681,9.812124
81788403182217,0.09248443,-0.22070014,9.728893
81788423037578,0.108903,-0.25672632,9.7551
81788442892811,0.14624313,-0.32836008,9.872245
81788462748172,0.1489632,-0.22821462,9.860685
81788482600301,0.16719592,-0.13817133,9.77518
81788502455534,0.07505523,-0.24513572,9.740366
81788522310767,0.086149506,-0.34107986,9.753861
81788542166000,0.18300563,-0.27507916,9.870584
81788562021233,0.18038662,-0.15000202,9.843018
81788581876466,0.111609936,-0.17477924,9.732759
81788601723385,0.043653935,-0.27457467,9.737955
81788621578490,0.1366703,-0.21755388,9.80972
81788641433467,0.15586302,-0.18368913,9.860007
81788661288572,0.12573075,-0.19954918,9.789451
81788681143549,0.12016214,-0.2855041,9.840905
81788700995514,0.09242536,-0.23339786,9.765756
81788720850472,0.12644897,-0.18303587,9.730718
81788740705449,0.07436045,-0.23673466,9.718206
81788760560424,0.070273,-0.23038559,9.804299
81788780416532,0.11726917,-0.23627087,9.888147
81788800271509,0.102477446,-0.25873533,9.841838
81788820126484,0.048042405,-0.23318411,9.790308
81788839981460,0.12303558,-0.20891988,9.811738
81788859836565,0.11806649,-0.19891532,9.755917
81788879691540,0.08610733,-0.22278708,9.793825
81788899542384,0.07726562,-0.2618243,9.758039
81788919397361,0.088689476,-0.18619803,9.824852
81788939252208,0.09072619,-0.1460408,9.877383
81788959107184,0.12097984,-0.24370629,9.842855
81788978962033,0.12728618,-0.3027216,9.71952
81788998818832,0.09418773,-0.27689236,9.741976
81789018673808,0.07785031,-0.18289031,9.80538
81789038528785,0.12005507,-0.14822556,9.836235
81789058383760,0.09996905,-0.20846741,9.809224
81789078238736,0.065139264,-0.27732974,9.80668
81789098093713,0.11672813,-0.23145026,9.831807
81789117945439,0.17488305,-0.15928261,9.85265
81789137800287,0.11332707,-0.20993504,9.801611
81789157655136,-0.042542692,-0.30855507,9.747526
81789177509983,0.06719552,-0.29564583,9.793131
81789197369319,0.21244052,-0.17596227,9.836329
81789217224296,0.18553512,-0.19113643,9.861637
81789237079143,0.016769562,-0.2703351,9.767876
81789256934119,-0.03829321,-0.2755443,9.740182
81789276789096,0.09739527,-0.21438016,9.787605
81789296654927,0.14798169,-0.186126,9.838056
81789316510032,0.07480793,-0.22545439,9.841356
81789336365265,-0.010113349,-0.26357123,9.715111
81789356220498,0.038957525,-0.27521285,9.734507
81789376075603,0.113549575,-0.20278598,9.774692
81789395930836,0.081148714,-0.18282443,9.893784
81789415784405,0.09022948,-0.21806462,9.845518
81789435639638,0.035154305,-0.22216669,9.719187
81789455494743,0.10183505,-0.22633938,9.733114
81789475349976,0.09385741,-0.23468274,9.800932
81789495205125,0.14270525,-0.16025198,9.836473
81789515060230,0.09579635,-0.14868265,9.805058
81789534915335,0.03662472,-0.25739974,9.834203
81789554770440,0.10604855,-0.18967675,9.821942
81789574625545,0.1571573,-0.0897957,9.769447
81789594481824,0.09610791,-0.19681183,9.752906
81789614336929,0.09088242,-0.28294936,9.888022
81789634192162,0.125052,-0.13053538,9.793985
81789654047267,0.10534502,-0.13132438,9.712653
81789673902500,0.08497654,-0.24821584,9.703489
81789693757605,0.0907957,-0.2085781,9.7921095
81789713615064,0.11655437,-0.12314575,9.83441
81789733470148,0.07066512,-0.19690333,9.788887
81789753325381,0.07338489,-0.24740611,9.794279
81789773180612,0.18238835,-0.2549799,9.798146
81789793043458,0.052434154,-0.238451,9.659512
81789812898819,-0.08702667,-0.2744049,9.656154
81789832754178,0.09761954,-0.28061613,9.809564
81789852609538,0.22381195,-0.1363928,9.883169
81789872464899,0.06564115,-0.15728153,9.821807
81789892320258,-0.046504878,-0.28159118,9.765944
81789912170846,0.09681832,-0.24024034,9.763905
81789932026207,0.2184524,-0.21431921,9.854367
81789951880592,0.066871755,-0.20076895,9.733043
81789971735952,-0.03402149,-0.22632915,9.711778
81789991591313,0.13691029,-0.2174099,9.841142
81790011449854,0.20254937,-0.18930797,9.91503
81790031305342,0.08027243,-0.19993576,9.895747
81790051160831,0.06489077,-0.21828525,9.861034
81790071016190,0.10333648,-0.18687822,9.801216
81790090870124,0.07844412,-0.17156091,9.745458
81790110725613,0.04296606,-0.19095142,9.780658
81790130581100,0.13566652,-0.20340015,9.787167
81790150436589,0.10683246,-0.17688964,9.79329
81790170291950,0.030153824,-0.21551494,9.751197
81790190147436,0.025251525,-0.28977922,9.726811
81790209992922,0.11617309,-0.2545574,9.855243
81790229848155,0.14873971,-0.13431105,9.881301
81790249703386,0.14203995,-0.13094102,9.720567
81790269558618,0.018770035,-0.25484976,9.7347355
81790289413851,0.07842396,-0.22916643,9.825828
81790309274841,0.25788587,-0.18525435,9.92336
81790329130073,0.22336611,-0.19447336,9.864293
81790348985434,0.037076324,-0.15330577,9.65152
81790368840793,0.03731575,-0.1735692,9.712379
81790388691990,0.10506855,-0.13807754,9.852368
81790408547223,0.14348386,-0.15714712,9.845454
81790428402454,-0.012432905,-0.2339596,9.751821
81790448257686,0.03284366,-0.3064252,9.742676
81790468112919,0.10636406,-0.19168203,9.842707
81790487968150,0.087551236,-0.16571145,9.88444
81790507813331,-0.024136452,-0.17594287,9.685974
81790527668436,0.009588762,-0.3162187,9.769639
81790547523411,0.10659377,-0.29990476,9.722974
81790567378387,0.10226764,-0.21924767,9.797691
81790587233364,-0.00419382,-0.18639775,9.819897
81790607085443,-0.022057153,-0.2340177,9.839551
81790626940419,0.08683303,-0.22834203,9.810277
81790646795396,0.0886842,-0.23194878,9.788838
81790666650243,0.019425256,-0.21408997,9.808197
81790686499004,0.03421432,-0.22110108,9.810549
81790706353725,0.017064663,-0.19923835,9.761794
81790726208572,0.015981032,-0.283769,9.754053
81790746063292,1.6129801E-4,-0.2514441,9.678174
81790765918013,0.033340108,-0.264072,9.910791
81790785772732,0.035082694,-0.1781899,9.814948
81790805634029,0.10185399,-0.15579298,9.708676
81790825488878,-0.05791159,-0.2705318,9.723247
81790845343725,-0.092111096,-0.26995945,9.774345
81790865198573,0.059469327,-0.21382919,9.858484
81790885053422,0.07758247,-0.17194135,9.819945
81790904907684,0.0034982096,-0.22307773,9.836536
81790924762660,0.020037917,-0.22470742,9.761775
81790944617509,0.06812248,-0.21457458,9.81995
81790964472356,0.03216105,-0.20444898,9.832325
81790984327204,0.011108313,-0.19703503,9.803716
81791004182181,0.08442022,-0.21533372,9.829022
81791024032323,0.07346237,-0.16442162,9.826767
81791043887171,0.026566785,-0.16160733,9.760708
81791063741892,0.009929186,-0.19377652,9.805918
81791083596611,0.041301284,-0.24000855,9.809599
81791103454185,0.059933633,-0.14508377,9.742067
81791123309034,-2.0919497E-4,-0.16695973,9.749633
81791143163753,0.059158813,-0.19986442,9.816781
81791163018601,0.09210933,-0.2170941,9.843072
81791182873450,0.04247847,-0.20744859,9.8416395
81791202724439,0.093766056,-0.2004524,9.844698
81791222579031,0.13359216,-0.19405498,9.857629
81791242433752,-0.02114227,-0.16870634,9.731465
81791262288471,-0.041144926,-0.25755182,9.813019
81791282143191,0.081318475,-0.17210451,9.869873
81791301997912,0.11208403,-0.092163086,9.745173
81791321857841,0.002395953,-0.23483452,9.649979
81791341712689,-0.06368239,-0.3711199,9.864816
81791361567410,0.11895343,-0.19542582,9.958697
81791381422257,0.108232655,-0.05610854,9.746183
81791401278066,-0.051294647,-0.25201994,9.686469
81791421132915,-0.06395793,-0.33558905,9.772441
81791440987890,0.09088509,-0.22817703,9.850885
81791460842738,0.15116207,-0.14478521,9.770689
81791480697715,0.03937237,-0.24544805,9.812778
81791500552562,-0.082484506,-0.21225864,9.86816
81791520404383,-0.0038485865,-0.2212342,9.928163
81791540259104,0.016286602,-0.11264053,9.682472
81791560113951,0.029459985,-0.25877073,9.725094
81791579968671,-0.053006526,-0.33832976,9.733979
81791599823520,-0.092178084,-0.33000186,9.777974
81791619675155,0.0022638529,-0.2646921,9.850926
81791639529875,0.014274682,-0.14943726,9.831381
81791659384596,0.008428107,-0.15311317,9.86531
81791679239315,0.066996746,-0.21690804,9.739181
81791699099529,0.02767881,-0.3470018,9.739388
81791718954378,-0.0047371904,-0.36718062,9.772559
81791738809225,-0.049264416,-0.25590304,9.81365
81791758664073,0.06935946,-0.22516519,9.844203
81791778518922,0.06691619,-0.26051605,9.706828
81791798373769,0.07118208,-0.39638072,9.841994
81791818221039,0.062818006,-0.3908565,9.929163
81791838075632,0.034485932,-0.27306396,9.903461
81791857930223,-0.01271073,-0.20811148,9.681106
81791877784943,-0.013509081,-0.2350394,9.631435
81791897639536,0.037412256,-0.2334197,9.634368
81791917503489,0.1111804,-0.28527182,9.959467
81791937351546,0.03493118,-0.24610789,9.989085
81791957206395,-0.13485356,-0.16280906,9.655894
81791977061370,-0.09708259,-0.22704981,9.592058
81791996921173,0.0032222546,-0.19937299,9.678529
81792016776150,-0.035926875,-0.09588516,9.822065
81792036631125,-0.08074741,-0.13820834,9.818245
81792056486229,0.040581174,-0.2134454,9.811732
81792076341206,0.050781783,-0.116662435,9.788403
81792096196181,-0.034067575,-0.13356438,9.736916
81792116051564,-0.06821438,-0.19404617,9.807672
81792135906541,-0.057562847,-0.0649182,9.869543
81792155761516,0.13547319,0.07906776,9.93601
81792175616492,0.10593923,0.019999841,9.783704
81792195471469,-0.027927233,-0.21098469,9.721087
81792215333356,0.07062051,-0.27457163,9.8685255
81792235188460,0.09182083,0.022793623,9.790856
81792255043565,0.0055571306,0.16459489,9.706849
81792274898668,0.06276791,-0.030531066,9.801087
81792294748493,-0.01657595,-0.10287671,9.864234
81792314603470,-0.012314634,-0.22276382,9.8616705
81792334458445,-0.018742012,-0.2896474,9.777848
81792354313549,-0.02394079,-0.33577263,9.698055
81792374168526,-0.015138785,-0.10172956,9.78233
81792394023501,0.083687045,-0.09028099,10.054044
81792413887327,0.027052943,-0.19497195,9.856251
81792433742560,-0.04690386,-0.2986367,9.704568
81792453597791,0.0041703973,-0.32784253,9.736841
81792473453023,-0.0052560805,-0.28957826,9.680608
81792493308256,-0.045735005,-0.20490791,9.705329
81792513160391,-0.051773474,-0.07078157,9.8638
81792533015495,0.0374316,-0.076829165,9.961762
81792552870728,0.11748449,-0.038025685,9.760748
81792572725959,0.07630715,0.0049771913,9.686575
81792592581063,0.07827636,0.08209718,9.80608
81792612436296,0.09342963,0.046011254,9.88623
81792632283879,0.13243228,-0.067141004,9.76014
81792652138984,0.116259076,-0.1493919,9.687377
81792671993961,0.15996432,-0.1958304,9.906113
81792691849066,0.15152809,-0.15402327,9.955013
81792711702531,0.1232376,-0.20747435,9.855069
81792731557508,0.0017725971,-0.36585104,9.738669
81792751412605,0.07704856,-0.3594074,9.707086
81792771267581,0.24087808,-0.29243413,9.852177
81792791122686,0.14186767,-0.34376803,9.867247
81792810976253,0.028664665,-0.29849824,9.821347
81792830831229,-0.0621903,0.01731151,9.676851
81792850686334,0.03063272,-0.098386385,9.743322
81792870541309,0.09907017,-0.20254025,9.870305
81792890396285,0.13982083,-0.16018727,9.81446
81792910251262,0.07054274,-0.11094248,9.630067
81792930106913,0.032086376,-0.27052325,9.643371
81792949961889,0.0708902,-0.24223296,9.902653
81792969816994,0.17173655,-0.017360218,9.932601
81792989671969,0.17051229,-0.049046446,9.790521
81793009528384,0.098263584,-0.29807726,9.699033
81793029383489,0.06307529,-0.2832919,9.726026
81793049238464,0.12773821,-0.24049038,9.820364
81793069093568,0.11128991,-0.21094494,9.843788
81793088948545,0.09999605,-0.20016937,9.793349
81793108801837,0.13459295,-0.22426134,9.795851
81793128656941,0.15156037,-0.30509192,9.765345
81793148511918,0.19136827,-0.18062446,9.801423
81793168366893,0.16297743,-0.07699823,9.730982
81793188221869,0.060072254,-0.07244407,9.656599
81793208076846,0.12222383,-0.22023256,9.723655
81793227929201,0.18754567,-0.22929217,9.85837
81793247784048,0.15991661,-0.19666499,9.85067
81793267639025,0.074743845,-0.21769996,9.821321
81793287493872,0.18229531,-0.2562077,9.716639
81793307350914,0.26290578,-0.24867,9.727881
81793327205891,0.17950766,-0.276894,9.794967
81793347060738,0.2144794,-0.23119558,9.873592
81793366915714,0.45472535,-0.053554993,9.886203
81793386770691,0.37857032,-0.045317784,9.856568
81793406622790,0.30290392,-0.11714381,9.711289
81793426477639,0.32975727,-0.03327446,9.673724
81793446332360,0.33749974,0.021771153,9.720615
81793466187209,0.20730649,-0.14709,9.721003
81793486042058,0.17837077,-0.24963775,9.682854
81793505896907,0.36434126,-0.12367607,9.78735
81793525753248,0.36657065,-0.080360554,9.842438
81793545608097,0.26061168,-0.128315,9.803316
81793565462946,0.17873229,-0.069363326,9.7591305
81793585317795,0.2773256,0.027529048,9.819942
81793605171826,0.34176743,-0.045997042,9.837142
81793625026675,0.29335228,-0.2369703,9.781114
81793644881652,0.29231313,-0.27150768,9.747086
81793664736501,0.29912925,-0.11354066,9.776188
81793684591350,0.2334783,-0.012261822,9.7671
81793704446199,0.18094651,-0.12807891,9.726281
81793724300932,0.23856674,-0.27403733,9.69752
81793744155781,0.33181697,-0.25116536,9.72439
81793764010630,0.30734274,-0.13716581,9.745804
81793783865460,0.15730053,-0.10040023,9.663944
81793803720309,0.0939848,-0.22715575,9.766233
81793823578039,0.22523195,-0.1937759,9.686984
81793843433015,0.291956,-0.04595586,9.5786705
81793863287992,0.41849354,-0.023832003,9.805228
81793883142967,0.31051102,-0.08971024,9.868892
81793902996425,0.062346686,-0.16492732,9.852659
81793922851402,0.051624786,-0.22705668,9.864638
81793942706249,0.21416934,-0.1295428,9.832872
81793962557845,0.09702863,-0.097465254,9.85409
81793982412694,-0.16459462,-0.21273293,9.756564
81794002267669,-0.22784589,-0.21499334,9.677844
81794022129374,-0.08817242,-0.09988146,9.647053
81794041984479,-0.056233477,-0.06487921,9.784295
81794061839582,0.080904156,-0.11962012,9.923704
81794081694686,0.07787629,0.014905373,9.658249
81794101549791,0.18753298,0.090363115,9.579355
81794121411313,0.45068178,0.03876349,9.71896
81794141266545,0.4037793,0.05025988,9.581813
81794161121778,0.124312304,0.14915457,9.692327
81794180977009,0.25394595,0.30975977,10.043546
81794200832382,0.38557073,0.58180153,10.077997
81794220687487,0.17069261,0.8294313,9.918618
81794240542718,-0.089775905,0.9480775,9.792963
81794260397950,-0.23909289,0.7824078,9.690678
81794280253183,0.027388047,0.49699277,9.618008
81794300108414,0.37258118,0.35065818,9.446348
81794319963888,0.46827528,0.33379748,9.419632
81794339819121,0.47275868,0.49384013,9.677985
81794359674224,0.5904776,0.92434055,9.833081
81794379529457,0.46249622,1.0359776,9.787839
81794399384690,0.23922957,1.0036105,9.813764
81794419245073,0.31960353,0.7913658,9.79424
81794439100434,0.40294996,0.7037177,9.762492
81794458955667,0.25522575,0.49256396,9.715512
81794478811028,0.43692636,0.46699446,9.736984
81794498659025,0.66417253,0.60254127,9.899373
81794518514258,0.672891,0.49024785,10.03516
81794538369363,0.9371412,0.61498123,10.029677
81794558224596,0.945771,0.72205245,9.749139
81794578079701,0.49942878,1.1305591,9.908251
81794597934934,0.15631178,1.8590409,10.28737
81794617766321,-0.20956393,2.1826158,10.144189
81794637621042,0.101096086,2.1917849,9.644931
81794657475763,0.25794464,2.497329,9.652031
81794677330612,0.14288875,2.836997,9.770034
81794697185333,0.42967325,3.4497266,9.382378
81794717023426,0.7739184,4.275775,8.985036
81794736877891,0.28729224,3.7242,8.892046
81794756732228,-2.2751906,2.3795245,13.623867
81794776586693,-3.4354587,1.6023738,17.171225
81794796441011,-4.09069,0.07724725,14.474181
81794816299882,-3.3603024,-3.513902,14.647318
81794836154346,-1.1234912,-8.800428,20.086609
81794856008810,14.069591,-11.460043,21.76266
81794875863274,9.169996,-2.479231,14.756206
81794895717738,2.0932689,-2.310412,10.897847
81794915579091,2.303218,-3.9021156,10.883324
81794935433683,-1.1520383,-4.7402053,8.610564
81794955288275,-4.759434,-1.8439003,6.0269675
81794975142739,-4.402881,0.07745302,5.4188323
81794994997331,-7.9321175,0.7473519,3.3595126
81795014857915,-4.185242,2.4912999,3.1343453
81795034712507,1.287743,0.615539,3.4375737
81795054567227,1.872647,-3.710609,4.150189
81795074421819,-1.5105178,-3.3195715,4.698859
81795094276539,-3.2248366,-1.8451692,4.936781
81795114135020,-2.9029744,-3.0930545,4.647136
81795133989740,-1.0367028,-4.55982,5.480848
81795153844460,0.120916836,-3.621403,9.228204
81795173699180,0.75721914,-0.5901116,15.982197
81795193553900,3.1475422,3.6910465,18.61585
81795213416521,4.986739,2.8742342,12.272301
81795233271368,1.7231588,-2.0357926,6.399976
81795253126216,1.5373634,-1.856674,5.8484664
81795272981064,-1.6090909,0.9552408,8.863909
81795292835784,-12.438419,6.6150723,15.057756
81795312691027,-26.282747,-2.522419,23.967333
81795332545875,-3.0754306,-12.068184,13.118101
81795352400595,4.4073343,1.9690994,-3.786479
81795372255444,5.059907,-1.3686528,1.5553019
81795392110293,4.395082,-1.1031603,6.880525
81795411965836,5.0874343,-5.713156,10.957693
81795431820685,2.639346,-8.387442,12.99945
81795451675534,-2.1859539,-6.2367315,11.6724415
81795471530383,-2.8814342,-3.6495388,10.169554
81795491385104,-2.2007425,3.3536499,10.238823
81795511248383,-1.6376941,9.2450485,11.528159
81795531103360,-1.0546092,-4.398999,10.966342
81795550958337,0.7115787,-3.176287,8.15114
81795570813314,1.5017114,1.1999085,8.593437
81795590668291,0.562353,2.0036552,9.670507
81795610529052,0.42075643,0.023898926,9.757571
81795630384157,1.0562851,1.5763633,9.195669
81795650239262,1.7857898,4.0525975,8.857204
81795670094367,0.9536627,1.3880078,8.09546
81795689949472,0.520038,1.0675894,8.553701
81795709814049,0.26780736,2.75092,10.151009
81795729669538,-0.44989792,1.5055083,10.369861
81795749524880,0.652982,2.1677232,9.218735
81795769380240,3.238727,3.738335,7.769289
81795789235600,5.2607255,5.694156,8.522337
81795809089826,6.360171,4.648146,13.038633
81795828945314,7.881856,1.3797526,17.322811
81795848800802,7.0825806,-2.672112,19.055521
81795868656162,7.097107,-1.5502064,17.260426
81795888511650,9.468519,1.2878097,13.693871
81795908371856,7.038103,2.0526175,10.9943
81795928227472,4.433923,-0.28917906,11.52878
81795948083088,1.2461321,0.1764361,13.457179
81795967935298,0.34403187,-1.3539307,11.052075
81795987790914,1.3144661,-0.6304937,6.6469555
81796007650102,1.7045597,-0.16866916,4.4173656
81796027505974,2.681954,2.059783,2.6503036
81796047361846,3.7538006,3.645441,1.260988
81796067217718,0.120458335,3.574502,2.7537677
81796087073590,0.58879894,1.1072541,4.529394
81796106928347,-0.04931081,-1.9310998,5.5752807
81796126784347,0.33086982,-0.6512617,5.830145
81796146640220,0.9399418,2.0815167,6.451897
81796166496093,2.5756044,4.9912386,8.7583885
81796186351966,4.9426255,6.6699095,12.214675
81796206194671,3.9711742,3.4460447,15.5891075
81796226050159,0.8768096,0.26653984,15.588785
81796245905647,4.635247,-1.3395231,12.09129
81796265761135,7.315183,2.4915183,9.24312
81796285616623,3.1978095,2.5705416,9.098023
81796305458346,1.5190117,-2.1399927,11.523295
81796325313450,6.0691333,-7.8889966,12.269018
81796345168426,11.232656,-4.7729225,10.1709795
81796365023530,6.815662,1.0849501,6.9809194
81796384878634,2.2555776,-3.123888,6.681017
81796404735054,2.0125313,-5.646829,8.704761
81796424590030,1.4561859,-8.258453,11.437328
81796444445134,-1.7808627,-6.2236266,12.146508
81796464300238,-3.128927,-2.1482978,10.563614
81796484155214,-1.0003719,4.98372,9.384594
81796504011999,3.222499,3.6178932,8.937618
81796523867103,1.2249612,-1.1634974,8.170779
81796543722207,-0.84938586,-0.8825087,8.379703
81796563577311,-0.2763056,1.6467383,8.696138
81796583432415,0.4818416,3.3393037,8.857611
81796603287520,-0.10931628,3.3986044,9.257347
81796623133693,-1.5275323,2.5409381,9.679259
81796642988669,-1.9194143,1.8954399,10.002515
81796662843517,-1.034375,2.7432582,9.310576
81796682698493,0.5246304,1.9011624,8.144055
81796702553341,1.2354821,3.2473547,7.893201
81796722405373,0.5268591,3.7594583,9.284128
81796742260093,-0.8790223,2.7935905,11.095915
81796762114941,-0.3358903,4.6006703,11.560884
81796781969789,0.2919007,4.7150655,11.350428
81796801824637,0.17998275,3.7437289,10.998615
81796821674834,1.0807928,2.6385205,11.611106
81796841529554,3.6328788,0.26422927,14.9574795
81796861384274,4.319443,-0.16526029,15.039804
81796881239122,5.9736495,1.1225984,12.390023
81796901093842,6.043631,-1.0516258,11.255789
81796920945033,5.9395947,-3.0400805,12.6689005
81796940799625,9.892221,-3.9150445,13.793737
81796960654217,11.260732,-3.2419345,11.954331
81796980508937,5.8128247,0.27143934,9.4337635
81797000363529,2.1134906,-1.7153859,9.267229
81797020219773,-0.06137296,-3.2126276,8.712467
81797040074493,-3.4858873,-3.4961994,5.9537244
81797059929085,-3.2182574,-1.7938117,5.9440784
81797079783678,-1.5936261,0.05764568,6.1914196
81797099638271,-0.20205817,0.74663085,5.0795584
81797119496878,-0.020530647,0.8941631,4.255294
81797139351599,1.2311302,0.35897496,4.6194167
81797159206318,2.5792162,-0.14829947,5.924255
81797179061038,2.1557462,-0.01532065,6.572872
81797198915758,1.5432596,1.1302037,6.4700522
81797218775336,2.1753874,3.5145211,6.140602
81797238630057,2.6223576,3.776474,8.110227
81797258484906,5.2214837,7.109872,13.190171
81797278339755,4.209591,9.755619,17.980433
81797298194604,-1.6726394,7.4804354,14.961897
81797318052309,1.3555607,2.6569543,9.850811
81797337907158,5.2215414,0.578737,8.096449
81797357762135,5.077098,-0.71135783,11.453416
81797377616984,2.488637,-7.7228756,16.615868
81797397471833,4.5636406,-9.487255,14.07457
81797417328052,2.5308862,4.1541324,4.408216
81797437182901,1.7599909,0.40315166,3.182863
81797457037750,-0.31665435,-3.6246355,7.994064
81797476892599,-0.31134897,-4.8923044,11.417443
81797496747576,-2.267396,-5.9325895,11.903488
81797516608647,-5.1985145,-5.3249326,11.517253
81797536463752,-3.4004095,-0.04289971,10.261372
81797556318729,1.3391786,4.617614,10.27173
81797576173706,2.6211169,2.0200794,10.418516
81797596028811,0.0025207598,-0.6826984,9.233478
81797615883232,-1.3430351,-1.0312579,9.28619
81797635738337,-2.0157502,-1.9464134,8.550047
81797655593314,-2.1757548,-1.4959795,6.943206
81797675448291,-1.7137216,0.11081877,8.329131
81797695303375,-0.27683964,0.9238976,10.528272
81797715159570,0.3658057,1.413734,10.437997
81797735014674,0.3453461,0.9679526,8.876208
81797754869778,1.3873906,0.7331965,8.666023
81797774724754,1.5253503,0.61137885,9.36218
81797794579858,0.3133422,-0.25857973,9.312512
81797814430779,0.2270759,0.6816409,9.054578
81797834285755,0.69481325,1.7559781,9.389867
81797854140859,0.49450222,1.8367603,9.402477
81797873995835,0.41291782,1.2410458,8.930116
81797893850811,0.4225427,0.7481543,11.011179
81797913702934,-0.2713774,0.6278982,14.444426
81797933557910,-1.3028604,0.94973546,13.23537
81797953412886,0.60717297,0.9770639,9.692409
81797973271476,2.801255,-0.13326956,7.9964194
81797993126324,3.9965057,-0.49159032,8.66464
81798012984518,4.272656,-0.459199,9.770111
81798032839622,2.0095477,-0.24158634,10.778138
81798052694598,-0.45955044,-1.3525798,11.21043
81798072549702,-1.2257065,-1.5927662,12.181637
81798092404806,-1.2808392,-1.1377865,13.093252
81798112265191,-0.73117703,-1.7941431,12.392463
81798132120424,0.58023435,-0.7544726,10.242636
81798151975657,1.765038,1.0373721,8.7155285
81798171830890,1.9672191,1.4782844,7.813494
81798191686119,0.7507491,0.54700047,7.574442
81798211540221,-1.7873253,-0.11538435,7.324046
81798231395453,-1.6945586,-0.40741393,7.8619695
81798251250557,-0.35772735,-0.7261386,7.744112
81798271105789,0.9250587,-0.030623557,7.5391355
81798290960894,1.3087053,-0.44019276,8.344058
81798310816279,0.6077835,0.012705852,9.987763
81798330671384,0.64076287,2.3754742,10.675576
81798350526617,0.6570418,3.469617,10.385835
81798370381722,0.016714374,2.983884,9.636406
81798390236955,-0.66072625,2.1799138,10.266601
81798410090676,0.7327747,2.5447338,11.674544
81798429945781,2.2663705,2.1893556,11.733013
81798449800886,1.3026636,0.106783405,10.9285145
81798469655991,-0.345776,-0.45571914,9.214133
81798489511096,0.7697766,0.5260615,9.7896385
81798509366943,-0.8021508,0.2187119,9.932024
81798529221920,-2.3012576,-0.09434173,9.503566
81798549077025,-0.56039095,0.68475246,9.797512
81798568932130,0.41703233,0.56357896,9.803501
81798588787235,0.38668126,0.055543467,9.590562
81798608638488,0.94611245,0.22743194,9.922064
81798628493465,0.7801634,-0.06929094,10.123427
81798648348442,0.20495307,-0.5652268,9.87556
81798668203547,0.09011366,-0.4204968,9.956783
81798688058524,0.29530415,-0.2551916,10.051566
81798707909911,0.12074444,-0.41576445,9.760941
81798727764888,-0.17033692,-0.23080097,9.581813
81798747619714,-0.32215443,0.04631265,9.699934
81798767474691,-0.2600058,0.12317955,9.722729
81798787329666,0.064659916,0.064459324,9.5357
81798807182338,0.11113166,0.08803174,9.595831
81798827037314,-0.029967332,0.3133363,9.641601
81798846892162,0.13551632,0.53608584,9.516831
81798866747138,-0.17661841,0.4541374,9.608353
81798886601986,-0.28050137,0.5554077,9.630398
81798906452732,-0.13645378,0.66883636,9.680633
81798926307580,-0.17479937,0.74428636,9.678706
81798946162428,-0.35815707,0.4932795,9.58599
81798966017148,-0.05706182,0.57345885,9.712256
81798985871996,-0.060530797,0.73868483,9.847121
81799005734134,-0.06793205,0.821698,9.837838
81799025589110,-0.00629348,0.7264069,9.832855
81799045444086,0.2792664,0.6589435,9.800106
81799065299062,0.5161036,0.46924227,9.795192
81799085153910,0.69035435,0.50643426,9.739478
81799105008435,0.74421746,0.727483,9.774721
81799124863411,0.63414377,0.7695485,9.745642
81799144718387,0.51389444,0.75150615,9.610792
81799164573363,0.33079922,0.57511926,9.631602
81799184428467,0.31850702,0.59793955,9.664737
81799204281194,0.32136938,0.640111,9.698169
81799224136042,0.2673808,0.5402327,9.659076
81799243991018,0.39239642,0.4567006,9.627307
81799263845995,0.3180939,0.58165973,9.6006
81799283700972,0.28381535,0.68360895,9.608964
81799303558141,0.34642625,0.61718124,9.745971
81799323413118,0.40308273,0.6578671,9.710622
81799343268095,0.25727922,0.63870776,9.616822
81799363123072,0.2941444,0.75769085,9.658377
81799382978049,0.10739954,0.6434883,9.462092
81799402833026,0.10266492,0.48553467,9.534124
81799422683047,0.22040506,0.47927502,9.558717
81799442537896,0.17482696,0.6545218,9.513413
81799462392745,0.25823146,0.8884603,9.609826
81799482247594,0.34394005,0.90148187,9.624742
81799502102443,0.30842894,0.6261372,9.603848
81799521962620,0.28493726,0.47172394,9.608672
81799541817597,0.2749437,0.567359,9.655673
81799561672446,0.23855011,0.80039394,9.71173
81799581527423,0.12707652,0.8516923,9.737178
81799601382272,0.13535853,0.7719369,9.691918
81799621237457,0.17987917,0.66058046,9.634455
81799641092434,0.15577368,0.5165183,9.629924
81799660947283,0.2067126,0.3923942,9.589795
81799680802260,0.14329518,0.45521992,9.646309
81799700657109,0.13501516,0.5985675,9.691418
81799720516312,0.24041177,0.6698144,9.649284
81799740371289,0.3097885,0.64715475,9.680365
81799760226266,0.33182797,0.52968603,9.669732
81799780081368,0.32306153,0.5215611,9.622196
81799799936344,0.23887454,0.50016344,9.65601
81799819786139,0.24958207,0.5466993,9.72052
81799839640987,0.37548912,0.58245254,9.740156
81799859495963,0.30881792,0.5197784,9.714949
81799879350811,0.28635496,0.5173071,9.685381
81799899205787,0.3128846,0.5051763,9.711847
81799919067846,0.2844161,0.47085243,9.666987
81799938922950,0.29209116,0.5131674,9.654455
81799958778054,0.32284364,0.4966349,9.693892
81799978633030,0.21510011,0.4520288,9.681019
81799998488199,0.24339864,0.42552996,9.627718
81800018347070,0.3441603,0.44245896,9.675763
81800038202174,0.35850787,0.47232577,9.725046
81800058057406,0.33309582,0.5307246,9.709898
81800077912638,0.2787177,0.538872,9.678638
81800097767742,0.21126282,0.5163359,9.62621
81800117620536,0.24328427,0.50498295,9.639777
81800137475640,0.22465906,0.50944114,9.696743
81800157330873,0.2169566,0.5229467,9.659418
81800177186106,0.24509622,0.5880238,9.604927
81800197041208,0.2222084,0.6256847,9.67446
81800216896880,0.20290913,0.5604731,9.706074
81800236752112,0.1651802,0.5394458,9.65717
81800256607344,0.14821932,0.5247909,9.657395
81800276462448,0.14860153,0.5116244,9.684971
81800296317680,0.17803812,0.54550976,9.696639
81800316174293,0.22725993,0.60080576,9.589425
81800336029526,0.10500121,0.61769545,9.562492
81800355884759,0.12601286,0.6221632,9.686722
81800375739992,0.17500113,0.6512047,9.737279
81800395595225,0.118362375,0.5893577,9.666802
81800415453126,0.18256946,0.56849486,9.618047
81800435308359,0.15475328,0.60028297,9.654992
81800455163592,0.14038888,0.6616181,9.766538
81800475018825,0.20570251,0.65498054,9.790682
81800494874058,0.32930803,0.5733611,9.743438
81800514722219,0.29423717,0.5609222,9.691871
81800534577196,0.4073618,0.5734165,9.729496
81800554432301,0.21544607,0.48977602,9.731026
81800574287406,0.23602466,0.4652981,9.714482
81800594142511,0.23792426,0.3995574,9.699349
81800613991006,0.31733972,0.427295,9.716178
81800633845983,0.26547837,0.49876854,9.705065
81800653700960,0.2798599,0.46993026,9.718814
81800673556065,0.31201857,0.47473204,9.752403
81800693411042,0.34972316,0.5361886,9.7884655
81800713262147,0.32042843,0.52658385,9.851527
81800733116996,0.31268358,0.51764226,9.85339
81800752971973,0.308639,0.52091354,9.806076
81800772826822,0.36946794,0.52439874,9.79857
81800792681778,0.39726612,0.4766651,9.775319
81800812530720,0.36726663,0.4597814,9.712643
81800832385440,0.30528796,0.47283846,9.684623
81800852240160,0.369485,0.46293238,9.800254
81800872095008,0.34153163,0.5657379,9.900354
81800891949728,0.42100573,0.6174507,9.845409
81800911804724,0.3450305,0.5441153,9.794462
81800931659444,0.3196079,0.47451147,9.742084
81800951514164,0.34802607,0.4670817,9.753631
81800971368884,0.39266062,0.5217083,9.797643
81800991223604,0.41379976,0.53050435,9.713456
81801011077754,0.28552446,0.5415709,9.713529
81801030932474,0.27973226,0.54890424,9.858327
81801050787194,0.2785407,0.58522266,9.865455
81801070641786,0.3137704,0.57834995,9.774324
81801090496506,0.25269488,0.5625866,9.699607
81801110356840,0.24291205,0.63375956,9.708582
81801130211688,0.243187,0.6671973,9.684173
81801150066408,0.27076593,0.57658565,9.689313
81801169921256,0.26099023,0.54358745,9.824078
81801189776104,0.22366825,0.56143266,9.859397
81801209632354,0.22992739,0.53299487,9.858105
81801229487203,0.3362353,0.5103118,9.764451
81801249342052,0.35063177,0.5367726,9.748781
81801269196773,0.27645913,0.54533654,9.646773
81801289051622,0.22871228,0.5874646,9.71871
81801308906220,0.32538557,0.6051568,9.7552
81801328761068,0.28959545,0.5640204,9.813559
81801348615916,0.23055983,0.64083064,9.860957
81801368470764,0.23321344,0.6306905,9.851219
81801388325484,0.23936583,0.60528135,9.778641
81801408178741,0.21447529,0.5548604,9.713033
81801428033461,0.24040954,0.5155278,9.770344
81801447888182,0.30808976,0.4974046,9.76607
81801467742903,0.33630627,0.4826889,9.722335
81801487597624,0.29174832,0.5313348,9.810346
81801507462633,0.32311055,0.54948175,9.877068
81801527317610,0.18562281,0.49869817,9.725708
81801547172587,0.2672629,0.40856576,9.756638
81801567027564,0.31789985,0.4400831,9.741715
81801586882541,0.32161957,0.54856277,9.762045
81801606736694,0.1474622,0.53503114,9.654497
81801626591671,0.29542983,0.43075788,9.707273
81801646446648,0.2473684,0.5323444,9.783732
81801666301625,0.3609928,0.6971746,9.917786
81801686156602,0.22832024,0.7045797,9.873766
81801706012227,0.19644423,0.6023709,9.771517
81801725867191,0.23993167,0.5203087,9.75247
81801745722167,0.26607752,0.54551053,9.794982
81801765577143,0.30934557,0.5744991,9.719023
81801785432119,0.36095542,0.50998133,9.65681
81801805287095,0.2713739,0.4149904,9.677019
81801825137213,0.37528917,0.54547185,9.7962885
81801844992189,0.39548025,0.64215624,9.881781
81801864847037,0.35602832,0.55550236,9.858012
81801884702013,0.46324983,0.41522387,9.902824
81801904556861,0.5465623,0.423117,9.856912
81801924421047,0.4530383,0.48247522,9.778193
81801944276151,0.34642,0.50699526,9.697351
81801964131255,0.4019217,0.43481907,9.695384
81801983986359,0.4047773,0.46960875,9.825386
81802003841594,0.4172259,0.53460133,9.825226
81802023704049,0.3858357,0.51798844,9.829752
81802043559409,0.27676347,0.44579273,9.76796
81802063414769,0.2963222,0.4690359,9.7374735
81802083270129,0.22195417,0.5102473,9.77465
81802103125489,0.3181756,0.5139889,9.77046
81802122977376,0.3172414,0.5271765,9.743095
81802142832609,0.38450226,0.5051021,9.826591
81802162687970,0.47483873,0.44915193,9.828405
81802182543327,0.5782105,0.32155102,9.843833
81802202398559,0.5815389,0.19766034,9.763034
81802222253584,0.51847744,0.20675848,9.728046
81802242108816,0.33231422,0.32743233,9.740478
81802261964048,0.21512534,0.4021882,9.676905
81802281819280,0.23657627,0.5266015,9.637547
81802301674512,0.3449674,0.5270412,9.695637
81802321533027,0.33307615,0.48807728,9.814563
81802341388388,0.23394139,0.43560836,9.862029
81802361243749,0.23043682,0.3740336,9.850572
81802381098982,0.36227235,0.36260787,9.694911
81802400954343,0.5412001,0.19060116,9.675932
81802420807168,0.634837,0.073411435,9.659296
81802440662401,0.45291376,0.09489616,9.653546
81802460517634,0.3808213,0.19200005,9.739504
81802480372867,0.42322406,0.2923387,9.878195
81802500228100,0.40141937,0.27168325,9.920279
81802520077835,0.49277973,0.25544313,9.889992
