UPTIMENANO,Ax,Ay,Az
351594524973857,-1.2094848999999999,9.410032000000001,-1.6573536
351594544830498,-1.22146,9.362132,-1.6908839
351594564687139,-1.3675561999999999,9.354947,-1.6813037
351594584543780,-1.4513819,9.472302,-1.7603394
351594604401412,-1.3795313,9.477093,-1.7603394
351594624258053,-1.2885206,9.323812,-1.6094532
351594644114822,-1.2717555,9.290281,-1.6118482
351594663971463,-1.2909156000000002,9.359736,-1.7627343999999998
351594683832988,-1.2981006000000002,9.359736,-1.7986598000000003
351594703689757,-1.3388159,9.249566,-1.7292042
351594723546526,-1.3531861,9.139395,-1.7172291000000002
351594743403423,-1.3052857,9.110655,-1.7842896000000001
351594763260192,-1.2693603999999998,9.158555,-1.829795
351594783108602,-1.2645704,9.21364,-1.8202148999999999
351594802965242,-1.3148658000000002,9.182506,-1.7986598000000003
351594822821883,-1.3747413,9.1849,-1.7148341
351594842678522,-1.3627661,9.16095,-1.7004639
351594862535162,-1.3076807,9.125025,-1.7675245
351594882391803,-1.2981006000000002,9.14658,-1.8154249
351594902233236,-1.3292358999999998,9.158555,-1.7363893
351594922089620,-1.3268408999999999,9.139395,-1.6908839
351594941945877,-1.3268408999999999,9.093889,-1.7028589
351594961802260,-1.3052857,9.062755000000001,-1.7866846
351594981657708,-1.2669654,9.060359,-1.8082398000000002
351595001513965,-1.2765454,9.077125,-1.710044
351595021370220,-1.3028906999999998,9.105865,-1.6357985000000002
351595041226604,-1.2813355,9.045989,-1.5735278999999998
351595061082861,-1.2573853000000002,8.988508,-1.6046631000000002
351595080939284,-1.2478052,8.976534,-1.7172291000000002
351595100795541,-1.3028906999999998,8.986114,-1.7411792000000001
351595120651926,-1.331631,9.024434,-1.6142433
351595140508183,-1.3028906999999998,9.053174,-1.5256275
351595160364440,-1.2837305,9.067544,-1.5543678
351595180220825,-1.2957056999999998,9.060359,-1.6310083999999998
351595200070202,-1.2741505,9.036408999999999,-1.6357985000000002
351595219926331,-1.2310401000000002,9.010064,-1.587898
351595239782460,-1.22625,8.995694,-1.5807129
351595259638589,-1.2573853000000002,8.974138,-1.6310083999999998
351595279487810,-1.2957056999999998,8.978928999999999,-1.6860938
351595299343811,-1.331631,8.974138,-1.6381934999999999
351595319199812,-1.3220508,9.005274,-1.5735278999999998
351595339055813,-1.2789403999999998,9.014853500000001,-1.5304176
351595358911814,-1.2430152,8.957374,-1.5471827
351595378767815,-1.2885206,8.959767999999999,-1.6573536
351595398622146,-1.3196558,8.945397999999999,-1.7196240000000003
351595418478019,-1.3148658000000002,8.931028,-1.7172291000000002
351595438333892,-1.3507911,8.966953,-1.6046631000000002
351595458189765,-1.3507911,9.002879,-1.575923
351595478045638,-1.2837305,8.988508,-1.5495777
351595497910319,-1.2693603999999998,8.995694,-1.5328126
351595517766448,-1.2885206,9.010064,-1.5950831
351595537622449,-1.3004956,8.995694,-1.6813037
351595557478554,-1.2885206,8.993299,-1.6525636000000001
351595577332555,-1.3004956,8.983719,-1.587898
351595597188684,-1.3052857,8.978928999999999,-1.5926881000000002
351595617044685,-1.2909156000000002,8.962164,-1.6142433
351595636900686,-1.2717555,8.974138,-1.6214283
351595656756815,-1.2669654,9.022039,-1.6214283
351595676612816,-1.2478052,9.002879,-1.6693287
351595696472177,-1.2046948999999998,8.943004,-1.6549585999999998
351595716328178,-1.1903248,8.938213000000001,-1.585503
351595736184307,-1.1807446000000001,8.981323,-1.5567628
351595756040299,-1.1807446000000001,8.990903999999999,-1.6022681
351595775896428,-1.1999048,9.005274,-1.6070582
351595795749319,-1.2358301999999999,9.017249000000001,-1.6190332
351595815605319,-1.2693603999999998,9.012459,-1.6549585999999998
351595835461320,-1.2693603999999998,8.998089,-1.6549585999999998
351595855317191,-1.2933106,8.983719,-1.6166383
351595875172899,-1.3483961000000002,8.969349000000001,-1.6118482
351595895028900,-1.3771361999999998,8.940608000000001,-1.6860938
351595914884771,-1.3939015,8.919053,-1.7292042
351595934740771,-1.4130616000000003,8.928633,-1.7651293999999997
351595954596772,-1.4418018,8.954978,-1.7435743000000001
351595974451611,-1.465752,8.969349000000001,-1.7172291000000002
351595994308795,-1.4346168,8.962164,-1.6932789000000001
351596014164668,-1.4082716,8.926238,-1.6717237
351596034020667,-1.3627661,8.911868,-1.6717237
351596053876539,-1.2741505,8.952583,-1.7244141
351596073732412,-1.2597803,9.024434,-1.6453785
351596093595783,-1.2741505,9.038803999999999,-1.583108
351596113451912,-1.2765454,8.964559,-1.6238233
351596133308169,-1.2861254999999998,8.923843,-1.6429833999999999
351596153164298,-1.3148658000000002,8.916658,-1.6741188000000002
351596173025621,-1.2957056999999998,8.976534,-1.6765138
351596192881878,-1.3124708,9.017249000000001,-1.6357985000000002
351596212738135,-1.3148658000000002,8.990903999999999,-1.6429833999999999
351596232594520,-1.3004956,8.947792999999999,-1.6645386000000002
351596252450777,-1.2933106,8.962164,-1.6597486000000001
351596272307034,-1.2597803,8.990903999999999,-1.6645386000000002
351596292166405,-1.2525953,9.010064,-1.6142433
351596312022918,-1.2621753,8.976534,-1.5783178999999998
351596331879431,-1.219065,8.935819,-1.6286133999999999
351596351735816,-1.2070899,8.902288,-1.6717237
351596371592329,-1.2406201000000001,8.907078,-1.6238233
351596391444538,-1.219065,8.962164,-1.590293
351596411300923,-1.22625,9.002879,-1.5591576999999999
351596431157308,-1.2382251,9.019644,-1.5615528
351596451013693,-1.2478052,9.002879,-1.6357985000000002
351596470870078,-1.2717555,8.976534,-1.6908839
351596490726463,-1.2765454,9.010064,-1.6956740000000001
351596510578460,-1.2310401000000002,9.019644,-1.6262183000000001
351596530434717,-1.22146,8.988508,-1.6214283
351596550290974,-1.2717555,8.959767999999999,-1.6070582
351596570147209,-1.2813355,8.950189,-1.6334034
351596590005940,-1.2334352,8.959767999999999,-1.6693287
351596609862197,-1.2406201000000001,8.971744000000001,-1.6381934999999999
351596629718582,-1.2813355,8.938213000000001,-1.6501685000000001
351596649574839,-1.2525953,8.943004,-1.7244141
351596669431096,-1.2502003000000002,9.017249000000001,-1.6956740000000001
351596689289627,-1.2693603999999998,9.053174,-1.6549585999999998
351596709146012,-1.2861254999999998,9.010064,-1.6741188000000002
351596729002397,-1.3196558,9.0076685,-1.7004639
351596748858654,-1.3196558,9.05557,-1.6980689999999998
351596768715030,-1.2669654,9.036408999999999,-1.6621436
351596788571415,-1.2549903,8.986114,-1.6429833999999999
351596808419503,-1.3148658000000002,9.043594,-1.6836988000000002
351596828275759,-1.2861254999999998,9.062755000000001,-1.7603394
351596848131888,-1.2669654,9.045989,-1.7555493999999998
351596867988143,-1.2837305,9.000483500000001,-1.6789087
351596887832265,-1.2837305,9.072334,-1.6765138
351596907688266,-1.2741505,9.148975,-1.705254
351596927544137,-1.223855,9.153765,-1.6789087
351596947400009,-1.2022998,9.093889,-1.6621436
351596967255882,-1.2118799999999998,9.148975,-1.7004639
351596987115220,-1.2382251,9.21364,-1.7244141
351597006971092,-1.2741505,9.206455,-1.6980689999999998
351597026827093,-1.3100758,9.16095,-1.7004639
351597046682964,-1.3148658000000002,9.172925,-1.7387843
351597066538964,-1.2981006000000002,9.208851,-1.7531544
351597086394837,-1.2669654,9.15616,-1.7435743000000001
351597106251570,-1.2765454,9.10347,-1.7483643
351597126107571,-1.3004956,9.144185,-1.7292042
351597145963572,-1.2645704,9.220825,-1.7004639
351597165819573,-1.2525953,9.275911,-1.6765138
351597185676702,-1.2789403999999998,9.347761,-1.6573536
351597205532703,-1.3028906999999998,9.429193,-1.7339942
351597225388704,-1.3364209999999999,9.414823,-1.7172291000000002
351597245244577,-1.3100758,9.328602,-1.6884888
351597265100578,-1.2885206,9.263936,-1.6741188000000002
351597284956579,-1.3124708,9.244776,-1.6621436
351597304803302,-1.2717555,9.235196,-1.6980689999999998
351597324659047,-1.2669654,9.285491,-1.7315991999999998
351597344514920,-1.2957056999999998,9.338181500000001,-1.7531544
351597364370793,-1.3004956,9.378897,-1.7938697000000001
351597384226538,-1.334026,9.426797,-1.6908839
351597404083585,-1.3579761000000001,9.460327000000001,-1.6645386000000002
351597423939330,-1.3531861,9.417216999999999,-1.6932789000000001
351597443795075,-1.3531861,9.405242,-1.6956740000000001
351597463650948,-1.3603711,9.441168,-1.7627343999999998
351597483504845,-1.3100758,9.426797,-1.8034497
351597503360590,-1.2909156000000002,9.395662,-1.7890796999999998
351597523216335,-1.3699511999999998,9.474698,-1.7339942
351597543072058,-1.3627661,9.493857,-1.7771046000000001
351597562927803,-1.3244458000000001,9.457932000000001,-1.7986598000000003
351597582783548,-1.3699511999999998,9.424402,-1.7627343999999998
351597602644969,-1.3579761000000001,9.436378,-1.8082398000000002
351597622500842,-1.3196558,9.469908,-1.81782
351597642356587,-1.3364209999999999,9.484278,-1.7315991999999998
351597662212460,-1.3412110000000002,9.465117,-1.7579445
351597682068333,-1.3244458000000001,9.424402,-1.8369801
351597701929228,-1.3747413,9.453142,-1.829795
351597721785229,-1.3867163999999998,9.489068,-1.8130298999999999
351597741641102,-1.3412110000000002,9.505833,-1.8441651000000001
351597761497103,-1.3412110000000002,9.534574000000001,-1.8369801
351597781355239,-1.3675561999999999,9.570497999999999,-1.829795
351597801211240,-1.3531861,9.592053,-1.8896705000000003
351597821067239,-1.3627661,9.580078,-1.8537452
351597840923239,-1.3915064,9.587264,-1.7938697000000001
351597860779240,-1.3675561999999999,9.546548,-1.8010547
351597880635239,-1.3196558,9.491463000000001,-1.8274
351597900493252,-1.3196558,9.484278,-1.8130298999999999
351597920349253,-1.3028906999999998,9.479486999999999,-1.8944606
351597940205252,-1.3244458000000001,9.448353,-1.9232006999999998
351597960061032,-1.4010864,9.465117,-1.8705102999999998
351597979917161,-1.3986914,9.496253,-1.8345851000000002
351597999767050,-1.3579761000000001,9.503438000000001,-1.7914747
351598019622922,-1.3699511999999998,9.534574000000001,-1.7914747
351598039478923,-1.3771361999999998,9.582474000000001,-1.8633252
351598059334794,-1.346001,9.5561285,-1.8561403000000003
351598079188992,-1.346001,9.508227999999999,-1.8034497
351598099044865,-1.3723463,9.534574000000001,-1.7723145
351598118900738,-1.3579761000000001,9.546548,-1.7747096000000002
351598138756611,-1.3412110000000002,9.524992999999998,-1.7603394
351598158612612,-1.3436059999999999,9.541758999999999,-1.7986598000000003
351598178468485,-1.3148658000000002,9.517808,-1.8250049
351598198330082,-1.2789403999999998,9.484278,-1.8226098999999998
351598218186083,-1.3388159,9.541758999999999,-1.7986598000000003
351598238042212,-1.3531861,9.529783,-1.8010547
351598257898213,-1.3771361999999998,9.503438000000001,-1.7579445
351598277754214,-1.4106666,9.527389,-1.7531544
351598297612369,-1.3220508,9.551338000000001,-1.8369801
351598317468498,-1.2957056999999998,9.551338000000001,-1.8345851000000002
351598337324627,-1.3603711,9.553733,-1.7627343999999998
351598357180756,-1.3699511999999998,9.584868,-1.7842896000000001
351598377036885,-1.3579761000000001,9.570497999999999,-1.7866846
351598396893014,-1.3795313,9.534574000000001,-1.7531544
351598416748845,-1.3675561999999999,9.515413,-1.8154249
351598436604846,-1.3388159,9.515413,-1.8705102999999998
351598456460975,-1.2933106,9.522598,-1.7794994999999998
351598476317104,-1.3244458000000001,9.5561285,-1.7435743000000001
351598496172033,-1.3867163999999998,9.558523,-1.8130298999999999
351598516028034,-1.4010864,9.510622999999999,-1.8369801
351598535884035,-1.4346168,9.546548,-1.8154249
351598555740014,-1.4010864,9.539363,-1.7818946
351598575596143,-1.3627661,9.520203,-1.7579445
351598595454546,-1.3795313,9.529783,-1.7483643
351598615310675,-1.3675561999999999,9.517808,-1.81782
351598635166804,-1.3268408999999999,9.508227999999999,-1.8441651000000001
351598655022933,-1.3651612,9.541758999999999,-1.7842896000000001
351598674879062,-1.3819263000000002,9.560919,-1.7962648
351598694735191,-1.3699511999999998,9.541758999999999,-1.7794994999999998
351598714600238,-1.3603711,9.532178,-1.7507593999999997
351598734456495,-1.3172607,9.580078,-1.8058448
351598754312752,-1.3028906999999998,9.584868,-1.8274
351598774169137,-1.3244458000000001,9.5489435,-1.7747096000000002
351598794023271,-1.3723463,9.570497999999999,-1.7890796999999998
351598813879528,-1.3747413,9.534574000000001,-1.8034497
351598833735911,-1.3052857,9.493857,-1.7986598000000003
351598853592167,-1.3603711,9.529783,-1.7747096000000002
351598873448424,-1.346001,9.5561285,-1.8202148999999999
351598893293740,-1.3052857,9.515413,-1.8345851000000002
351598913149740,-1.3986914,9.505833,-1.7627343999999998
351598933005741,-1.3843212999999999,9.534574000000001,-1.8250049
351598952861740,-1.3100758,9.5561285,-1.8250049
351598972717868,-1.346001,9.560919,-1.7028589
351598992573869,-1.3579761000000001,9.5633135,-1.7483643
351599012418050,-1.346001,9.539363,-1.8034497
351599032273922,-1.3627661,9.532178,-1.8082398000000002
351599052129667,-1.3531861,9.551338000000001,-1.8345851000000002
351599071985538,-1.346001,9.536968,-1.8010547
351599091839527,-1.346001,9.520203,-1.7411792000000001
351599111695272,-1.3699511999999998,9.544153,-1.7483643
351599131550889,-1.3627661,9.520203,-1.839375
351599151406634,-1.3507911,9.474698,-1.8585353
351599171262379,-1.3651612,9.515413,-1.8058448
351599191119880,-1.3795313,9.539363,-1.7794994999999998
351599210975625,-1.3531861,9.532178,-1.7459692999999998
351599230831370,-1.3939015,9.515413,-1.7483643
351599250687115,-1.3986914,9.534574000000001,-1.7986598000000003
351599270542860,-1.3675561999999999,9.527389,-1.8321900000000002
351599290398605,-1.3843212999999999,9.524992999999998,-1.7603394
351599310251654,-1.3723463,9.5561285,-1.7771046000000001
351599330107399,-1.3412110000000002,9.558523,-1.7818946
351599349963016,-1.3531861,9.5561285,-1.7675245
351599369818761,-1.3675561999999999,9.570497999999999,-1.7866846
351599389677858,-1.3364209999999999,9.534574000000001,-1.7986598000000003
351599409533603,-1.3651612,9.505833,-1.7818946
351599429389476,-1.3699511999999998,9.532178,-1.8010547
351599449245221,-1.3244458000000001,9.553733,-1.8106349
351599469100966,-1.3124708,9.498648,-1.7555493999999998
351599488956711,-1.334026,9.510622999999999,-1.7531544
351599508812194,-1.3436059999999999,9.572892999999999,-1.7914747
351599528667939,-1.3364209999999999,9.5561285,-1.7890796999999998
351599548523662,-1.3867163999999998,9.558523,-1.7268091
351599568379535,-1.3723463,9.553733,-1.7435743000000001
351599588235280,-1.3172607,9.5489435,-1.7866846
351599608086959,-1.3603711,9.5561285,-1.7459692999999998
351599627942704,-1.3627661,9.532178,-1.7531544
351599647798321,-1.2981006000000002,9.474698,-1.7890796999999998
351599667653938,-1.3412110000000002,9.513017999999999,-1.7459692999999998
351599687509465,-1.3124708,9.577683,-1.7292042
351599707364954,-1.3028906999999998,9.599238,-1.7986598000000003
351599727220571,-1.3483961000000002,9.568104,-1.7818946
351599747076188,-1.3364209999999999,9.565708,-1.7435743000000001
351599766931805,-1.3436059999999999,9.546548,-1.7794994999999998
351599786787411,-1.3507911,9.491463000000001,-1.7675245
351599806642808,-1.334026,9.510622999999999,-1.7723145
351599826498297,-1.3100758,9.536968,-1.7866846
351599846353912,-1.2909156000000002,9.510622999999999,-1.7818946
351599866209528,-1.346001,9.575289,-1.7794994999999998
351599886065145,-1.3292358999999998,9.642349000000001,-1.7818946
351599905927496,-1.3028906999999998,9.678274,-1.7842896000000001
351599925783240,-1.3627661,9.644744000000001,-1.7507593999999997
351599945638857,-1.3891114,9.582474000000001,-1.7627343999999998
351599965494600,-1.3507911,9.529783,-1.7747096000000002
351599985348691,-1.3220508,9.489068,-1.710044
351600005204436,-1.2765454,9.489068,-1.7794994999999998
351600025060051,-1.2693603999999998,9.479486999999999,-1.8250049
351600044915667,-1.3364209999999999,9.453142,-1.829795
351600064771412,-1.3819263000000002,9.527389,-1.8369801
351600084627027,-1.3555812,9.582474000000001,-1.7890796999999998
351600104489324,-1.3268408999999999,9.582474000000001,-1.6741188000000002
351600124345197,-1.334026,9.594449000000001,-1.6693287
351600144201068,-1.3364209999999999,9.608819,-1.7459692999999998
351600164056812,-1.3196558,9.568104,-1.7866846
351600183912685,-1.3531861,9.534574000000001,-1.7555493999999998
351600203778456,-1.331631,9.520203,-1.7555493999999998
351600223634456,-1.2789403999999998,9.505833,-1.7459692999999998
351600243490457,-1.3004956,9.501043,-1.6884888
351600263346456,-1.331631,9.491463000000001,-1.7771046000000001
351600283211999,-1.3436059999999999,9.505833,-1.839375
351600303068384,-1.3364209999999999,9.5489435,-1.7196240000000003
351600322924639,-1.3028906999999998,9.558523,-1.6597486000000001
351600342781023,-1.2957056999999998,9.553733,-1.6980689999999998
351600362637408,-1.3124708,9.5561285,-1.7699194999999999
351600382493791,-1.3891114,9.594449000000001,-1.7986598000000003
351600402356514,-1.3939015,9.572892999999999,-1.8274
351600422213027,-1.4394068000000002,9.553733,-1.7531544
351600442069538,-1.4944923,9.580078,-1.6836988000000002
351600461926050,-1.3747413,9.560919,-1.7196240000000003
351600481782563,-1.3148658000000002,9.508227999999999,-1.7172291000000002
351600501638046,-1.3100758,9.479486999999999,-1.7220191000000002
351600521494559,-1.22146,9.520203,-1.8729054
351600541351072,-1.2645704,9.575289,-1.8130298999999999
351600561207585,-1.4106666,9.592053,-1.7363893
351600581064098,-1.4753321000000001,9.551338000000001,-1.7531544
351600600920611,-1.3939015,9.496253,-1.705254
351600620765390,-1.3148658000000002,9.517808,-1.6429833999999999
351600640621647,-1.3268408999999999,9.560919,-1.6693287
351600660477904,-1.3268408999999999,9.544153,-1.7986598000000003
351600680334161,-1.3004956,9.575289,-1.7914747
351600700193710,-1.22146,9.594449000000001,-1.6956740000000001
351600720050095,-1.22625,9.570497999999999,-1.6813037
351600739906352,-1.3723463,9.604028999999999,-1.6597486000000001
351600759762723,-1.4226416000000002,9.627979,-1.7028589
351600779618980,-1.3028906999999998,9.570497999999999,-1.7292042
351600799474310,-1.2549903,9.517808,-1.6932789000000001
351600819330566,-1.2861254999999998,9.527389,-1.7627343999999998
351600839186951,-1.3172607,9.544153,-1.7914747
351600859043334,-1.4585668999999999,9.565708,-1.6765138
351600878899590,-1.5495777,9.522598,-1.6118482
351600898755975,-1.4753321000000001,9.489068,-1.8321900000000002
351600918601247,-1.3723463,9.474698,-1.7914747
351600938457375,-1.3100758,9.484278,-1.7172291000000002
351600958313504,-1.2885206,9.541758999999999,-1.7603394
351600978169631,-1.2885206,9.575289,-1.7794994999999998
351600998022401,-1.334026,9.606423,-1.5783178999999998
351601017878530,-1.3747413,9.608819,-1.583108
351601037734657,-1.3603711,9.568104,-1.710044
351601057590657,-1.3483961000000002,9.582474000000001,-1.7771046000000001
351601077446786,-1.4082716,9.594449000000001,-1.7866846
351601097300574,-1.3986914,9.568104,-1.7627343999999998
351601117156574,-1.3603711,9.544153,-1.6980689999999998
351601137012575,-1.3891114,9.558523,-1.6142433
351601156868576,-1.3627661,9.522598,-1.6669337
351601176724577,-1.3148658000000002,9.489068,-1.7627343999999998
351601196580578,-1.3436059999999999,9.527389,-1.7363893
351601216438657,-1.3507911,9.520203,-1.6741188000000002
351601236294658,-1.3076807,9.522598,-1.6262183000000001
351601256150659,-1.3052857,9.570497999999999,-1.575923
351601276006660,-1.2933106,9.608819,-1.6836988000000002
351601295854461,-1.2717555,9.570497999999999,-1.8010547
351601315710334,-1.3627661,9.560919,-1.710044
351601335566079,-1.4394068000000002,9.625584,-1.6980689999999998
351601355421952,-1.3819263000000002,9.618399,-1.7196240000000003
351601375277697,-1.3531861,9.623189,-1.6094532
351601395133570,-1.3388159,9.599238,-1.5998731000000002
351601414981945,-1.2094848999999999,9.558523,-1.7196240000000003
351601434837562,-1.1663746000000002,9.551338000000001,-1.6956740000000001
351601454693179,-1.2166698999999999,9.577683,-1.6142433
351601474548796,-1.2525953,9.553733,-1.6717237
351601494404413,-1.223855,9.513017999999999,-1.7244141
351601514256658,-1.2573853000000002,9.560919,-1.6860938
351601534112147,-1.3100758,9.577683,-1.6573536
351601553967764,-1.2765454,9.553733,-1.7076490000000002
351601573823253,-1.3436059999999999,9.570497999999999,-1.6860938
351601593677558,-1.4274316999999999,9.5561285,-1.710044
351601613533047,-1.3771361999999998,9.558523,-1.7890796999999998
351601633388408,-1.3220508,9.532178,-1.7555493999999998
351601653243897,-1.3436059999999999,9.5561285,-1.6884888
351601673099386,-1.3028906999999998,9.594449000000001,-1.6836988000000002
351601692954747,-1.2717555,9.584868,-1.6597486000000001
351601712820092,-1.2549903,9.594449000000001,-1.6813037
351601732675709,-1.2430152,9.5561285,-1.6884888
351601752531326,-1.2597803,9.572892999999999,-1.6405883999999997
351601772386934,-1.331631,9.620794,-1.6046631000000002
351601792242551,-1.3364209999999999,9.577683,-1.6429833999999999
351601812104950,-1.3124708,9.534574000000001,-1.6429833999999999
351601831960694,-1.3292358999999998,9.539363,-1.6932789000000001
351601851816439,-1.2861254999999998,9.541758999999999,-1.7794994999999998
351601871672182,-1.3028906999999998,9.505833,-1.705254
351601891533569,-1.3483961000000002,9.503438000000001,-1.6573536
351601911389442,-1.3148658000000002,9.577683,-1.6860938
351601931245313,-1.3148658000000002,9.601633999999999,-1.6956740000000001
351601951101185,-1.346001,9.577683,-1.6501685000000001
351601970957058,-1.3388159,9.575289,-1.6717237
351601990812929,-1.2693603999999998,9.575289,-1.7076490000000002
351602010670631,-1.2789403999999998,9.611214,-1.6573536
351602030526632,-1.3052857,9.611214,-1.6381934999999999
351602050382631,-1.2837305,9.587264,-1.6238233
351602070238760,-1.2933106,9.594449000000001,-1.5567628
351602090094761,-1.2837305,9.596844,-1.6070582
351602109948860,-1.2478052,9.568104,-1.7148341
351602129804858,-1.2741505,9.522598,-1.7172291000000002
351602149660859,-1.3220508,9.5489435,-1.6621436
351602169516986,-1.3196558,9.587264,-1.5974781999999998
351602189377235,-1.3196558,9.572892999999999,-1.6046631000000002
351602209233364,-1.3268408999999999,9.572892999999999,-1.6597486000000001
351602229089363,-1.2861254999999998,9.5633135,-1.7483643
351602248945491,-1.2549903,9.568104,-1.7411792000000001
351602268801620,-1.3052857,9.577683,-1.6453785
351602288657747,-1.3747413,9.584868,-1.6142433
351602308518177,-1.3436059999999999,9.568104,-1.6549585999999998
351602328374434,-1.3148658000000002,9.560919,-1.6549585999999998
351602348230689,-1.3148658000000002,9.568104,-1.6860938
351602368086817,-1.331631,9.5489435,-1.6813037
351602387943074,-1.3436059999999999,9.529783,-1.6238233
351602407799274,-1.3699511999999998,9.584868,-1.6142433
351602427655530,-1.3076807,9.599238,-1.6477735
351602447511915,-1.3148658000000002,9.582474000000001,-1.6717237
351602467368170,-1.3579761000000001,9.5489435,-1.6573536
351602487224427,-1.3555812,9.568104,-1.6717237
351602507080684,-1.334026,9.587264,-1.6429833999999999
351602526925144,-1.3220508,9.529783,-1.5807129
351602546781144,-1.334026,9.524992999999998,-1.6142433
351602566637273,-1.2957056999999998,9.570497999999999,-1.6932789000000001
351602586493272,-1.2837305,9.632769,-1.6357985000000002
351602606349718,-1.2861254999999998,9.685459,-1.6190332
351602626205719,-1.3124708,9.651928999999999,-1.5807129
351602646061718,-1.3364209999999999,9.616004,-1.6094532
351602665917718,-1.3723463,9.589659,-1.6022681
351602685773719,-1.3651612,9.5561285,-1.5974781999999998
351602705637112,-1.3124708,9.539363,-1.5783178999999998
351602725493240,-1.2645704,9.517808,-1.587898
351602745349497,-1.2502003000000002,9.513017999999999,-1.6693287
351602765205624,-1.3220508,9.546548,-1.7244141
351602785061880,-1.3819263000000002,9.5561285,-1.7292042
351602804918009,-1.3843212999999999,9.589659,-1.6310083999999998
351602824774801,-1.3819263000000002,9.582474000000001,-1.5208374
351602844631057,-1.3819263000000002,9.565708,-1.5328126
351602864487314,-1.3579761000000001,9.577683,-1.6166383
351602884343569,-1.3364209999999999,9.541758999999999,-1.6645386000000002
351602904196536,-1.346001,9.575289,-1.6573536
351602924052665,-1.4058765,9.572892999999999,-1.6310083999999998
351602943908920,-1.3939015,9.558523,-1.6980689999999998
351602963765048,-1.4010864,9.560919,-1.6357985000000002
351602983621177,-1.3579761000000001,9.568104,-1.6022681
351603003465222,-1.3148658000000002,9.5489435,-1.6286133999999999
351603023321094,-1.3436059999999999,9.5489435,-1.6405883999999997
351603043177095,-1.3771361999999998,9.532178,-1.6453785
351603063032966,-1.3915064,9.515413,-1.6765138
351603082888838,-1.4609618999999998,9.527389,-1.6501685000000001
351603102744711,-1.4346168,9.534574000000001,-1.6477735
351603122592348,-1.3915064,9.522598,-1.6956740000000001
351603142447964,-1.4058765,9.529783,-1.6573536
351603162303581,-1.4226416000000002,9.546548,-1.6717237
351603182159198,-1.3723463,9.560919,-1.6956740000000001
351603202012359,-1.3603711,9.604028999999999,-1.6477735
351603221867976,-1.3891114,9.604028999999999,-1.6405883999999997
351603241723465,-1.3771361999999998,9.560919,-1.6669337
351603261579082,-1.3771361999999998,9.524992999999998,-1.6645386000000002
351603281434571,-1.3603711,9.513017999999999,-1.6741188000000002
351603301290188,-1.3052857,9.539363,-1.6932789000000001
351603321143761,-1.2837305,9.520203,-1.6741188000000002
351603340999250,-1.3603711,9.529783,-1.6429833999999999
351603360854867,-1.3675561999999999,9.570497999999999,-1.6884888
351603380710356,-1.3436059999999999,9.553733,-1.7363893
351603400565973,-1.3891114,9.558523,-1.6573536
351603420422480,-1.3915064,9.594449000000001,-1.6813037
351603440277969,-1.3843212999999999,9.596844,-1.6860938
351603460133586,-1.3962965,9.596844,-1.6238233
351603479989075,-1.346001,9.587264,-1.6860938
351603499841992,-1.3483961000000002,9.565708,-1.7507593999999997
351603519697609,-1.3819263000000002,9.575289,-1.6908839
351603539553098,-1.3723463,9.584868,-1.6166383
351603559408587,-1.3412110000000002,9.568104,-1.590293
351603579264076,-1.3555812,9.527389,-1.6094532
351603599119565,-1.3603711,9.532178,-1.6932789000000001
351603618976270,-1.331631,9.532178,-1.7363893
351603638831759,-1.3148658000000002,9.496253,-1.705254
351603658687248,-1.3388159,9.515413,-1.6477735
351603678542865,-1.3915064,9.589659,-1.6381934999999999
351603698398354,-1.3843212999999999,9.577683,-1.6405883999999997
351603718262295,-1.3939015,9.560919,-1.6357985000000002
351603738117912,-1.4130616000000003,9.577683,-1.6860938
351603757973529,-1.3651612,9.613608000000001,-1.7339942
351603777829139,-1.334026,9.642349000000001,-1.6334034
351603797686506,-1.3388159,9.592053,-1.5495777
351603817542251,-1.334026,9.608819,-1.6429833999999999
351603837397866,-1.3579761000000001,9.582474000000001,-1.6908839
351603857253610,-1.3555812,9.532178,-1.6813037
351603877109227,-1.3436059999999999,9.510622999999999,-1.6836988000000002
351603896964970,-1.331631,9.477093,-1.6813037
351603916826285,-1.3723463,9.496253,-1.6549585999999998
351603936682030,-1.3483961000000002,9.517808,-1.6741188000000002
351603956537901,-1.3196558,9.491463000000001,-1.6956740000000001
351603976393773,-1.3555812,9.544153,-1.6765138
351603996249518,-1.3436059999999999,9.606423,-1.6645386000000002
351604016108763,-1.3364209999999999,9.635164,-1.6621436
351604035965134,-1.3819263000000002,9.632769,-1.6525636000000001
351604055821007,-1.3867163999999998,9.654325,-1.7172291000000002
351604075676878,-1.3531861,9.64714,-1.7531544
351604095535573,-1.3699511999999998,9.596844,-1.7244141
351604115391446,-1.3771361999999998,9.577683,-1.705254
351604135247319,-1.3555812,9.544153,-1.7268091
351604155103192,-1.3603711,9.517808,-1.7339942
351604174959193,-1.3651612,9.510622999999999,-1.7220191000000002
351604194815066,-1.3268408999999999,9.493857,-1.7268091
351604214681473,-1.3148658000000002,9.467513,-1.6741188000000002
351604234537602,-1.3292358999999998,9.503438000000001,-1.6381934999999999
351604254393731,-1.3148658000000002,9.541758999999999,-1.7148341
351604274249860,-1.3364209999999999,9.513017999999999,-1.7148341
351604294105989,-1.3986914,9.517808,-1.6741188000000002
351604313963648,-1.4106666,9.568104,-1.7363893
351604333819905,-1.3819263000000002,9.589659,-1.7292042
351604353676162,-1.3986914,9.620794,-1.6717237
351604373532419,-1.3962965,9.639954,-1.6932789000000001
351604393388676,-1.3531861,9.627979,-1.7076490000000002
351604413244933,-1.3603711,9.577683,-1.6357985000000002
351604433098702,-1.3412110000000002,9.529783,-1.6645386000000002
351604452954959,-1.3100758,9.522598,-1.7339942
351604472811216,-1.3220508,9.486672,-1.6932789000000001
351604492667473,-1.3531861,9.462723,-1.6765138
351604512526728,-1.334026,9.462723,-1.6717237
351604532383113,-1.3052857,9.457932000000001,-1.6789087
351604552239476,-1.3220508,9.493857,-1.6597486000000001
351604572095861,-1.3244458000000001,9.541758999999999,-1.6836988000000002
351604591952246,-1.3244458000000001,9.575289,-1.6693287
351604611806131,-1.3555812,9.623189,-1.6334034
351604631662388,-1.3388159,9.651928999999999,-1.6453785
351604651518773,-1.3220508,9.6615095,-1.6908839
351604671375030,-1.3412110000000002,9.635164,-1.7004639
351604691231415,-1.3436059999999999,9.637559,-1.705254
351604711087672,-1.3507911,9.599238,-1.7004639
351604730947031,-1.3483961000000002,9.541758999999999,-1.6549585999999998
351604750803280,-1.3388159,9.524992999999998,-1.6669337
351604770659665,-1.3124708,9.503438000000001,-1.6884888
351604790516048,-1.2885206,9.496253,-1.6932789000000001
351604810368223,-1.3004956,9.484278,-1.6932789000000001
351604830224608,-1.3148658000000002,9.517808,-1.6908839
351604850080863,-1.3124708,9.570497999999999,-1.7004639
351604869937247,-1.3483961000000002,9.596844,-1.6884888
351604889793504,-1.3819263000000002,9.592053,-1.6717237
351604909643717,-1.3412110000000002,9.582474000000001,-1.6980689999999998
351604929499845,-1.3507911,9.644744000000001,-1.6717237
351604949355974,-1.3220508,9.663903999999999,-1.6405883999999997
351604969212101,-1.3076807,9.649534,-1.6621436
351604989068357,-1.3507911,9.613608000000001,-1.6860938
351605008924486,-1.3579761000000001,9.5561285,-1.7411792000000001
351605028774311,-1.331631,9.503438000000001,-1.7196240000000003
351605048630311,-1.3388159,9.513017999999999,-1.6525636000000001
351605068486312,-1.2693603999999998,9.532178,-1.6453785
351605088342439,-1.2885206,9.510622999999999,-1.6813037
351605108189321,-1.346001,9.515413,-1.7699194999999999
351605128045066,-1.3412110000000002,9.541758999999999,-1.8154249
351605147900811,-1.3364209999999999,9.551338000000001,-1.7028589
351605167756684,-1.3483961000000002,9.551338000000001,-1.5926881000000002
351605187612429,-1.3699511999999998,9.5633135,-1.6357985000000002
351605207468174,-1.3603711,9.575289,-1.7220191000000002
351605227318891,-1.3148658000000002,9.532178,-1.7651293999999997
351605247174508,-1.3244458000000001,9.560919,-1.7315991999999998
351605267030125,-1.3699511999999998,9.620794,-1.6717237
351605286885742,-1.3268408999999999,9.644744000000001,-1.6429833999999999
351605306741359,-1.3651612,9.651928999999999,-1.6381934999999999
351605326596650,-1.3627661,9.627979,-1.6908839
351605346452267,-1.3196558,9.604028999999999,-1.7531544
351605366308012,-1.3388159,9.546548,-1.6789087
351605386163629,-1.3172607,9.489068,-1.6621436
351605406014382,-1.2837305,9.477093,-1.6932789000000001
351605425869871,-1.3244458000000001,9.484278,-1.7268091
351605445725360,-1.2957056999999998,9.491463000000001,-1.7794994999999998
351605465580849,-1.3028906999999998,9.479486999999999,-1.7004639
351605485436338,-1.3819263000000002,9.582474000000001,-1.6094532
351605505291827,-1.3579761000000001,9.606423,-1.6477735
351605525149802,-1.3388159,9.592053,-1.6765138
351605545005291,-1.3627661,9.582474000000001,-1.6453785
351605564860780,-1.3052857,9.625584,-1.6693287
351605584716248,-1.2741505,9.649534,-1.6046631000000002
351605604571865,-1.3148658000000002,9.582474000000001,-1.5304176
351605624424892,-1.3148658000000002,9.580078,-1.6669337
351605644280253,-1.3172607,9.565708,-1.7387843
351605664135742,-1.3172607,9.520203,-1.7244141
351605683991103,-1.3747413,9.510622999999999,-1.6621436
351605703857058,-1.3723463,9.529783,-1.6190332
351605723712803,-1.3172607,9.508227999999999,-1.5998731000000002
351605743568420,-1.3507911,9.510622999999999,-1.5950831
351605763424037,-1.3268408999999999,9.532178,-1.7124390999999999
351605783279654,-1.3076807,9.520203,-1.7196240000000003
351605803135261,-1.3412110000000002,9.551338000000001,-1.5735278999999998
351605822996278,-1.3651612,9.623189,-1.5926881000000002
351605842852151,-1.3483961000000002,9.608819,-1.6549585999999998
351605862707894,-1.3555812,9.592053,-1.6477735
351605882563766,-1.3531861,9.635164,-1.6813037
351605902419639,-1.3388159,9.630374,-1.6860938
351605922280049,-1.3052857,9.604028999999999,-1.6190332
351605942136049,-1.3483961000000002,9.599238,-1.6142433
351605961991922,-1.3603711,9.589659,-1.6621436
351605981847793,-1.3388159,9.570497999999999,-1.6860938
351606001697833,-1.3555812,9.560919,-1.6453785
351606021553578,-1.3555812,9.551338000000001,-1.6549585999999998
351606041409321,-1.3388159,9.515413,-1.6549585999999998
351606061264759,-1.3412110000000002,9.496253,-1.6262183000000001
351606081120504,-1.331631,9.513017999999999,-1.6525636000000001
351606100976247,-1.2981006000000002,9.532178,-1.7339942
351606120837460,-1.3076807,9.505833,-1.7076490000000002
351606140693333,-1.346001,9.539363,-1.6645386000000002
351606160549204,-1.3771361999999998,9.604028999999999,-1.6621436
351606180405076,-1.3747413,9.630374,-1.6765138
351606200260949,-1.4058765,9.632769,-1.6238233
351606220119478,-1.3531861,9.577683,-1.6310083999999998
351606239975350,-1.2957056999999998,9.568104,-1.6765138
351606259831351,-1.3196558,9.608819,-1.575923
351606279687222,-1.3412110000000002,9.589659,-1.6381934999999999
351606299543222,-1.3507911,9.539363,-1.6932789000000001
351606319399095,-1.3795313,9.532178,-1.6956740000000001
351606339254263,-1.3436059999999999,9.534574000000001,-1.7172291000000002
351606359110263,-1.334026,9.532178,-1.705254
351606378966264,-1.3507911,9.5561285,-1.6525636000000001
351606398822263,-1.3364209999999999,9.592053,-1.6381934999999999
351606418682493,-1.346001,9.587264,-1.6429833999999999
351606438538622,-1.3675561999999999,9.565708,-1.7028589
351606458394749,-1.3531861,9.575289,-1.7483643
351606478250877,-1.3436059999999999,9.582474000000001,-1.6884888
351606498106878,-1.3483961000000002,9.558523,-1.5998731000000002
351606517960475,-1.3244458000000001,9.5633135,-1.6070582
351606537816603,-1.3076807,9.575289,-1.6789087
351606557672732,-1.3052857,9.5489435,-1.6980689999999998
351606577528731,-1.3172607,9.544153,-1.6789087
351606597384859,-1.3220508,9.536968,-1.6573536
351606617240988,-1.3388159,9.546548,-1.6046631000000002
351606637094787,-1.3148658000000002,9.570497999999999,-1.6214283
351606656950915,-1.3220508,9.580078,-1.6573536
351606676806916,-1.3292358999999998,9.5633135,-1.6908839
351606696662915,-1.3388159,9.589659,-1.7124390999999999
351606716523355,-1.3747413,9.596844,-1.6429833999999999
351606736379484,-1.3675561999999999,9.613608000000001,-1.6525636000000001
351606756235483,-1.346001,9.604028999999999,-1.6286133999999999
351606776091611,-1.3388159,9.572892999999999,-1.6238233
351606795947740,-1.3148658000000002,9.565708,-1.6789087
351606815798904,-1.3124708,9.558523,-1.6860938
351606835654904,-1.3483961000000002,9.513017999999999,-1.6693287
351606855510905,-1.346001,9.508227999999999,-1.6405883999999997
351606875367032,-1.3172607,9.524992999999998,-1.6477735
351606895223032,-1.3148658000000002,9.577683,-1.6621436
351606915079033,-1.3100758,9.582474000000001,-1.6645386000000002
351606934930004,-1.3124708,9.577683,-1.6621436
351606954785876,-1.3507911,9.599238,-1.6286133999999999
351606974641749,-1.3627661,9.616004,-1.6286133999999999
351606994497620,-1.3292358999999998,9.608819,-1.6262183000000001
351607014343735,-1.3196558,9.587264,-1.6429833999999999
351607034199352,-1.3076807,9.577683,-1.7148341
351607054054967,-1.3388159,9.589659,-1.6836988000000002
351607073910711,-1.3364209999999999,9.604028999999999,-1.6357985000000002
351607093766328,-1.3244458000000001,9.596844,-1.6238233
351607113619609,-1.334026,9.5561285,-1.6214283
351607133475225,-1.3220508,9.541758999999999,-1.6765138
351607153330842,-1.3364209999999999,9.5489435,-1.6477735
351607173186457,-1.3052857,9.529783,-1.6118482
351607193041945,-1.2813355,9.527389,-1.6118482
351607212897562,-1.3244458000000001,9.532178,-1.6262183000000001
351607232731369,-1.3124708,9.522598,-1.6980689999999998
351607252586473,-1.3268408999999999,9.544153,-1.6956740000000001
351607272441578,-1.3388159,9.582474000000001,-1.6070582
351607292296681,-1.3052857,9.613608000000001,-1.6070582
351607312153771,-1.3148658000000002,9.630374,-1.587898
351607332008876,-1.331631,9.616004,-1.6190332
351607351864107,-1.3220508,9.592053,-1.6741188000000002
351607371719211,-1.3268408999999999,9.568104,-1.6549585999999998
351607391574444,-1.3364209999999999,9.572892999999999,-1.587898
351607411429547,-1.3052857,9.5561285,-1.6070582
351607431288747,-1.2861254999999998,9.536968,-1.6525636000000001
351607451143980,-1.3148658000000002,9.551338000000001,-1.6525636000000001
351607470999211,-1.3052857,9.575289,-1.6573536
351607490854315,-1.2957056999999998,9.570497999999999,-1.6381934999999999
351607510709548,-1.3412110000000002,9.551338000000001,-1.575923
351607530568930,-1.3196558,9.5561285,-1.6357985000000002
351607550424162,-1.2957056999999998,9.568104,-1.6980689999999998
351607570279523,-1.2981006000000002,9.599238,-1.6262183000000001
351607590134754,-1.3412110000000002,9.604028999999999,-1.6094532
351607609988084,-1.331631,9.580078,-1.6166383
351607629843189,-1.3148658000000002,9.596844,-1.6118482
351607649698420,-1.2909156000000002,9.601633999999999,-1.6214283
351607669553524,-1.2789403999999998,9.596844,-1.6405883999999997
351607689408757,-1.3124708,9.568104,-1.6453785
351607709263988,-1.3172607,9.560919,-1.6525636000000001
351607729128887,-1.3244458000000001,9.503438000000001,-1.6286133999999999
351607748984248,-1.3268408999999999,9.517808,-1.6501685000000001
351607768839607,-1.3388159,9.558523,-1.6693287
351607788695095,-1.331631,9.592053,-1.6693287
351607808550456,-1.3412110000000002,9.592053,-1.6669337
351607828410484,-1.3436059999999999,9.630374,-1.6429833999999999
351607848265972,-1.3364209999999999,9.637559,-1.6094532
351607868121333,-1.3244458000000001,9.580078,-1.6214283
351607887976820,-1.3268408999999999,9.520203,-1.6286133999999999
351607907836007,-1.3172607,9.453142,-1.6477735
351607927691496,-1.2885206,9.496253,-1.6813037
351607947546983,-1.3220508,9.584868,-1.6357985000000002
351607967402471,-1.3268408999999999,9.599238,-1.6621436
351607987257960,-1.3052857,9.604028999999999,-1.6525636000000001
351608007113447,-1.3268408999999999,9.625584,-1.6621436
351608026976420,-1.3436059999999999,9.616004,-1.7028589
351608046832165,-1.3388159,9.584868,-1.7196240000000003
351608066687908,-1.3507911,9.544153,-1.7004639
351608086543524,-1.3124708,9.565708,-1.6836988000000002
351608106399269,-1.2837305,9.572892999999999,-1.6477735
351608126261216,-1.2645704,9.517808,-1.6262183000000001
351608146117088,-1.2957056999999998,9.544153,-1.6597486000000001
351608165972833,-1.3148658000000002,9.5633135,-1.6765138
351608185828704,-1.3268408999999999,9.580078,-1.6645386000000002
351608205691890,-1.3388159,9.582474000000001,-1.6357985000000002
351608225548019,-1.3196558,9.553733,-1.6453785
351608245404018,-1.2885206,9.5489435,-1.6166383
351608265260018,-1.2669654,9.560919,-1.5399976
351608285116019,-1.2621753,9.5633135,-1.6214283
351608304972018,-1.2861254999999998,9.577683,-1.6860938
351608324834680,-1.2981006000000002,9.580078,-1.6908839
351608344690937,-1.331631,9.613608000000001,-1.6789087
351608364547320,-1.3507911,9.613608000000001,-1.6310083999999998
351608384403576,-1.334026,9.575289,-1.6118482
351608404259833,-1.3747413,9.5633135,-1.6022681
351608424119166,-1.3555812,9.572892999999999,-1.6286133999999999
351608443975550,-1.3268408999999999,9.539363,-1.6980689999999998
351608463831935,-1.331631,9.515413,-1.6477735
351608483688318,-1.3148658000000002,9.539363,-1.6094532
351608503544830,-1.3172607,9.534574000000001,-1.6022681
351608523401215,-1.3196558,9.517808,-1.6070582
351608543255355,-1.334026,9.5489435,-1.6405883999999997
351608563111739,-1.3436059999999999,9.582474000000001,-1.6334034
351608582968252,-1.3483961000000002,9.587264,-1.5735278999999998
351608602824635,-1.3627661,9.616004,-1.5160475
351608622684743,-1.3436059999999999,9.589659,-1.5280225
351608642541256,-1.3076807,9.594449000000001,-1.6262183000000001
351608662397767,-1.2957056999999998,9.589659,-1.6453785
351608682254279,-1.2933106,9.594449000000001,-1.6405883999999997
351608702110792,-1.3052857,9.568104,-1.6070582
351608721969997,-1.3268408999999999,9.541758999999999,-1.590293
351608741826637,-1.3507911,9.5561285,-1.6357985000000002
351608761683278,-1.3436059999999999,9.5561285,-1.6789087
351608781539917,-1.3244458000000001,9.560919,-1.6525636000000001
351608801396557,-1.3124708,9.553733,-1.6286133999999999
351608821253198,-1.3436059999999999,9.592053,-1.6262183000000001
351608841100493,-1.346001,9.587264,-1.6741188000000002
351608860956877,-1.3292358999999998,9.560919,-1.6980689999999998
351608880813134,-1.3124708,9.539363,-1.6717237
351608900669517,-1.2981006000000002,9.553733,-1.6429833999999999
351608920514610,-1.2909156000000002,9.575289,-1.6142433
351608940370739,-1.3076807,9.589659,-1.5998731000000002
351608960226866,-1.334026,9.584868,-1.6429833999999999
351608980082866,-1.3196558,9.582474000000001,-1.6956740000000001
351608999938995,-1.3172607,9.544153,-1.6956740000000001
351609019785774,-1.3292358999999998,9.536968,-1.6525636000000001
351609039641646,-1.3244458000000001,9.558523,-1.6884888
351609059497647,-1.2933106,9.575289,-1.6429833999999999
351609079353518,-1.2885206,9.594449000000001,-1.590293
351609099209518,-1.331631,9.606423,-1.6789087
351609119065391,-1.331631,9.592053,-1.7172291000000002
351609138915697,-1.3507911,9.580078,-1.6693287
351609158771569,-1.3555812,9.587264,-1.6118482
351609178627314,-1.346001,9.580078,-1.6477735
351609198483057,-1.331631,9.5561285,-1.6405883999999997
351609218335924,-1.3364209999999999,9.541758999999999,-1.6597486000000001
351609238191541,-1.3364209999999999,9.546548,-1.6860938
351609258047284,-1.3483961000000002,9.5561285,-1.6645386000000002
351609277902900,-1.3507911,9.532178,-1.6046631000000002
351609297758645,-1.3436059999999999,9.541758999999999,-1.5974781999999998
351609317608244,-1.334026,9.546548,-1.6429833999999999
351609337463860,-1.3220508,9.565708,-1.6645386000000002
351609357319349,-1.3124708,9.594449000000001,-1.6789087
351609377174964,-1.334026,9.594449000000001,-1.7028589
351609397030452,-1.3651612,9.613608000000001,-1.6621436
351609416886069,-1.3795313,9.64714,-1.6381934999999999
351609436743805,-1.3555812,9.611214,-1.6190332
351609456599421,-1.3124708,9.589659,-1.6238233
351609476454910,-1.3292358999999998,9.608819,-1.6334034
351609496310397,-1.3172607,9.577683,-1.6932789000000001
351609516159875,-1.3292358999999998,9.517808,-1.6765138
351609536015236,-1.3388159,9.522598,-1.6429833999999999
351609555870595,-1.3220508,9.5633135,-1.6836988000000002
351609575725955,-1.3124708,9.568104,-1.6286133999999999
351609595581444,-1.346001,9.544153,-1.6166383
351609615436803,-1.346001,9.5561285,-1.6908839
351609635279168,-1.3196558,9.592053,-1.705254
351609655134273,-1.3220508,9.596844,-1.6693287
351609674989376,-1.3771361999999998,9.601633999999999,-1.6405883999999997
351609694844480,-1.3603711,9.594449000000001,-1.6645386000000002
351609714699585,-1.3268408999999999,9.623189,-1.6669337
351609734565012,-1.3579761000000001,9.592053,-1.6573536
351609754420244,-1.3412110000000002,9.560919,-1.7315991999999998
351609774275605,-1.3364209999999999,9.560919,-1.7555493999999998
351609794130836,-1.346001,9.541758999999999,-1.6956740000000001
351609813991700,-1.3436059999999999,9.520203,-1.705254
351609833847189,-1.3699511999999998,9.517808,-1.6813037
351609853702548,-1.3699511999999998,9.510622999999999,-1.7028589
351609873557908,-1.3507911,9.515413,-1.7411792000000001
351609893413269,-1.3555812,9.486672,-1.7363893
351609913268756,-1.3819263000000002,9.529783,-1.7076490000000002
351609933130895,-1.3651612,9.5489435,-1.6693287
351609952986384,-1.334026,9.560919,-1.6789087
351609972841871,-1.3412110000000002,9.568104,-1.6813037
351609992697359,-1.3579761000000001,9.5633135,-1.705254
351610012552848,-1.3747413,9.5633135,-1.7387843
351610032404801,-1.3795313,9.546548,-1.6908839
351610052260290,-1.3747413,9.613608000000001,-1.6597486000000001
351610072115779,-1.3507911,9.635164,-1.7004639
351610091971136,-1.3412110000000002,9.570497999999999,-1.7363893
351610111829550,-1.3723463,9.572892999999999,-1.7315991999999998
351610131685039,-1.3699511999999998,9.587264,-1.7004639
351610151538635,-1.3483961000000002,9.520203,-1.6789087
351610171394123,-1.3915064,9.498648,-1.6525636000000001
351610191249612,-1.3771361999999998,9.493857,-1.7411792000000001
351610211104971,-1.3268408999999999,9.517808,-1.7818946
351610230976142,-1.3220508,9.558523,-1.6860938
351610250832015,-1.3364209999999999,9.606423,-1.6525636000000001
351610270687888,-1.3627661,9.584868,-1.6645386000000002
351610290543633,-1.3651612,9.575289,-1.6669337
351610310399506,-1.3531861,9.587264,-1.7244141
351610330261707,-1.3292358999999998,9.572892999999999,-1.7315991999999998
351610350117708,-1.3268408999999999,9.5633135,-1.705254
351610369973709,-1.3364209999999999,9.558523,-1.6669337
351610389829838,-1.346001,9.520203,-1.6956740000000001
351610409685839,-1.331631,9.477093,-1.7148341
351610429541840,-1.3603711,9.489068,-1.705254
351610449404039,-1.3531861,9.493857,-1.7028589
351610469260296,-1.3148658000000002,9.520203,-1.6908839
351610489116553,-1.3507911,9.560919,-1.6669337
351610508972810,-1.3627661,9.608819,-1.7363893
351610528823245,-1.3244458000000001,9.584868,-1.7579445
351610548679374,-1.3651612,9.551338000000001,-1.6908839
351610568535503,-1.3723463,9.572892999999999,-1.6765138
351610588391632,-1.3412110000000002,9.551338000000001,-1.6980689999999998
351610608247761,-1.3388159,9.522598,-1.6860938
351610628106844,-1.3627661,9.575289,-1.7627343999999998
351610647962973,-1.3483961000000002,9.635164,-1.7603394
351610667819102,-1.3196558,9.663903999999999,-1.7028589
351610687675339,-1.3699511999999998,9.632769,-1.6860938
351610707531468,-1.3843212999999999,9.599238,-1.7172291000000002
351610727387597,-1.3531861,9.584868,-1.7459692999999998
351610747244732,-1.334026,9.520203,-1.7076490000000002
351610767100989,-1.3148658000000002,9.513017999999999,-1.7268091
351610786957118,-1.3292358999999998,9.524992999999998,-1.7459692999999998
351610806813370,-1.334026,9.517808,-1.7483643
351610826668675,-1.3555812,9.522598,-1.7315991999999998
351610846524932,-1.3579761000000001,9.527389,-1.7244141
351610866381187,-1.346001,9.580078,-1.7172291000000002
351610886237315,-1.331631,9.623189,-1.6477735
351610906093572,-1.331631,9.589659,-1.6645386000000002
351610925941640,-1.3412110000000002,9.587264,-1.705254
351610945797768,-1.331631,9.596844,-1.7411792000000001
351610965653769,-1.3244458000000001,9.572892999999999,-1.7268091
351610985509896,-1.3268408999999999,9.5633135,-1.7004639
351611005365896,-1.334026,9.568104,-1.7028589
351611025222025,-1.3220508,9.558523,-1.7339942
351611045075520,-1.3531861,9.553733,-1.7818946
351611064931648,-1.3699511999999998,9.568104,-1.8082398000000002
351611084787777,-1.3699511999999998,9.570497999999999,-1.7651293999999997
351611104643776,-1.3651612,9.553733,-1.6573536
351611124496114,-1.3651612,9.532178,-1.6334034
351611144352115,-1.3364209999999999,9.505833,-1.6357985000000002
351611164208114,-1.2861254999999998,9.479486999999999,-1.6453785
351611184063986,-1.2478052,9.522598,-1.6836988000000002
351611203919987,-1.2669654,9.551338000000001,-1.7292042
351611223771678,-1.2933106,9.565708,-1.7292042
351611243627422,-1.3507911,9.592053,-1.6741188000000002
351611263483167,-1.3843212999999999,9.613608000000001,-1.6789087
351611283338910,-1.3531861,9.616004,-1.6645386000000002
351611303194654,-1.334026,9.592053,-1.6693287
351611323050399,-1.3555812,9.5633135,-1.710044
351611342898895,-1.3412110000000002,9.539363,-1.7315991999999998
351611362754511,-1.3196558,9.5561285,-1.7483643
351611382610256,-1.3579761000000001,9.560919,-1.7387843
351611402465871,-1.3388159,9.544153,-1.7220191000000002
351611422318773,-1.3364209999999999,9.529783,-1.6956740000000001
351611442174390,-1.3843212999999999,9.568104,-1.7148341
351611462029877,-1.3244458000000001,9.527389,-1.7747096000000002
351611481885493,-1.3172607,9.505833,-1.7172291000000002
351611501740982,-1.3292358999999998,9.522598,-1.6693287
351611521596597,-1.2837305,9.5633135,-1.6693287
351611541451813,-1.2765454,9.620794,-1.6573536
351611561307430,-1.3220508,9.604028999999999,-1.6549585999999998
351611581163047,-1.3483961000000002,9.611214,-1.7172291000000002
351611601018536,-1.3555812,9.594449000000001,-1.710044
351611620874153,-1.3483961000000002,9.577683,-1.7004639
351611640723780,-1.3483961000000002,9.553733,-1.7483643
351611660579135,-1.334026,9.546548,-1.7723145
351611680434496,-1.3220508,9.553733,-1.705254
351611700289855,-1.3364209999999999,9.570497999999999,-1.6477735
351611720151158,-1.346001,9.568104,-1.6836988000000002
351611740006519,-1.3076807,9.534574000000001,-1.705254
351611759862006,-1.3220508,9.5489435,-1.6621436
351611779717366,-1.331631,9.5561285,-1.6765138
351611799572855,-1.3244458000000001,9.5633135,-1.6765138
351611819428214,-1.3579761000000001,9.5633135,-1.6621436
351611839282197,-1.3507911,9.572892999999999,-1.6908839
351611859137686,-1.3100758,9.5633135,-1.7004639
351611878993173,-1.3052857,9.587264,-1.6214283
351611898848661,-1.331631,9.604028999999999,-1.5998731000000002
351611918704022,-1.334026,9.572892999999999,-1.6501685000000001
351611938567624,-1.334026,9.580078,-1.6765138
351611958423240,-1.3531861,9.5633135,-1.6549585999999998
351611978278857,-1.3076807,9.513017999999999,-1.6717237
351611998134474,-1.3076807,9.515413,-1.6429833999999999
351612017986199,-1.3388159,9.546548,-1.6597486000000001
351612037841688,-1.3052857,9.553733,-1.6908839
351612057697303,-1.3172607,9.582474000000001,-1.6453785
351612077552791,-1.3603711,9.644744000000001,-1.6262183000000001
351612097408408,-1.3196558,9.639954,-1.6956740000000001
351612117263895,-1.3436059999999999,9.604028999999999,-1.6381934999999999
351612137122804,-1.3651612,9.570497999999999,-1.6262183000000001
351612156978293,-1.3076807,9.5633135,-1.7028589
351612176833908,-1.3004956,9.570497999999999,-1.6477735
351612196687581,-1.3220508,9.529783,-1.6214283
351612216543198,-1.3148658000000002,9.496253,-1.6908839
351612236406659,-1.3244458000000001,9.505833,-1.6836988000000002
351612256262532,-1.3268408999999999,9.510622999999999,-1.6525636000000001
351612276118277,-1.3052857,9.510622999999999,-1.7004639
351612295974022,-1.3220508,9.517808,-1.7363893
351612315837517,-1.3292358999999998,9.580078,-1.7244141
351612335693518,-1.3603711,9.613608000000001,-1.6621436
351612355549391,-1.3867163999999998,9.625584,-1.6334034
351612375405392,-1.3531861,9.635164,-1.7028589
351612395261393,-1.3268408999999999,9.637559,-1.7292042
351612415117394,-1.331631,9.623189,-1.7603394
351612434975955,-1.346001,9.577683,-1.7172291000000002
351612454832084,-1.3531861,9.575289,-1.6789087
351612474688085,-1.3268408999999999,9.575289,-1.6573536
351612494544086,-1.3148658000000002,9.505833,-1.6813037
351612514400215,-1.3412110000000002,9.472302,-1.7483643
351612534254686,-1.3364209999999999,9.462723,-1.7339942
351612554110815,-1.3124708,9.472302,-1.6813037
351612573966816,-1.3172607,9.515413,-1.6789087
351612593822817,-1.346001,9.551338000000001,-1.7315991999999998
351612613678818,-1.3436059999999999,9.589659,-1.7651293999999997
351612633534819,-1.3579761000000001,9.632769,-1.7363893
351612653389600,-1.331631,9.649534,-1.6789087
351612673245580,-1.3052857,9.611214,-1.6836988000000002
351612693101581,-1.331631,9.592053,-1.6908839
351612712957582,-1.3364209999999999,9.587264,-1.7292042
351612732819995,-1.3196558,9.527389,-1.7411792000000001
351612752676252,-1.3579761000000001,9.503438000000001,-1.6836988000000002
351612772532376,-1.3220508,9.517808,-1.7076490000000002
351612792388504,-1.2885206,9.503438000000001,-1.7172291000000002
351612812244633,-1.3028906999999998,9.493857,-1.6932789000000001
351612832101742,-1.334026,9.513017999999999,-1.6741188000000002
351612851957998,-1.3244458000000001,9.536968,-1.6669337
351612871814255,-1.3244458000000001,9.5489435,-1.6573536
351612891670510,-1.3436059999999999,9.565708,-1.6669337
351612911526766,-1.3412110000000002,9.589659,-1.7363893
351612931383023,-1.331631,9.618399,-1.7411792000000001
351612951228014,-1.3555812,9.649534,-1.6693287
351612971084014,-1.3771361999999998,9.644744000000001,-1.6956740000000001
351612990940015,-1.3531861,9.601633999999999,-1.7220191000000002
351613010796014,-1.3555812,9.589659,-1.7339942
351613030642172,-1.3651612,9.582474000000001,-1.710044
351613050498045,-1.334026,9.534574000000001,-1.7172291000000002
351613070353788,-1.3436059999999999,9.522598,-1.6789087
351613090209532,-1.3364209999999999,9.505833,-1.6932789000000001
351613110065405,-1.3148658000000002,9.469908,-1.7148341
351613129918729,-1.3292358999999998,9.467513,-1.705254
351613149774473,-1.331631,9.498648,-1.7004639
351613169630218,-1.2861254999999998,9.527389,-1.7172291000000002
351613189485833,-1.3483961000000002,9.592053,-1.6501685000000001
351613209341577,-1.3172607,9.632769,-1.6860938
351613229197322,-1.2957056999999998,9.635164,-1.7268091
351613249053686,-1.3579761000000001,9.620794,-1.6884888
351613268909430,-1.3699511999999998,9.594449000000001,-1.6980689999999998
351613288765175,-1.3268408999999999,9.587264,-1.7315991999999998
351613308620790,-1.3172607,9.503438000000001,-1.7172291000000002
351613328474772,-1.2981006000000002,9.433982,-1.7387843
351613348330517,-1.3364209999999999,9.570497999999999,-1.7459692999999998
351613368186132,-1.3292358999999998,9.6758795,-1.7244141
351613388041876,-1.2885206,9.587264,-1.7723145
351613407897621,-1.4226416000000002,9.534574000000001,-1.7172291000000002
351613427746306,-1.3915064,9.532178,-1.7483643
351613447601795,-1.2741505,9.532178,-1.7148341
351613467457284,-1.3436059999999999,9.541758999999999,-1.5711329
351613487312770,-1.3603711,9.568104,-1.7172291000000002
351613507168258,-1.3124708,9.587264,-1.8896705000000003
351613527023747,-1.3603711,9.558523,-1.7866846
351613546883574,-1.3747413,9.5489435,-1.7196240000000003
351613566739190,-1.3699511999999998,9.5489435,-1.6765138
351613586594807,-1.3579761000000001,9.5489435,-1.6501685000000001
351613606450294,-1.334026,9.5489435,-1.7435743000000001
351613626300412,-1.3627661,9.5489435,-1.8513502
351613646155901,-1.3747413,9.532178,-1.8274
351613666011260,-1.3483961000000002,9.524992999999998,-1.7411792000000001
351613685866620,-1.3651612,9.515413,-1.6693287
351613705721981,-1.3531861,9.498648,-1.6956740000000001
351613725577342,-1.3412110000000002,9.546548,-1.81782
351613745438171,-1.3436059999999999,9.553733,-1.8082398000000002
351613765293660,-1.334026,9.587264,-1.7483643
351613785149149,-1.3843212999999999,9.589659,-1.710044
351613805004632,-1.3651612,9.553733,-1.6789087
351613824860121,-1.3292358999999998,9.527389,-1.7124390999999999
351613844713336,-1.3124708,9.541758999999999,-1.7627343999999998
351613864568696,-1.3100758,9.513017999999999,-1.7914747
351613884424185,-1.331631,9.515413,-1.7651293999999997
351613904279544,-1.3388159,9.553733,-1.7076490000000002
351613924145437,-1.3220508,9.568104,-1.7028589
351613944001054,-1.3004956,9.568104,-1.7363893
351613963856669,-1.3172607,9.582474000000001,-1.7172291000000002
351613983712413,-1.3412110000000002,9.572892999999999,-1.7004639
351614003568030,-1.3412110000000002,9.553733,-1.6956740000000001
351614023423645,-1.3795313,9.5489435,-1.7004639
351614043283254,-1.3771361999999998,9.539363,-1.7723145
351614063138999,-1.3699511999999998,9.505833,-1.7723145
351614082994870,-1.3579761000000001,9.496253,-1.7651293999999997
351614102850615,-1.3172607,9.534574000000001,-1.7531544
351614122706360,-1.2669654,9.570497999999999,-1.7172291000000002
351614142567241,-1.3268408999999999,9.589659,-1.6836988000000002
351614162423111,-1.3603711,9.589659,-1.7292042
351614182278984,-1.3651612,9.572892999999999,-1.8154249
351614202134855,-1.3651612,9.5561285,-1.829795
351614221995715,-1.3603711,9.553733,-1.7962648
351614241851716,-1.3555812,9.5561285,-1.7723145
351614261707715,-1.3579761000000001,9.587264,-1.7579445
351614281563715,-1.3795313,9.589659,-1.7723145
351614301419716,-1.3723463,9.560919,-1.8202148999999999
351614321275715,-1.346001,9.510622999999999,-1.8441651000000001
351614341129184,-1.3771361999999998,9.496253,-1.7818946
351614360985185,-1.3412110000000002,9.501043,-1.7483643
351614380841314,-1.3292358999999998,9.474698,-1.7627343999999998
351614400697315,-1.334026,9.491463000000001,-1.8130298999999999
351614420553444,-1.3483961000000002,9.572892999999999,-1.8585353
351614440414833,-1.3675561999999999,9.604028999999999,-1.7866846
351614460270962,-1.3436059999999999,9.606423,-1.7339942
351614480127219,-1.3603711,9.599238,-1.7124390999999999
351614499983348,-1.3364209999999999,9.599238,-1.7771046000000001
351614519837593,-1.3244458000000001,9.575289,-1.8274
351614539693722,-1.346001,9.558523,-1.7914747
351614559549979,-1.3292358999999998,9.544153,-1.7818946
351614579406108,-1.3244458000000001,9.520203,-1.7723145
351614599262237,-1.3148658000000002,9.481883,-1.7651293999999997
351614619118494,-1.3148658000000002,9.481883,-1.7890796999999998
351614638972613,-1.3100758,9.477093,-1.8082398000000002
351614658828614,-1.3100758,9.481883,-1.7675245
351614678684743,-1.3028906999999998,9.484278,-1.7483643
351614698540872,-1.3268408999999999,9.582474000000001,-1.7339942
351614718396873,-1.331631,9.611214,-1.7962648
351614738257456,-1.334026,9.608819,-1.7938697000000001
351614758113565,-1.3531861,9.625584,-1.7507593999999997
351614777969822,-1.3388159,9.618399,-1.7651293999999997
351614797825949,-1.3196558,9.64714,-1.7699194999999999
351614817682077,-1.3364209999999999,9.623189,-1.7435743000000001
351614837538334,-1.3052857,9.570497999999999,-1.7842896000000001
351614857391243,-1.3076807,9.529783,-1.7986598000000003
351614877247499,-1.3292358999999998,9.496253,-1.7555493999999998
351614897103628,-1.2981006000000002,9.419611999999999,-1.7699194999999999
351614916959755,-1.3052857,9.4435625,-1.7723145
351614936805224,-1.2813355,9.486672,-1.7699194999999999
351614956661097,-1.2933106,9.501043,-1.8010547
351614976517098,-1.3483961000000002,9.536968,-1.7962648
351614996372971,-1.3723463,9.587264,-1.8106349
351615016228972,-1.3412110000000002,9.635164,-1.7986598000000003
351615036070260,-1.3388159,9.649534,-1.7268091
351615055925876,-1.3436059999999999,9.623189,-1.7555493999999998
351615075781621,-1.3388159,9.635164,-1.829795
351615095637236,-1.331631,9.601633999999999,-1.8106349
351615115492852,-1.3124708,9.570497999999999,-1.7866846
351615135348469,-1.2957056999999998,9.544153,-1.7771046000000001
351615155200372,-1.3028906999999998,9.501043,-1.7962648
351615175055860,-1.3244458000000001,9.481883,-1.7890796999999998
351615194911477,-1.3172607,9.460327000000001,-1.8106349
351615214766964,-1.3148658000000002,9.455538,-1.829795
351615234623050,-1.3148658000000002,9.479486999999999,-1.8274
351615254478539,-1.331631,9.491463000000001,-1.8274
351615274334026,-1.3388159,9.501043,-1.8082398000000002
351615294189515,-1.331631,9.558523,-1.7771046000000001
351615314045004,-1.2981006000000002,9.606423,-1.7723145
351615333894983,-1.2789403999999998,9.606423,-1.8082398000000002
351615353750472,-1.3196558,9.599238,-1.829795
351615373605833,-1.3675561999999999,9.599238,-1.81782
351615393461194,-1.3196558,9.584868,-1.8082398000000002
351615413316555,-1.3388159,9.536968,-1.7603394
351615433171916,-1.3436059999999999,9.513017999999999,-1.7914747
351615453028679,-1.2909156000000002,9.522598,-1.8609301999999999
351615472884040,-1.3124708,9.539363,-1.8489552
351615492739273,-1.3699511999999998,9.553733,-1.8010547
351615512594634,-1.3699511999999998,9.560919,-1.7842896000000001
351615532448075,-1.3699511999999998,9.534574000000001,-1.7531544
351615552303436,-1.3507911,9.529783,-1.7699194999999999
351615572158669,-1.3196558,9.517808,-1.8465601000000003
351615592014030,-1.3220508,9.505833,-1.8800903999999998
351615611869263,-1.3555812,9.539363,-1.8154249
351615631724496,-1.3675561999999999,9.5633135,-1.7435743000000001
351615651575281,-1.3412110000000002,9.575289,-1.7315991999999998
351615671430386,-1.334026,9.565708,-1.7675245
351615691285619,-1.334026,9.575289,-1.8226098999999998
351615711140724,-1.331631,9.604028999999999,-1.81782
351615730995957,-1.3388159,9.599238,-1.7771046000000001
351615750840713,-1.3579761000000001,9.584868,-1.7363893
351615770695689,-1.3747413,9.551338000000001,-1.7148341
351615790550666,-1.3436059999999999,9.474698,-1.7914747
351615810405641,-1.3148658000000002,9.445957,-1.8058448
351615830267023,-1.3124708,9.491463000000001,-1.7771046000000001
351615850122128,-1.3148658000000002,9.520203,-1.7675245
351615869977231,-1.3196558,9.524992999999998,-1.7579445
351615889832335,-1.3699511999999998,9.529783,-1.7555493999999998
351615909687440,-1.3603711,9.529783,-1.7842896000000001
351615929542543,-1.3196558,9.5489435,-1.7747096000000002
351615949390315,-1.3771361999999998,9.5561285,-1.7124390999999999
351615969245164,-1.3507911,9.570497999999999,-1.7627343999999998
351615989100011,-1.3412110000000002,9.517808,-1.7794994999999998
351616008954987,-1.3555812,9.419611999999999,-1.7579445
351616028809836,-1.3675561999999999,9.510622999999999,-1.705254
351616048674113,-1.3579761000000001,9.721385,-1.705254
351616068529217,-1.2957056999999998,9.75731,-1.7531544
351616088384322,-1.3771361999999998,9.678274,-1.7986598000000003
351616108239425,-1.4801221000000002,9.575289,-1.8633252
351616128092406,-1.3747413,9.5489435,-1.8441651000000001
351616147947511,-1.3076807,9.477093,-1.6597486000000001
351616167802744,-1.3507911,9.457932000000001,-1.5519726999999999
351616187657849,-1.3172607,9.472302,-1.7555493999999998
351616207513082,-1.3292358999999998,9.520203,-1.9016455
351616227368187,-1.3867163999999998,9.546548,-1.8465601000000003
351616247235806,-1.3771361999999998,9.544153,-1.7363893
351616267091295,-1.3555812,9.529783,-1.6501685000000001
351616286946784,-1.331631,9.524992999999998,-1.6094532
351616306802145,-1.346001,9.541758999999999,-1.7723145
351616326657634,-1.3507911,9.5633135,-1.9567311
351616346523243,-1.3891114,9.592053,-1.9160157
351616366378860,-1.3962965,9.620794,-1.7531544
351616386234605,-1.3603711,9.599238,-1.6405883999999997
351616406090350,-1.3579761000000001,9.5561285,-1.6836988000000002
351616425951527,-1.3531861,9.544153,-1.8106349
351616445807400,-1.3436059999999999,9.534574000000001,-1.9016455
351616465663273,-1.3412110000000002,9.529783,-1.8250049
351616485519146,-1.3747413,9.505833,-1.7196240000000003
351616505375019,-1.3819263000000002,9.501043,-1.6884888
351616525230892,-1.3436059999999999,9.489068,-1.7483643
351616545089513,-1.331631,9.462723,-1.8082398000000002
351616564945514,-1.3579761000000001,9.491463000000001,-1.8609301999999999
351616584801387,-1.3699511999999998,9.5561285,-1.8417700000000001
351616604657367,-1.3699511999999998,9.639954,-1.7866846
351616624513240,-1.3843212999999999,9.673484,-1.7363893
351616644368973,-1.3939015,9.683064,-1.7292042
351616664224846,-1.3843212999999999,9.68067,-1.7507593999999997
351616684080719,-1.3699511999999998,9.613608000000001,-1.7651293999999997
351616703936592,-1.3364209999999999,9.534574000000001,-1.7747096000000002
351616723792593,-1.334026,9.474698,-1.7603394
351616743648466,-1.331631,9.407638,-1.7914747
351616763512139,-1.3292358999999998,9.381292,-1.8274
351616783368139,-1.3268408999999999,9.393267,-1.8034497
351616803224268,-1.3124708,9.4507475,-1.8154249
351616823080267,-1.3220508,9.513017999999999,-1.7818946
351616842939560,-1.3627661,9.568104,-1.7603394
351616862795817,-1.3699511999999998,9.620794,-1.8226098999999998
351616882651944,-1.3795313,9.649534,-1.7723145
351616902508200,-1.3675561999999999,9.6686945,-1.7435743000000001
351616922364457,-1.3244458000000001,9.654325,-1.7555493999999998
351616942216196,-1.3483961000000002,9.611214,-1.7890796999999998
351616962072325,-1.3579761000000001,9.587264,-1.8441651000000001
351616981928454,-1.3507911,9.544153,-1.8633252
351617001784580,-1.3699511999999998,9.508227999999999,-1.8585353
351617021640708,-1.3388159,9.479486999999999,-1.839375
351617041496837,-1.331631,9.465117,-1.7938697000000001
351617061350112,-1.3531861,9.484278,-1.7986598000000003
351617081206240,-1.3603711,9.501043,-1.8130298999999999
351617101062497,-1.3531861,9.505833,-1.7818946
351617120918624,-1.3651612,9.527389,-1.7435743000000001
351617140771499,-1.346001,9.558523,-1.7818946
351617160627628,-1.3555812,9.570497999999999,-1.7747096000000002
351617180483755,-1.3723463,9.570497999999999,-1.7747096000000002
351617200339883,-1.3723463,9.592053,-1.7603394
351617220196012,-1.3723463,9.599238,-1.7363893
351617240049759,-1.334026,9.575289,-1.7483643
351617259905760,-1.331631,9.592053,-1.7818946
351617279761889,-1.3699511999999998,9.5561285,-1.7531544
351617299618018,-1.3364209999999999,9.508227999999999,-1.7675245
351617319474147,-1.3364209999999999,9.534574000000001,-1.7363893
351617339330148,-1.3507911,9.522598,-1.7363893
351617359174505,-1.3076807,9.489068,-1.7459692999999998
351617379030250,-1.3412110000000002,9.515413,-1.7076490000000002
351617398885995,-1.3076807,9.513017999999999,-1.7531544
