UPTIMENANO,Ax,Ay,Az
351586423611441,-0.6084486,-0.6694586,9.547763
351586443467313,-0.25479144,-1.0505296,9.601782
351586463323185,-0.34488884,-1.1666484,10.33893
351586483192753,-0.5118781,-1.16608,10.702176
351586503048881,-0.5320093,-1.0798537,10.35778
351586522905137,-0.57793546,-0.983141,10.124876
351586542761265,-0.79967415,-0.85664445,9.762595
351586562617393,-0.41632453,-1.0032158,9.611905
351586582473862,0.109705985,-1.1587244,9.984617
351586602330118,-0.04219783,-1.3331373,10.396489
351586622186374,-0.26500592,-1.2323588,9.85121
351586642042502,-0.42372218,-0.9829777,9.64004
351586661898758,-0.42439008,-1.1728691,9.856727
351586681755532,-0.112276934,-1.3209621,9.678885
351586701611660,-0.5871172,-2.2601078,9.760931
351586721467916,-0.5180828,-1.381728,10.523684
351586741324044,-0.12380171,-0.49175885,9.720424
351586761180172,0.42755017,-0.49710748,8.316673
351586781038683,0.9802132,-0.7331624,7.9647775
351586800894939,0.1686504,-0.38628414,9.241784
351586820751195,-1.0725937,0.49691927,10.575978
351586840607451,-1.3392571,-0.63835007,11.119564
351586860463707,-0.7383687,-2.3425407,11.161443
351586880317166,0.5069427,-2.650406,9.204426
351586900173422,-0.21498181,-1.41538,10.191943
351586920029550,0.5192894,-0.38580033,9.452871
351586939885806,0.3260748,-0.49097696,8.085883
351586959741934,0.24662286,-2.398958,10.175968
351586979594532,0.33372724,-2.9398172,10.027095
351586999450660,0.40442565,-0.10691964,7.651179
351587019306916,-0.43917048,-1.2456083,9.977872
351587039163044,-1.1238335,0.5029386,11.401245
351587059019172,-1.7813475,1.0480181,10.674506
351587078872606,-0.6438709,-0.32536137,8.686242
351587098728734,-0.0827099,0.1838134,9.361593
351587118584990,-0.70142156,-0.36550015,10.508405
351587138441118,-1.1047271,-0.98399293,10.242781
351587158297246,0.30684304,-1.7693845,9.155022
351587178146090,2.5952032,-2.4639919,7.789467
351587198002090,3.4432724,-2.2383265,6.731598
351587217857962,4.8726473,-3.650018,6.531028
351587237713962,2.4124458,-4.4693956,7.703838
351587257569962,-5.932995,-0.9099468,5.2860217
351587277417727,0.6937875,-0.06245848,3.8291128
351587297273471,1.9787405,-1.7356108,7.027274
351587317129215,-2.7093978,-1.6367155,10.486147
351587336984959,-1.8565195,-1.1141578,11.6225815
351587356840831,0.77073383,-2.1428776,8.46273
351587376692777,1.1401768,-3.731126,5.3629055
351587396548521,0.13428998,-5.685877,4.110233
351587416404137,-2.2246675,-6.1361036,7.2801228
351587436259881,-3.2438407,-4.0543704,12.1166935
351587456115625,-2.3620646,-2.4110606,12.151478
351587475974787,-2.4415524,-3.002993,11.061706
351587495830531,-2.9054859,-3.5562174,11.989652
351587515686403,-2.6987402,-2.0546336,14.633529
351587535542147,-2.060551,2.0018773,15.1864195
351587555397891,-4.4419384,18.74067,-0.41371906
351587575254945,1.446704,-3.5658953,4.9898105
351587595110689,-1.2266185,-8.575605,14.431964
351587614966433,-1.0379463,-0.12774207,11.587038
351587634822305,3.8793929,-0.14269039,11.805494
351587654678049,4.941755,-3.202314,5.433966
351587674537017,0.15185712,-5.4294953,-0.9095575
351587694392761,-0.8640785,-6.1246305,2.0525758
351587714248633,1.7610537,-2.7758455,7.69267
351587734104377,2.2521973,-4.7320757,6.788006
351587753960121,1.4925771,-3.519371,8.22097
351587773817186,0.5039734,-8.685814,6.2797203
351587793672930,0.16245532,-5.7926683,10.980111
351587813528802,-1.8829848,-6.7845807,14.355362
351587833384546,-0.68565696,-3.1740239,15.325929
351587853240290,0.52601707,-2.1229095,14.308019
351587873100672,-1.6600966,-3.6081,12.555092
351587892956416,-3.3057036,1.2036504,13.885966
351587912812288,-2.674618,1.6508667,14.461669
351587932670742,-4.348403,0.9544854,15.7439995
351587952526614,-0.17665914,4.3631597,17.624353
351587972393079,3.359769,2.4720123,15.196158
351587992249079,3.09389,0.5307541,12.049746
351588012105079,2.1503184,0.33254668,10.170781
351588031961079,1.930209,-0.61664987,8.812602
351588051817079,2.1341975,-1.4046184,7.9000664
351588071679654,2.7614055,-2.1621714,8.546194
351588091535782,2.9842017,-3.0060613,8.892228
351588111392038,2.7394502,-1.9682574,7.7649975
351588131248294,1.8500804,-2.277469,6.7983866
351588151104550,1.4389759,-2.560008,6.780613
351588170964560,0.25875592,-2.4264529,8.340318
351588190820816,0.2269222,-2.9627016,10.809059
351588210677200,1.3331871,-2.6873968,11.517076
351588230533456,3.3533807,-2.8235068,11.730286
351588250389712,4.5738916,-0.26461068,12.730507
351588270248636,2.2743104,2.9486864,12.100953
351588290105020,-0.03328995,2.5115654,11.169606
351588309961532,-0.85923225,-0.21951081,11.271925
351588329817916,-2.4783144,-1.7662,12.470533
351588349674428,-0.8947938,-2.8867686,12.402423
351588369539290,-0.63893074,-4.0327296,13.947318
351588389396058,-0.89452124,-5.5089946,16.593586
351588409252698,-2.1876972,-6.5330772,13.226657
351588429109338,-1.741781,-4.9977803,13.52782
351588448965979,-0.46758834,-3.5276675,9.291459
351588468829048,1.8719406,-2.47462,4.964327
351588488685944,6.447497,-7.524479,-0.5006113
351588508542713,1.1843147,-1.5865548,-0.65583
351588528399608,-1.7661604,4.200264,2.4015796
351588548257191,-3.1906645,1.1691531,3.195059
351588568114088,-3.7983446,1.5846624,3.7807841
351588587970983,3.4753356,3.401676,7.046194
351588607827879,2.5485418,1.8419868,12.751809
351588627684904,-1.212547,1.6885731,11.228909
351588647541799,-2.516703,-0.67265046,11.053999
351588667400456,-5.384801,-0.42500538,17.649826
351588687257481,0.35872388,-1.554051,15.143718
351588707114376,6.4039173,-3.6652439,10.843596
351588726971400,3.0462065,-2.8908637,9.210039
351588746828425,-1.902737,-0.44072804,9.715243
351588766682418,-2.0921302,0.0060026627,8.893319
351588786539314,-0.5411051,1.0153768,8.949511
351588806396211,0.92864954,0.28450435,8.873436
351588826253234,-0.609888,0.27270788,10.381981
351588846105752,-3.7818854,0.8717339,10.366596
351588865962521,0.5117716,-1.76582,9.551816
351588885819416,2.0015962,-1.658478,9.668516
351588905676184,1.8311491,-2.9223373,12.238947
351588925532953,4.318249,-2.614906,12.749062
351588945389848,2.429389,-0.20891075,9.2399435
351588965239460,2.2782838,0.6592084,6.534628
351588985096101,-3.9039214,1.1116418,6.0434465
351589004952740,-1.6714395,-0.84364814,11.170915
351589024809380,0.74458086,-0.96371627,9.662952
351589044666021,3.6969247,-1.7571683,8.039358
351589064513066,2.2141123,-0.37692505,7.8049364
351589084369450,0.3337363,-0.101577975,9.141451
351589104225963,-0.23263559,-1.5717126,11.134569
351589124082346,-0.39950246,-1.7339783,12.47549
351589143938730,-0.25774008,-0.81537974,11.077688
351589163795243,0.5577609,-0.7824044,7.2871833
351589183603254,0.80371577,-0.3759506,6.5569077
351589203458742,-0.20509139,-0.33168894,9.343302
351589223314231,-0.7205169,-0.40029266,11.040421
351589243169718,-0.95430446,-0.78713375,9.659162
351589263024084,-0.6858345,-0.4037468,7.7796884
351589282879445,0.67504096,-1.1182691,7.488146
351589302734804,1.9347134,-2.5288079,7.917808
351589322590164,2.0972586,-3.8457441,9.259065
351589342445653,-0.62293375,-3.5300329,14.392854
351589362300962,-4.7502384,3.9206033,13.857136
351589382156194,-1.3776551,1.4619915,12.441254
351589402011555,-0.9727541,0.9784433,11.548693
351589421866786,-0.20379518,1.4683524,10.918989
351589441722146,-0.81471515,1.1003011,12.850558
351589461577379,-1.0770423,2.502007,13.708846
351589481441454,-0.042533882,1.5823826,12.909115
351589501296814,-0.25964376,0.9532645,12.178595
351589521152175,-1.9540788,0.81756,10.849932
351589541007662,3.6517498,-2.2279887,9.743549
351589560867142,4.634306,-0.93365407,5.090859
351589580722631,0.855891,-0.64863956,3.2053943
351589600578118,-2.9458904,1.3551589,8.056064
351589620433606,-3.3834908,3.2305405,12.820686
351589640289095,-2.123003,2.8217587,9.258341
351589660148190,-0.9654746,0.23779894,2.9201484
351589680003678,-1.2979896,-1.5519178,3.1505744
351589699859167,-5.445994,-5.459104,10.8437195
351589719714654,-5.252612,-5.1578684,15.069742
351589739570142,-1.0257752,-2.7470422,12.63339
351589759425631,3.5889232,-1.4804155,10.8601055
351589779284219,6.670153,-2.553936,10.981098
351589799139707,6.918452,-3.2574506,12.161554
351589818995196,3.22862,-0.36674413,9.704706
351589838850811,0.19632474,0.47620833,9.2671
351589858714637,0.022371449,-0.16050735,9.962837
351589878570254,-0.24894862,0.2963892,9.834431
351589898425869,-0.4860627,0.83119255,9.732822
351589918281485,-0.8119777,0.3670725,9.93776
351589938137102,-1.6016736,-0.4751378,9.696235
351589957995705,-1.9877712,-0.59433013,9.392119
351589977856989,-1.5241678,-0.28451216,9.594316
351589997712862,-0.87913746,0.11334814,9.804698
351590017568605,-0.33395708,0.37446243,10.002358
351590037424349,-0.17820725,0.41571587,9.872416
351590057280094,-0.5033872,0.4012053,9.417395
351590077148576,-0.8066614,0.18194449,9.746489
351590097004576,-0.41860864,-0.098760605,9.791865
351590116860705,0.059953023,-0.5126453,9.775389
351590136716704,0.19289953,-0.64626414,9.945373
351590156584504,-0.10691982,-0.4328638,9.9245205
351590176440761,-0.2344148,-0.072287016,9.587196
351590196297144,-0.084133536,-0.1476477,9.803858
351590216153400,-0.09444724,-0.22016916,9.859229
351590236009785,-0.18547964,-0.38630074,9.745856
351590255866040,-0.039816383,-0.40186968,9.553055
351590275731244,-0.046967287,-0.08348204,9.192636
351590295587885,-0.33347818,0.10207453,9.687661
351590315444524,-0.048486676,0.21792026,10.37695
351590335301165,0.23114313,0.14996509,10.117565
351590355157678,0.3497848,0.04707904,9.882015
351590375018487,0.09764139,-0.027289007,9.957233
351590394875256,0.104595006,0.087669,9.757057
351590414732025,0.10421602,0.13911545,9.714376
351590434588794,-0.049151804,0.1513824,9.745981
351590454451657,-0.16982819,0.124170735,9.721778
351590474308682,-0.22407837,0.030081969,9.740422
351590494165835,-0.21774642,-0.09263645,9.842557
351590514022860,-0.26240227,-0.16956054,9.782214
351590533879885,-0.33039123,-0.23956802,9.765496
351590553736910,-0.31483805,-0.20784199,9.77457
351590573593727,-0.24104458,-0.17010492,9.769004
351590593451008,-0.13396017,-0.2744909,9.810091
351590613308161,-0.028388418,-0.37373385,9.859809
351590633165314,-0.120165475,-0.34233728,9.866885
351590653022595,-0.24864258,-0.2622743,9.856477
351590672885514,-0.20325467,-0.1356457,9.75443
351590692742923,-0.15518178,-0.05061526,9.727476
351590712600332,-0.13167004,-0.040821414,9.749019
351590732457741,-0.069412455,-0.105687514,9.805885
351590752315131,-0.10887313,-0.096194215,9.888468
351590772172412,-0.15127254,-0.09628046,9.821638
351590792000765,-0.09236498,-0.11441462,9.762154
351590811857277,-0.057043314,-0.16129258,9.768381
351590831713790,-0.109015495,-0.22857873,9.761267
351590851570301,-0.22961645,-0.26681414,9.763356
351590871417798,-0.23049845,-0.18064094,9.758015
351590891274183,-0.2171936,-0.078978784,9.789548
351590911130566,-0.26054537,-0.03753539,9.849769
351590930986822,-0.26526755,0.025099322,9.832245
351590950843207,-0.21845905,0.039773244,9.785897
351590970699797,-0.25308335,-0.024848366,9.785464
351590990556181,-0.33192998,-0.07938888,9.786638
351591010412438,-0.3667135,-0.05163827,9.800566
351591030268821,-0.36687857,-0.051326733,9.759188
351591050125077,-0.29620653,-0.08095226,9.80948
351591069981334,-0.22515965,-0.1281776,9.829115
351591089836242,-0.189394,-0.1156472,9.837873
351591109692627,-0.21460538,-0.054157276,9.808537
351591129548884,-0.29543167,-0.03956703,9.756065
351591149405141,-0.3790329,-0.005275053,9.7605715
351591169256772,-0.4512863,-0.009594126,9.732272
351591189112901,-0.43617105,-0.021199591,9.7700405
351591208969030,-0.38867757,0.0043691583,9.8633795
351591228825287,-0.349165,-0.0077039003,9.799813
351591248681416,-0.23815204,-0.07995182,9.780571
351591268531419,-0.19433674,-0.14394218,9.787113
351591288387420,-0.2800697,-0.16071904,9.772834
351591308243549,-0.27894488,-0.08165386,9.76357
351591328099550,-0.26349625,-0.09391221,9.813761
351591347955551,-0.20192778,-0.17723344,9.852517
351591367811552,-0.13283588,-0.17926538,9.881954
351591387666723,-0.11282684,-0.13005972,9.818901
351591407522596,-0.16514824,-0.115621254,9.738875
351591427378597,-0.15371123,-0.17369197,9.764144
351591447234470,-0.116052516,-0.23939648,9.819703
351591467097017,-0.13844602,-0.22671767,9.813122
351591486953146,-0.12839098,-0.16347313,9.785703
351591506809147,-0.13375172,-0.17289566,9.824136
351591526665276,-0.14903575,-0.19057521,9.834236
351591546521277,-0.09014471,-0.15520841,9.771722
351591566377384,-0.09754838,-0.14853755,9.744105
351591586235519,-0.11844612,-0.15502937,9.771046
351591606091648,-0.19973963,-0.13782862,9.793679
351591625947649,-0.26473194,-0.11601381,9.811546
351591645803778,-0.27190885,-0.0853424,9.811879
351591665659779,-0.22792502,-0.0830937,9.794799
351591685520460,-0.21026315,-0.09256858,9.790674
351591705376589,-0.24085887,-0.071871094,9.791516
351591725232718,-0.27062666,-0.012525159,9.798907
351591745088975,-0.38849688,0.0103157675,9.736824
351591764939323,-0.35366642,-0.046934836,9.80051
351591784795452,-0.274903,-0.036823615,9.757156
351591804651451,-0.28156817,-0.043567523,9.784651
351591824507579,-0.19451222,-0.017451758,9.8692
351591844363708,-0.19558638,-0.04455158,9.788949
351591864219835,-0.13131382,-0.11582759,9.756422
351591884077396,-0.102408454,-0.13945878,9.778878
351591903933525,-0.26109466,-0.14942452,9.797698
351591923789652,-0.28533086,-0.11427889,9.800741
351591943646844,-0.1687964,-0.07630782,9.768101
351591963502973,-0.09733304,-0.11155859,9.771528
351591983362459,-0.06619065,-0.1430888,9.8176
351592003218587,-0.08290692,-0.12879169,9.78945
351592023074844,-0.18942054,-0.17803451,9.745195
351592042931099,-0.24379534,-0.22367908,9.755709
351592062789441,-0.22413038,-0.22111167,9.764429
351592082645698,-0.17772995,-0.16661003,9.771122
351592102501953,-0.1713595,-0.07170103,9.811002
351592122358210,-0.1587574,-0.03266788,9.82049
351592142214467,-0.1601155,-0.017348677,9.794945
351592162070724,-0.18808301,-0.0076141763,9.781161
351592181932705,-0.18921134,-0.037563425,9.809743
351592201789090,-0.21799515,-0.07593928,9.801507
351592221645475,-0.2549733,-0.054243553,9.811544
351592241501732,-0.2275852,-0.022672787,9.823632
351592261358117,-0.22587733,-0.034028806,9.796746
351592281216574,-0.21745282,-0.09469791,9.790904
351592301073087,-0.18812309,-0.13722773,9.780008
351592320929600,-0.16320245,-0.1092255,9.780431
351592340786113,-0.1704555,-0.10296546,9.793328
351592360640738,-0.20154823,-0.10007745,9.793119
351592380497123,-0.1911609,-0.116295196,9.780148
351592400353636,-0.16620608,-0.15584695,9.802707
351592420210021,-0.20951761,-0.19310015,9.803102
351592440066534,-0.2344189,-0.16536921,9.746283
351592459922919,-0.19698027,-0.08110624,9.759793
351592479779962,-0.18347864,-0.055860795,9.801833
351592499636475,-0.2046049,-0.090206765,9.807959
351592519492860,-0.16189401,-0.13019976,9.790013
351592539349245,-0.19687118,-0.14908305,9.764831
351592559205630,-0.22214781,-0.11923703,9.793503
351592579064040,-0.16506708,-0.017282479,9.781426
351592598920425,-0.1279865,0.010435471,9.782859
351592618776938,-0.15766495,-0.017759077,9.799254
351592638633451,-0.18652835,-0.058976308,9.806275
351592658489964,-0.19080362,-0.062176485,9.806678
351592678346477,-0.15726373,-0.06068193,9.818532
351592698202826,-0.16754314,-0.057090692,9.794903
351592718059339,-0.1947447,-0.014502716,9.759072
351592737915852,-0.1910427,-0.024997255,9.786213
351592757772365,-0.19451843,-0.12450437,9.827468
351592777629546,-0.2002879,-0.17058574,9.827343
351592797486059,-0.19469027,-0.12440364,9.79794
351592817342570,-0.19009614,-0.07204753,9.76861
351592837199082,-0.19905333,-0.08036122,9.781147
351592857055595,-0.2364631,-0.072592184,9.803551
351592876907791,-0.24573913,-0.009139359,9.774301
351592896764175,-0.22386196,0.021518672,9.767264
351592916620560,-0.21844976,-0.02956072,9.793504
351592936476943,-0.24226046,-0.02326445,9.814772
351592956333327,-0.37409168,0.04794674,9.730125
351592976189712,-0.48588365,0.07818731,9.7197275
351592996040945,-0.517731,0.093523085,9.790263
351593015897201,-0.37075508,0.11581857,9.7947035
351593035753458,-0.20228058,0.11635687,9.765792
351593055609841,-0.14909902,-0.024820417,9.753934
351593075460908,-0.10652474,-0.1922342,9.7116585
351593095317165,-0.021088695,-0.41318744,9.98028
351593115173294,-0.0230332,-0.4335001,9.795344
351593135029551,-0.16154452,-0.43235967,9.829894
351593154885808,-0.09946978,-0.22768907,9.857661
351593174740797,-0.074850835,-0.17203517,9.815062
351593194597054,-0.08131498,-0.14870094,9.821748
351593214453311,-0.14043024,-0.06937749,9.802614
351593234309440,-0.21652769,-0.060560685,9.709426
351593254165697,-0.26325017,-0.06979694,9.740243
351593274021954,-0.2769607,-0.0498486,9.796353
351593293871615,-0.25280282,-0.010989611,9.82136
351593313727744,-0.20577691,0.07875641,9.816994
351593333583873,-0.14263393,0.15431744,9.8365345
351593353440002,-0.18943697,0.118964374,9.828875
351593373292307,-0.2626895,-0.0238226,9.813691
351593393148308,-0.31012443,-0.11928762,9.757834
351593413004181,-0.3188289,-0.12210839,9.691487
351593432860182,-0.34618458,-0.079543106,9.731826
351593452716055,-0.24051465,-0.056102417,9.800223
351593472572056,-0.14177723,-0.11123809,9.79212
351593492428589,-0.18335624,-0.22337823,9.8927765
351593512284462,-0.15200278,-0.25489724,9.92156
351593532140463,-0.036853533,-0.28703097,9.862775
351593551996314,0.07396731,-0.49749175,9.753926
351593571852187,0.05226749,-0.49758822,9.740188
351593591707780,0.0137561,-0.37988308,9.780983
351593611563781,-0.10026413,-0.29320642,9.791372
351593631419654,-0.119208924,-0.14586203,9.79521
351593651275527,-0.08606945,-0.02298867,9.802962
351593671132460,-0.10298861,0.03520839,9.855579
351593690988333,-0.08864215,0.08575055,9.875151
351593710844334,-0.101319045,0.049196143,9.803577
351593730700207,-0.20672983,-0.009327929,9.750036
351593750556080,-0.39500806,-0.011749935,9.74014
351593770411943,-0.52538055,0.036060695,9.774959
351593790266951,-0.5575849,0.08934784,9.833328
351593810122824,-0.4614006,0.19910899,9.742859
351593829978695,-0.33002427,0.23391499,9.642673
351593849834567,-0.3619081,0.15622693,9.747443
351593869690440,-0.44627008,0.062315986,9.778741
351593889552742,-0.3763144,0.03923468,9.741374
351593909408742,-0.13667671,-0.01025415,9.79819
351593929264743,-0.0019040821,-0.11429006,9.842129
351593949120742,-0.019722003,-0.22066309,9.747973
351593968978665,-0.042290688,-0.24520072,9.736913
351593988834666,-0.15310195,-0.23059388,9.777213
351594008690665,-0.17711194,-0.235567,9.845156
351594028546793,-0.046055038,-0.24798676,9.862954
351594048402794,0.04149835,-0.30709043,9.899168
351594068258921,0.033787087,-0.34819406,9.885995
351594088116355,0.12009912,-0.39232165,9.860201
351594107972356,0.26911163,-0.43508467,9.816815
351594127828483,0.13801858,-0.55087656,9.749953
351594147684612,-0.29664144,-0.47270548,9.727752
351594167540741,-0.5955109,-0.06962831,9.733487
351594187399174,-0.6532718,0.26833907,9.760009
351594207255303,-0.5001964,0.3812872,9.662811
351594227111432,-0.3166176,0.32520035,9.414984
351594246967689,-0.15882404,0.24622284,9.418277
351594266826450,-0.02722965,0.20799002,9.769474
351594286682707,-0.18398787,0.06672269,9.938793
351594306538964,-0.35245425,-0.06505183,9.74189
351594326395221,-0.16682325,-0.107702784,9.677915
351594346251478,-0.107209526,-0.11169504,9.756538
351594366107735,-0.23766202,-0.15826736,9.804204
351594385966796,-0.25117534,-0.047175474,9.710655
351594405823181,-0.07343142,-0.04451597,9.562744
351594425679566,-0.10363336,-0.16182327,9.5343075
351594445535951,-0.15847352,-0.17164695,9.660312
351594465392336,-0.19108494,-0.08017244,9.675239
351594485260575,-0.2649347,-0.016428757,9.59016
351594505117216,-0.2434447,0.014810709,9.626668
351594524973857,-0.26146024,0.0048552505,9.627564
351594544830498,-0.2619657,-0.03985516,9.588033
351594564687139,-0.12596685,-0.09288549,9.601435
351594584543780,-0.09264278,-0.17285512,9.74122
351594604401412,-0.15651208,-0.09204812,9.735718
351594624258053,-0.16211687,0.04617298,9.547547
351594644114822,-0.17599206,0.0438051,9.512719
351594663971463,-0.2293148,-0.08262179,9.608274
351594683832988,-0.23856743,-0.1173656,9.615312
351594703689757,-0.16443022,-0.096524924,9.502667
351594723546526,-0.13904294,-0.11557539,9.395521
351594743403423,-0.20942047,-0.16116974,9.37132
351594763260192,-0.26468986,-0.17620467,9.420054
351594783108602,-0.2684325,-0.15390909,9.471416
351594802965242,-0.2133269,-0.16376851,9.445109
351594822821883,-0.12314275,-0.113982774,9.442711
351594842678522,-0.12514901,-0.10068739,9.415195
351594862535162,-0.20248571,-0.1439517,9.382884
351594882391803,-0.23370825,-0.1774447,9.410348
351594902233236,-0.17401083,-0.12211377,9.413601
351594922089620,-0.15510038,-0.089350544,9.387016
351594941945877,-0.15740411,-0.10966857,9.344637
351594961802260,-0.21226929,-0.18510142,9.324709
351594981657708,-0.25662833,-0.19028245,9.320031
351595001513965,-0.2056833,-0.10416076,9.32174
351595021370220,-0.15213603,-0.046940707,9.341563
351595041226604,-0.13956656,0.0026285262,9.26975
351595061082861,-0.17083907,-0.02720416,9.215169
351595080939284,-0.24137451,-0.122484945,9.22013
351595100795541,-0.20610528,-0.16709967,9.241703
351595120651926,-0.12002929,-0.06438744,9.2628765
351595140508183,-0.10229362,0.031024016,9.272196
351595160364440,-0.13393514,0.01877353,9.287954
351595180220825,-0.16134496,-0.05378967,9.295172
351595200070202,-0.18114504,-0.05275484,9.269325
351595219926331,-0.1932529,0.0029395684,9.229343
351595239782460,-0.19307587,0.008247344,9.213443
351595259638589,-0.19003643,-0.054106172,9.205288
351595279487810,-0.184531,-0.11828638,9.2246895
351595299343811,-0.1293358,-0.095640935,9.217711
351595319199812,-0.10705912,-0.029258404,9.236149
351595339055813,-0.12341979,0.030102024,9.231973
351595358911814,-0.1598778,0.020556524,9.173191
351595378767815,-0.17544846,-0.09450321,9.200263
351595398622146,-0.17874369,-0.1655103,9.201056
351595418478019,-0.18095107,-0.164284,9.185928
351595438333892,-0.09568344,-0.07775945,9.208183
351595458189765,-0.083245285,-0.045523632,9.238561
351595478045638,-0.12744042,0.005810382,9.210112
351595497910319,-0.13190934,0.028498825,9.212225
351595517766448,-0.14706655,-0.030598754,9.239224
351595537622449,-0.17887165,-0.11287401,9.240988
351595557478554,-0.18671462,-0.07297621,9.232036
351595577332555,-0.14276509,-0.02647907,9.214057
351595597188684,-0.14088811,-0.033916865,9.210895
351595617044685,-0.16344789,-0.048637673,9.195845
351595636900686,-0.18413818,-0.04264488,9.2057495
351595656756815,-0.19059175,-0.02987387,9.251715
351595676612816,-0.23067194,-0.06495061,9.237862
351595696472177,-0.25727615,-0.04460677,9.170568
351595716328178,-0.2336661,0.01995222,9.152451
351595736184307,-0.22922195,0.058256894,9.188356
351595756040299,-0.2530708,0.022000195,9.205066
351595775896428,-0.23982568,0.01164344,9.222782
351595795749319,-0.21453425,-0.010485873,9.241925
351595815605319,-0.2033951,-0.0580226,9.248235
351595835461320,-0.20267883,-0.061148863,9.234227
351595855317191,-0.15902285,-0.04305617,9.217711
351595875172899,-0.10688072,-0.068448745,9.21137
351595895028900,-0.116779,-0.15171781,9.19985
351595914884771,-0.12046781,-0.19928508,9.188492
351595934740771,-0.119871326,-0.23588197,9.2066765
351595954596772,-0.08574179,-0.22515318,9.233224
351595974451611,-0.0536607,-0.20968483,9.246605
351595994308795,-0.06774649,-0.17565842,9.23094
351596014164668,-0.07796873,-0.1525675,9.188376
351596034020667,-0.11402319,-0.13180031,9.167487
351596053876539,-0.22025661,-0.12438485,9.202272
351596073732412,-0.19674604,-0.0346547,9.25715
351596093595783,-0.14577803,0.0025389148,9.263284
351596113451912,-0.16039707,-0.04931032,9.19791
351596133308169,-0.15968491,-0.07902414,9.162791
351596153164298,-0.15010388,-0.12084944,9.165217
351596173025621,-0.17085631,-0.10069457,9.221085
351596192881878,-0.13800563,-0.06532268,9.256667
351596212738135,-0.13821788,-0.07829184,9.232518
351596232594520,-0.15927579,-0.099052414,9.191834
351596252450777,-0.16380168,-0.0884133,9.203976
351596272307034,-0.19660814,-0.070140585,9.227704
351596292166405,-0.1785648,-0.019793995,9.237087
351596312022918,-0.15060154,-0.0011398403,9.199982
351596331879431,-0.21101262,-0.031994022,9.161976
351596351735816,-0.24128594,-0.07014488,9.134513
351596371592329,-0.1885509,-0.0445131,9.1364355
351596391444538,-0.19312496,0.0062822,9.181406
351596411300923,-0.17335191,0.038116567,9.217104
351596431157308,-0.1650478,0.033962756,9.23565
351596451013693,-0.19314714,-0.037367385,9.232876
351596470870078,-0.19874872,-0.10139793,9.219808
351596490726463,-0.1986921,-0.1004989,9.254004
351596510578460,-0.20366777,-0.017535642,9.245119
351596530434717,-0.20798244,-0.015613587,9.212535
351596550290974,-0.15589143,-0.033801198,9.189778
351596570147209,-0.11369596,-0.09224055,9.186634
351596590005940,-0.17067811,-0.1113078,9.1947775
351596609862197,-0.15590629,-0.08150456,9.202393
351596629718582,-0.11743887,-0.11043362,9.177719
351596649574839,-0.16690278,-0.17171243,9.1903515
351596669431096,-0.16790825,-0.12913215,9.257657
351596689289627,-0.1412382,-0.08872633,9.288827
351596709146012,-0.12674314,-0.11990923,9.252437
351596729002397,-0.10228535,-0.15421821,9.259422
351596748858654,-0.10617259,-0.14237638,9.305735
351596768715030,-0.12729274,-0.11907824,9.273307
351596788571415,-0.12998927,-0.108156696,9.219329
351596808419503,-0.077641904,-0.14729762,9.2909975
351596828275759,-0.1057096,-0.2220852,9.318044
351596848131888,-0.12200016,-0.21951923,9.298064
351596867988143,-0.09144489,-0.15450637,9.2435465
351596887832265,-0.09768065,-0.14301471,9.313213
351596907688266,-0.11901187,-0.15867193,9.391261
351596927544137,-0.16358383,-0.13680986,9.384162
351596947400009,-0.175624,-0.131649,9.319812
351596967255882,-0.17365879,-0.16018209,9.381268
351596987115220,-0.14474972,-0.1833531,9.452164
351597006971092,-0.113234624,-0.15173945,9.446156
351597026827093,-0.070258126,-0.15692446,9.407513
351597046682964,-0.06195729,-0.1927525,9.426231
351597066538964,-0.08572577,-0.20114656,9.461169
351597086394837,-0.10835859,-0.20394383,9.403573
351597106251570,-0.089420564,-0.21477994,9.354431
351597126107571,-0.075299285,-0.1866421,9.394522
351597145963572,-0.12701845,-0.15282848,9.459113
351597165819573,-0.15105876,-0.12325429,9.50706
351597185676702,-0.13990454,-0.09029144,9.577861
351597205532703,-0.12096313,-0.15004982,9.673509
351597225388704,-0.0877895,-0.1307484,9.661727
351597245244577,-0.10237482,-0.11890329,9.568985
351597265100578,-0.11418774,-0.11731607,9.500351
351597284956579,-0.088975616,-0.10480647,9.483263
351597304803302,-0.12273802,-0.1473585,9.4738
351597324659047,-0.1318796,-0.17365512,9.527666
351597344514920,-0.11011796,-0.18292983,9.586888
351597364370793,-0.107377894,-0.2162156,9.634037
351597384226538,-0.09540725,-0.1036039,9.668679
351597404083585,-0.08094327,-0.069467045,9.700577
351597423939330,-0.07474742,-0.10448884,9.662597
351597443795075,-0.072411545,-0.10855202,9.6513195
351597463650948,-0.06327877,-0.16795042,9.698519
351597483504845,-0.10500232,-0.21729453,9.683747
351597503360590,-0.12019071,-0.21053815,9.648158
351597523216335,-0.063158035,-0.13359572,9.727876
351597543072058,-0.070066445,-0.13662441,9.753202
351597562927803,-0.09863332,-0.16879167,9.716151
351597582783548,-0.05296497,-0.13167787,9.684174
351597602644969,-0.06096934,-0.17621937,9.701767
351597622500842,-0.102944724,-0.18649033,9.730351
351597642356587,-0.09991492,-0.09755867,9.732239
351597662212460,-0.08862555,-0.12539214,9.718749
351597682068333,-0.08805032,-0.2111668,9.689978
351597701929228,-0.04473698,-0.19227834,9.724247
351597721785229,-0.041306995,-0.16879913,9.75819
351597741641102,-0.08470886,-0.20369104,9.773023
351597761497103,-0.09053899,-0.19245094,9.799806
351597781355239,-0.07163139,-0.17413153,9.837548
351597801211240,-0.08180096,-0.23167104,9.866566
351597821067239,-0.07137529,-0.19556417,9.850283
351597840923239,-0.05320186,-0.1300478,9.851404
351597860779240,-0.06838814,-0.14701803,9.8094
351597880635239,-0.100337125,-0.18903033,9.7530985
351597900493252,-0.100210816,-0.17786236,9.743635
351597920349253,-0.103897795,-0.26078954,9.750301
351597940205252,-0.073237315,-0.29191896,9.7279825
351597960061032,-0.008735503,-0.22512536,9.746773
351597979917161,-0.021485852,-0.18597835,9.770662
351597999767050,-0.06816974,-0.1498373,9.764309
351598019622922,-0.06175383,-0.14227489,9.796438
351598039478923,-0.05296611,-0.2042509,9.856358
351598059334794,-0.08310353,-0.20500582,9.824848
351598079188992,-0.10376585,-0.15538403,9.769118
351598099044865,-0.083041646,-0.11882824,9.793444
351598118900738,-0.09902206,-0.12014032,9.8033695
351598138756611,-0.112692304,-0.11051044,9.777435
351598158612612,-0.11158281,-0.14539285,9.800615
351598178468485,-0.13522089,-0.17699191,9.777454
351598198330082,-0.16548058,-0.18227877,9.739022
351598218186083,-0.11630993,-0.14568932,9.7999
351598238042212,-0.10015614,-0.14909495,9.790785
351598257898213,-0.07393134,-0.10941329,9.761394
351598277754214,-0.044786487,-0.09874714,9.788919
351598297612369,-0.1329773,-0.18291956,9.813219
351598317468498,-0.15906289,-0.18219148,9.808882
351598337324627,-0.09822318,-0.10703591,9.8087
351598357180756,-0.09289235,-0.122637786,9.844111
351598377036885,-0.102360584,-0.12806164,9.82873
351598396893014,-0.07664411,-0.0995127,9.791272
351598416748845,-0.08319216,-0.16468221,9.7813635
351598436604846,-0.10956235,-0.22071472,9.786401
351598456460975,-0.15889314,-0.1327335,9.771197
351598476317104,-0.13474661,-0.09000169,9.802427
351598496172033,-0.07115925,-0.15416633,9.825814
351598516028034,-0.048568483,-0.1846109,9.78535
351598535884035,-0.021915685,-0.15549654,9.821703
351598555740014,-0.040042385,-0.13626048,9.803951
351598575596143,-0.07728866,-0.121627904,9.775531
351598595454546,-0.06381637,-0.108258806,9.7857485
351598615310675,-0.06438812,-0.17972608,9.784013
351598635166804,-0.099058986,-0.2132136,9.773054
351598655022933,-0.0752202,-0.14386147,9.801335
351598674879062,-0.06058321,-0.1501599,9.824523
351598694735191,-0.071167976,-0.1384337,9.801241
351598714600238,-0.08262409,-0.11324232,9.78563
351598734456495,-0.12576927,-0.16683228,9.835166
351598754312752,-0.13781226,-0.18943915,9.841328
351598774169137,-0.11746104,-0.13981478,9.800649
351598794023271,-0.06733914,-0.14613561,9.831211
351598813879528,-0.05629076,-0.16464218,9.798989
351598833735911,-0.10570111,-0.18506566,9.748171
351598853592167,-0.063227296,-0.14441337,9.787345
351598873448424,-0.07141535,-0.18835115,9.81855
351598893293740,-0.10303347,-0.21734862,9.775209
351598913149740,-0.02677201,-0.12687516,9.767682
351598933005741,-0.032822937,-0.18646973,9.804041
351598952861740,-0.104743876,-0.20311348,9.813987
351598972717868,-0.099353015,-0.075001135,9.803426
351598992573869,-0.07794972,-0.115284115,9.815218
351599012418050,-0.06752266,-0.17724288,9.79937
351599032273922,-0.049001332,-0.17672278,9.795694
351599052129667,-0.055044994,-0.20214203,9.817381
351599071985538,-0.070957296,-0.1801786,9.796519
351599091839527,-0.079089485,-0.12445606,9.770156
351599111695272,-0.05889935,-0.12314244,9.798254
351599131550889,-0.044635974,-0.21598952,9.789079
351599151406634,-0.044502344,-0.24317357,9.746158
351599171262379,-0.047699038,-0.18366216,9.779153
351599191119880,-0.042998217,-0.15190744,9.800218
351599210975625,-0.07339966,-0.12597007,9.783695
351599230831370,-0.030618347,-0.121940814,9.773793
351599250687115,-0.02006778,-0.1670553,9.801598
351599270542860,-0.042629555,-0.20705746,9.79559
351599290398605,-0.03936162,-0.13427287,9.783714
351599310251654,-0.053384595,-0.14885673,9.815091
351599330107399,-0.08300363,-0.15974738,9.813611
351599349963016,-0.0736771,-0.14362694,9.810647
351599369818761,-0.05880228,-0.15721577,9.829992
351599389677858,-0.08022976,-0.18020396,9.792364
351599409533603,-0.050437625,-0.1617588,9.765806
351599429389476,-0.046961002,-0.17576392,9.795402
351599449245221,-0.093000844,-0.19175652,9.811268
351599469100966,-0.10495647,-0.14834084,9.74658
351599488956711,-0.08671884,-0.13986409,9.761047
351599508812194,-0.081479475,-0.16658948,9.8295765
351599528667939,-0.085867144,-0.16803677,9.8117695
351599548523662,-0.02692824,-0.105345905,9.811136
351599568379535,-0.03587541,-0.12570627,9.807146
351599588235280,-0.07758338,-0.18178798,9.801565
351599608086959,-0.047195546,-0.13078377,9.808125
351599627942704,-0.03884414,-0.1400406,9.786316
351599647798321,-0.08170974,-0.19827606,9.726757
351599667653938,-0.057589196,-0.14109239,9.763276
351599687509465,-0.10079901,-0.12435478,9.8193245
351599707364954,-0.097747415,-0.19068578,9.850492
351599727220571,-0.05247348,-0.1667961,9.824019
351599747076188,-0.072384834,-0.13345619,9.813553
351599766931805,-0.0536522,-0.16842295,9.801899
351599786787411,-0.028978275,-0.16417402,9.747251
351599806642808,-0.043279435,-0.17307284,9.764265
351599826498297,-0.06618321,-0.19167724,9.78883
351599846353912,-0.07233945,-0.20132406,9.759497
351599866209528,-0.035067324,-0.17213382,9.830241
351599886065145,-0.06282359,-0.17370364,9.893575
351599905927496,-0.092503116,-0.18078075,9.925169
351599925783240,-0.04098526,-0.1310194,9.895681
351599945638857,-3.671496E-4,-0.13837568,9.840808
351599965494600,-0.018420544,-0.17027587,9.7857895
351599985348691,-0.057521403,-0.12687528,9.73114
351600005204436,-0.0735443,-0.20820406,9.736009
351600025060051,-0.057587683,-0.25927722,9.733039
351600044915667,0.008863555,-0.24062064,9.717925
351600064771412,0.038153406,-0.2223126,9.798185
351600084627027,-0.007425963,-0.18282016,9.840159
351600104489324,-0.07981029,-0.0919188,9.816934
351600124345197,-0.07778841,-0.08347201,9.828873
351600144201068,-0.04737767,-0.1500289,9.855916
351600164056812,-0.037705034,-0.19850588,9.820465
351600183912685,-0.01371344,-0.15904082,9.787528
351600203778456,-0.026305417,-0.17327344,9.770298
351600223634456,-0.07333863,-0.1903855,9.7469635
351600243490457,-0.07730517,-0.12992805,9.735975
351600263346456,-0.010925269,-0.19903402,9.745742
351600283211999,0.024959628,-0.24778505,9.771767
351600303068384,-0.041275356,-0.14096595,9.793053
351600322924639,-0.09739678,-0.10257447,9.787627
351600342781023,-0.08646728,-0.14049089,9.7882
351600362637408,-0.041386694,-0.19653517,9.804816
351600382493791,0.034653258,-0.18599084,9.858117
351600402356514,0.057976883,-0.21223125,9.842472
351600422213027,0.0696377,-0.12721297,9.81826
351600442069538,0.08803035,-0.040054027,9.840575
351600461926050,-0.001319097,-0.14764193,9.810015
351600481782563,-0.045573585,-0.17482492,9.749436
351600501638046,-0.04227995,-0.18368192,9.721462
351600521494559,-0.07127936,-0.35344502,9.772615
351600541351072,-0.06684117,-0.27650958,9.823007
351600561207585,0.031302355,-0.14527181,9.848373
351600581064098,0.10409777,-0.13738982,9.820821
351600600920611,0.023208782,-0.1324194,9.747391
351600620765390,-0.07641635,-0.10666442,9.74678
351600640621647,-0.063984446,-0.12180291,9.7948675
351600660477904,-0.010242715,-0.24054109,9.799418
351600680334161,-0.042940848,-0.24214584,9.824782
351600700193710,-0.15515405,-0.18620226,9.816415
351600720050095,-0.15166892,-0.17331244,9.791419
351600739906352,-0.03540482,-0.090537086,9.842053
351600759762723,0.023881108,-0.106424086,9.879764
351600779618980,-0.061714586,-0.18517011,9.810402
351600799474310,-0.10665182,-0.1788851,9.746152
351600819330566,-0.04947498,-0.23105426,9.771215
351600839186951,-0.013389091,-0.24207215,9.796767
351600859043334,0.0623463,-0.07691905,9.819933
351600878899590,0.12858576,0.017433502,9.780708
351600898755975,0.16039702,-0.2151812,9.772609
351600918601247,0.059376944,-0.2224016,9.737024
351600938457375,-0.030584238,-0.18300563,9.725343
351600958313504,-0.044112843,-0.22607248,9.7852545
351600978169631,-0.045882672,-0.2436495,9.820977
351600998022401,-0.08902545,-0.04127611,9.825704
351601017878530,-0.05109225,-0.028398672,9.834742
351601037734657,2.0359387E-4,-0.15330558,9.813255
351601057590657,0.01911377,-0.2143429,9.8363495
351601077446786,0.07350562,-0.19482121,9.858274
351601097300574,0.072930284,-0.177356,9.827279
351601117156574,0.04787517,-0.14217676,9.787869
351601137012575,0.016095866,-0.05835596,9.7927065
351601156868576,0.03542418,-0.11715339,9.762207
351601176724577,0.06382589,-0.22295545,9.737799
351601196580578,0.061783534,-0.18311614,9.775178
351601216438657,0.031100517,-0.13032614,9.759283
351601236294658,-0.031482864,-0.11985725,9.747775
351601256150659,-0.07394146,-0.08048342,9.786204
351601276006660,-0.025971582,-0.17066492,9.83906
351601295854461,0.036706533,-0.27696362,9.817206
351601315710334,0.05340996,-0.1494334,9.806495
351601335566079,0.09122044,-0.08993066,9.878804
351601355421952,0.06171766,-0.14292759,9.866924
351601375277697,-0.028070202,-0.074843556,9.849915
351601395133570,-0.03981454,-0.07719138,9.822925
351601414981945,-0.05783263,-0.2528339,9.783561
351601434837562,-0.10387774,-0.261369,9.766509
351601454693179,-0.120214894,-0.16552141,9.786533
351601474548796,-0.052768424,-0.18869935,9.777476
351601494404413,-0.03426098,-0.24916059,9.741954
351601514256658,-0.041914735,-0.19665791,9.787474
351601534112147,-0.02246868,-0.14072247,9.806877
351601553967764,-0.012640768,-0.2017304,9.7866535
351601573823253,0.022177545,-0.14241065,9.809274
351601593677558,0.1394845,-0.08440909,9.810956
351601613533047,0.16514413,-0.17421447,9.818608
351601633388408,0.11075343,-0.19371036,9.779694
351601653243897,0.06993017,-0.13357008,9.795568
351601673099386,0.0321737,-0.16133654,9.826432
351601692954747,-0.0033910212,-0.16910163,9.808835
351601712820092,-2.458165E-4,-0.19593388,9.819209
351601732675709,0.005562522,-0.20952219,9.781195
351601752531326,-0.022648241,-0.16552997,9.792394
351601772386934,-0.013403787,-0.08792996,9.843779
351601792242551,0.027141262,-0.10925245,9.808404
351601812104950,0.02212728,-0.12628518,9.762872
351601831960694,0.066198,-0.14997908,9.777864
351601851816439,0.098129556,-0.24043612,9.787668
351601871672182,0.07341135,-0.17617655,9.743195
351601891533569,0.06613626,-0.112378515,9.739782
351601911389442,0.048690904,-0.15631565,9.812086
351601931245313,0.05259202,-0.16338743,9.836974
351601951101185,0.046510532,-0.109200135,9.810847
351601970957058,0.057804756,-0.12906025,9.810876
351601990812929,0.042543605,-0.2072293,9.806566
351602010670631,0.004792283,-0.16704538,9.835141
351602030526632,0.007899024,-0.13462664,9.835888
351602050382631,-0.0082685035,-0.14652696,9.807081
351602070238760,-0.051994648,-0.094333224,9.804998
351602090094761,-0.022419674,-0.13525414,9.813827
351602109948860,0.037994064,-0.23432009,9.797444
351602129804858,0.06585157,-0.21666542,9.757095
351602149660859,0.052199602,-0.14412753,9.781072
351602169516986,-0.0022904102,-0.10474316,9.8080635
351602189377235,0.0067741373,-0.11087141,9.795121
351602209233364,0.05085311,-0.14329086,9.804716
351602229089363,0.091599636,-0.23525685,9.803271
351602248945491,0.06718359,-0.25430775,9.802353
351602268801620,0.029179655,-0.1525626,9.804026
351602288657747,0.053637773,-0.08097518,9.816108
351602308518177,0.072599135,-0.12815069,9.801586
351602328374434,0.05656465,-0.15043806,9.790461
351602348230689,0.07453898,-0.17328537,9.802287
351602368086817,0.087135635,-0.15856129,9.785173
351602387943074,0.055495612,-0.11227986,9.75926
351602407799274,0.051257044,-0.09011593,9.8153715
351602427655530,0.03407963,-0.16057132,9.825662
351602447511915,0.059939895,-0.17064953,9.814003
351602467368170,0.079374254,-0.13653839,9.785105
351602487224427,0.0843415,-0.14795436,9.805705
351602507080684,0.04528826,-0.14525224,9.816898
351602526925144,0.0039545917,-0.112716645,9.749385
351602546781144,0.03738181,-0.12788236,9.751573
351602566637273,0.06136061,-0.20910025,9.802705
351602586493272,-0.0013719385,-0.18365298,9.852934
351602606349718,-0.024385568,-0.17243722,9.902181
351602626205719,-0.028843401,-0.12714325,9.867318
351602646061718,0.012101065,-0.12800455,9.84009
351602665917718,0.033387247,-0.09543725,9.81845
351602685773719,0.032347277,-0.097439244,9.783899
351602705637112,-0.013919864,-0.12785736,9.756873
351602725493240,-0.0353606,-0.17199308,9.730282
351602745349497,0.016065154,-0.23666461,9.736061
351602765205624,0.091396615,-0.22473058,9.787705
351602785061880,0.12955502,-0.18514553,9.806549
351602804918009,0.054234423,-0.1160416,9.824546
351602824774801,-0.030492438,-0.039488833,9.800203
351602844631057,-0.022061158,-0.047762662,9.7856655
351602864487314,0.016466357,-0.1239944,9.806835
351602884343569,0.033902366,-0.1741657,9.776011
351602904196536,0.02926613,-0.16263998,9.809047
351602924052665,0.054839846,-0.102429,9.811396
351602943908920,0.089086816,-0.16380961,9.805968
351602963765048,0.05489354,-0.10986997,9.799743
351602983621177,1.4041655E-4,-0.11391581,9.795254
351603003465222,-0.030494587,-0.16082065,9.774293
351603023321094,-0.003169312,-0.15294525,9.7803755
351603043177095,0.029670464,-0.13760976,9.769668
351603063032966,0.0553953,-0.15431736,9.760287
351603082888838,0.094329655,-0.091542706,9.778104
351603102744711,0.07016412,-0.10418198,9.780878
351603122592348,0.06478098,-0.16669178,9.770337
351603142447964,0.048792064,-0.12185961,9.773579
351603162303581,0.06672247,-0.123447426,9.794663
351603182159198,0.035893533,-0.17089373,9.805065
351603202012359,-0.0089335395,-0.13613816,9.837912
351603221867976,0.0105020935,-0.11399525,9.841006
351603241723465,0.024140766,-0.14450426,9.801269
351603261579082,0.030359454,-0.14422892,9.765804
351603281434571,0.024462583,-0.16215287,9.753147
351603301290188,-0.015371871,-0.20778893,9.77379
351603321143761,-0.039299186,-0.20507024,9.748912
351603340999250,0.0040047537,-0.13570048,9.764647
351603360854867,0.026085636,-0.1672229,9.812593
351603380710356,0.036213685,-0.2210099,9.800202
351603400565973,0.029155612,-0.12996334,9.799188
351603420422480,0.0366155,-0.14665128,9.838377
351603440277969,0.032884516,-0.15454109,9.84041
351603460133586,0.008717408,-0.09646274,9.832418
351603479989075,0.0037616256,-0.17662258,9.825428
351603499841992,0.045419224,-0.22958313,9.814852
351603519697609,0.038059536,-0.1608596,9.819757
351603539553098,-0.012141541,-0.104625314,9.816082
351603559408587,-0.04826356,-0.10127909,9.79101
351603579264076,-0.017635908,-0.11088366,9.756355
351603599119565,0.030880023,-0.17703758,9.774861
351603618976270,0.06401274,-0.20825751,9.77769
351603638831759,0.038668767,-0.19846816,9.735229
351603658687248,0.011309213,-0.14081839,9.748369
351603678542865,0.02501249,-0.09613967,9.827086
351603698398354,0.02429543,-0.103013426,9.814717
351603718262295,0.0312032,-0.09296787,9.798996
351603738117912,0.07557657,-0.11470872,9.826128
351603757973529,0.067923576,-0.18217906,9.861746
351603777829139,-0.029292127,-0.13313508,9.869343
351603797686506,-0.073085465,-0.07171653,9.807683
351603817542251,-0.013873427,-0.13950734,9.838129
351603837397866,0.052476358,-0.15077794,9.823518
351603857253610,0.053046025,-0.14354026,9.772582
351603877109227,0.05209811,-0.15403217,9.750159
351603896964970,0.050951116,-0.16087615,9.715288
351603916826285,0.05321676,-0.11133371,9.7358
351603936682030,0.048702855,-0.14234349,9.756375
351603956537901,0.06229782,-0.17263797,9.729901
351603976393773,0.05756115,-0.13180727,9.783581
351603996249518,0.027984828,-0.13674203,9.840723
351604016108763,0.025096072,-0.13834788,9.867391
351604035965134,0.03626268,-0.09429712,9.870194
351604055821007,0.0880037,-0.1253618,9.902242
351604075676878,0.13143075,-0.13437878,9.896294
351604095535573,0.12107354,-0.10438801,9.845009
351604115391446,0.109885536,-0.08919766,9.824274
351604135247319,0.12889256,-0.11453075,9.7918625
351604155103192,0.14244655,-0.11071414,9.767981
351604174959193,0.13459262,-0.10131116,9.759743
351604194815066,0.12904216,-0.13728853,9.738592
351604214681473,0.081938185,-0.12694152,9.702706
351604234537602,0.04679209,-0.10315412,9.734117
351604254393731,0.10426074,-0.14765488,9.781717
351604274249860,0.11754328,-0.12547429,9.756772
351604294105989,0.10093037,-0.05314986,9.763947
351604313963648,0.1519804,-0.06886905,9.824753
351604333819905,0.1310694,-0.09450597,9.840493
351604353676162,0.07798131,-0.060188994,9.864124
351604373532419,0.09302736,-0.071823925,9.885935
351604393388676,0.09361987,-0.11613753,9.870304
351604413244933,0.040454723,-0.07913727,9.810736
351604433098702,0.0697698,-0.10379379,9.76579
351604452954959,0.12400392,-0.15767881,9.76538
351604472811216,0.09811986,-0.12881863,9.725519
351604492667473,0.09841287,-0.09195367,9.703958
351604512526728,0.087368324,-0.107939586,9.700418
351604532383113,0.08492646,-0.13684504,9.692731
351604552239476,0.06282953,-0.114925675,9.727218
351604572095861,0.07523256,-0.12605576,9.778171
351604591952246,0.055563364,-0.121964306,9.8086195
351604611806131,0.026553398,-0.08145595,9.854138
351604631662388,0.0244024,-0.10349683,9.881707
351604651518773,0.05598669,-0.13876627,9.895923
351604671375030,0.07777888,-0.12398926,9.874482
351604691231415,0.08252437,-0.124041915,9.877932
351604711087672,0.089102216,-0.11312238,9.840776
351604730947031,0.059518956,-0.09212377,9.777024
351604750803280,0.06866447,-0.10317723,9.761211
351604770659665,0.08093783,-0.13503928,9.739822
351604790516048,0.07600853,-0.158799,9.730125
351604810368223,0.08345417,-0.14774466,9.720145
351604830224608,0.08069491,-0.13576037,9.754574
351604850080863,0.07891253,-0.14326368,9.807236
351604869937247,0.07961771,-0.10551034,9.836214
351604889793504,0.07965727,-0.06780372,9.833662
351604909643717,0.094431534,-0.10863695,9.822696
351604929499845,0.05885058,-0.09503647,9.880684
351604949355974,0.016106043,-0.1106274,9.890295
351604969212101,0.031069962,-0.13118637,9.877655
351604989068357,0.07565216,-0.097899124,9.852599
351605008924486,0.13989693,-0.10890208,9.806322
351605028774311,0.12103039,-0.11971107,9.74765
351605048630311,0.06130006,-0.087102294,9.747285
351605068486312,0.024781464,-0.14916031,9.754901
351605088342439,0.06996861,-0.1450475,9.742336
351605108189321,0.18336257,-0.12121098,9.769294
351605128045066,0.2182301,-0.14419748,9.8015995
351605147900811,0.111336425,-0.10851047,9.792326
351605167756684,0.014297893,-0.05739137,9.776472
351605187612429,0.058861192,-0.053943597,9.798122
351605207468174,0.13233896,-0.09506015,9.822198
351605227318891,0.16495153,-0.14966801,9.780458
351605247174508,0.13170452,-0.13079885,9.804556
351605267030125,0.08034951,-0.071387626,9.859998
351605286885742,0.034414474,-0.102819644,9.87265
351605306741359,0.04170304,-0.06604594,9.884379
351605326596650,0.09404213,-0.08556619,9.869044
351605346452267,0.14123352,-0.14637344,9.849419
351605366308012,0.09112747,-0.09722433,9.784169
351605386163629,0.079847164,-0.106753126,9.72227
351605406014382,0.099342175,-0.14827693,9.710746
351605425869871,0.1426297,-0.12319176,9.728928
351605445725360,0.1797224,-0.16956036,9.74024
351605465580849,0.11202057,-0.13327649,9.716969
351605485436338,0.034945782,-0.034725413,9.814348
351605505291827,0.05713505,-0.07271215,9.840431
351605525149802,0.07983107,-0.0998389,9.8282385
351605545005291,0.061364833,-0.06556088,9.817338
351605564860780,0.055049367,-0.13093406,9.855055
351605584716248,-0.02405043,-0.14496768,9.863585
351605604571865,-0.057021983,-0.07094218,9.792171
351605624424892,0.06262527,-0.13384707,9.811403
351605644280253,0.12935834,-0.16411208,9.809061
351605664135742,0.12619242,-0.15496768,9.762332
351605683991103,0.09924582,-0.074798696,9.751368
351605703857058,0.056610838,-0.058068957,9.762931
351605723712803,0.019958237,-0.09680006,9.730952
351605743568420,0.030118365,-0.06503611,9.737339
351605763424037,0.11751124,-0.14161718,9.773511
351605783279654,0.1177732,-0.16123699,9.760202
351605803135261,-0.0018591722,-0.0657959,9.772337
351605822996278,0.010918701,-0.057754908,9.84899
351605842852151,0.060156144,-0.101312056,9.842387
351605862707894,0.060053498,-0.09011966,9.825911
351605882563766,0.07855542,-0.11144011,9.872978
351605902419639,0.07696141,-0.12607154,9.866998
351605922280049,0.006459624,-0.12223836,9.825856
351605942136049,0.023852136,-0.0825388,9.826595
351605961991922,0.072352044,-0.095855825,9.826519
351605981847793,0.08049112,-0.12794434,9.808514
351606001697833,0.05636778,-0.09146171,9.795125
351606021553578,0.066300705,-0.09629576,9.787281
351606041409321,0.063032284,-0.11011619,9.749785
351606061264759,0.045102093,-0.09213472,9.726857
351606081120504,0.057470266,-0.11550918,9.74603
351606100976247,0.092821166,-0.19530405,9.772792
351606120837460,0.082839556,-0.17077732,9.744278
351606140693333,0.064950645,-0.11471275,9.775708
351606160549204,0.06547457,-0.08995922,9.842978
351606180405076,0.06526848,-0.10173377,9.870669
351606200260949,0.045252554,-0.043868404,9.869122
351606220119478,0.025359714,-0.087886244,9.808923
351606239975350,0.02357684,-0.16035935,9.798566
351606259831351,-0.043459725,-0.076020144,9.825822
351606279687222,0.023171088,-0.10062689,9.82005
351606299543222,0.082995266,-0.12674248,9.781019
351606319399095,0.104094066,-0.1059631,9.778486
351606339254263,0.100361735,-0.14508592,9.779118
351606359110263,0.090358414,-0.14232695,9.773512
351606378966264,0.054260094,-0.09734211,9.790955
351606398822263,0.028540688,-0.10024727,9.821728
351606418682493,0.035227362,-0.09667736,9.819174
351606438538622,0.09854738,-0.11747582,9.810668
351606458394749,0.13123694,-0.1504717,9.825182
351606478250877,0.077898584,-0.122227885,9.82136
351606498106878,0.015339992,-0.065789744,9.784611
351606517960475,0.01563888,-0.08855352,9.787016
351606537816603,0.066991866,-0.13936089,9.807703
351606557672732,0.087490894,-0.15009756,9.784651
351606577528731,0.08148722,-0.127895,9.778639
351606597384859,0.06702935,-0.1128293,9.7688875
351606617240988,0.028146308,-0.07251082,9.772302
351606637094787,0.02586717,-0.10192456,9.794963
351606656950915,0.060734533,-0.11293785,9.81102
351606676806916,0.09629861,-0.12246642,9.800954
351606696662915,0.11486603,-0.12559046,9.831452
351606716523355,0.073558815,-0.057865493,9.832597
351606736379484,0.075247414,-0.06955985,9.849474
351606756235483,0.05062521,-0.07306621,9.833288
351606776091611,0.062128134,-0.06497833,9.801093
351606795947740,0.11019749,-0.101666644,9.799382
351606815798904,0.11684855,-0.10805352,9.793138
351606835654904,0.11983081,-0.064923644,9.751092
351606855510905,0.09294158,-0.058565143,9.741541
351606875367032,0.09013467,-0.089803465,9.75498
351606895223032,0.09360076,-0.10118185,9.808396
351606915079033,0.09361782,-0.106875926,9.812779
351606934930004,0.09485464,-0.101355955,9.808062
351606954785876,0.06904294,-0.058034025,9.829255
351606974641749,0.0691525,-0.048149012,9.847331
351606994497620,0.058722332,-0.07838267,9.835206
351607014343735,0.07325699,-0.09333967,9.815419
351607034199352,0.13786013,-0.12832661,9.815662
351607054054967,0.119050205,-0.08906893,9.826838
351607073910711,0.071389146,-0.076068364,9.833023
351607093766328,0.057823878,-0.08257095,9.822434
351607113619609,0.06509885,-0.07051483,9.783611
351607133475225,0.11362202,-0.10061157,9.776534
351607153330842,0.09087303,-0.0772433,9.781068
351607173186457,0.050349556,-0.09142848,9.752319
351607193041945,0.042670157,-0.11389174,9.7466
351607212897562,0.070465334,-0.08003349,9.759601
351607232731369,0.1347643,-0.118094645,9.759806
351607252586473,0.13361943,-0.106713906,9.782507
351607272441578,0.050265368,-0.06337183,9.807769
351607292296681,0.02942846,-0.09669659,9.833498
351607312153771,0.012056329,-0.08099643,9.848232
351607332008876,0.049500756,-0.078093894,9.841418
351607351864107,0.09786556,-0.10960277,9.825294
351607371719211,0.087892205,-0.095286176,9.799551
351607391574444,0.031477973,-0.05774691,9.795072
351607411429547,0.046671223,-0.08995059,9.777308
351607431288747,0.0971089,-0.1141425,9.763012
351607451143980,0.10184878,-0.08800664,9.781095
351607470999211,0.10294301,-0.09702596,9.803914
351607490854315,0.084216304,-0.10016052,9.794889
351607510709548,0.038454995,-0.039061807,9.772791
351607530568930,0.088941045,-0.07520172,9.783832
351607550424162,0.1412414,-0.11498114,9.801925
351607570279523,0.06735731,-0.09773544,9.821452
351607590134754,0.057954606,-0.053824537,9.829562
351607609988084,0.06530433,-0.06313879,9.805938
351607629843189,0.053123966,-0.07926655,9.819228
351607649698420,0.050726704,-0.10486451,9.8220825
351607669553524,0.06553408,-0.12239127,9.818727
351607689408757,0.08519914,-0.08962415,9.796081
351607709263988,0.0948848,-0.08578254,9.790861
351607729128887,0.084217235,-0.067678265,9.731916
351607748984248,0.102221355,-0.07376235,9.749684
351607768839607,0.11355239,-0.0760726,9.79417
351607788695095,0.10373086,-0.085001186,9.825956
351607808550456,0.10493291,-0.07524723,9.826919
351607828410484,0.07395166,-0.06749076,9.860973
351607848265972,0.03842859,-0.060962647,9.861731
351607868121333,0.056367315,-0.072573215,9.805746
351607887976820,0.072435305,-0.07053878,9.748689
351607907836007,0.099624544,-0.08309688,9.684802
351607927691496,0.10999008,-0.12572965,9.728206
351607947546983,0.06501048,-0.08273721,9.812355
351607967402471,0.08653996,-0.09248662,9.831203
351607987257960,0.068142824,-0.108006656,9.8313675
351608007113447,0.07834552,-0.09516771,9.856971
351608026976420,0.121687904,-0.09977733,9.856357
351608046832165,0.14044763,-0.11030862,9.827887
351608066687908,0.13155045,-0.09702299,9.786745
351608086543524,0.09347574,-0.121820204,9.799828
351608106399269,0.04731835,-0.12736918,9.797191
351608126261216,0.030330239,-0.13116232,9.737262
351608146117088,0.06878485,-0.12457011,9.772628
351608165972833,0.08864643,-0.118033335,9.796672
351608185828704,0.0796225,-0.10384784,9.812847
351608205691890,0.0617463,-0.077789836,9.812348
351608225548019,0.065265186,-0.09818333,9.783081
351608245404018,0.022238204,-0.109250374,9.769529
351608265260018,-0.057475056,-0.08114948,9.7661705
351608285116019,0.0018217535,-0.13531919,9.780633
351608304972018,0.036811523,-0.16774143,9.808136
351608324834680,0.031626653,-0.16711344,9.812906
351608344690937,0.044310816,-0.13606353,9.8485
351608364547320,0.022062762,-0.08840414,9.843679
351608384403576,0.0051407157,-0.08216283,9.800871
351608404259833,0.03778657,-0.054402214,9.793353
351608424119166,0.030615576,-0.08630263,9.804177
351608443975550,0.044999003,-0.16393803,9.778267
351608463831935,0.030098297,-0.11960391,9.74763
351608483688318,-0.008156774,-0.095498614,9.762657
351608503544830,-0.011432892,-0.08915668,9.7571745
351608523401215,-0.004019355,-0.09368827,9.741868
351608543255355,0.012774799,-0.11478845,9.779578
351608563111739,0.0124699315,-0.10032748,9.812589
351608582968252,-0.008839435,-0.04410812,9.808558
351608602824635,-0.027971668,0.018025529,9.829646
351608622684743,-0.036165904,-0.0025735148,9.8030815
351608642541256,-0.030971322,-0.10602495,9.818141
351608662397767,-0.032895304,-0.12896657,9.814782
351608682254279,-0.03723091,-0.12620632,9.818367
351608702110792,-0.034671154,-0.093120545,9.789033
351608721969997,-0.015784472,-0.07042886,9.763682
351608741826637,0.023698622,-0.0987018,9.788248
351608761683278,0.03572195,-0.14032316,9.794011
351608781539917,0.010843185,-0.12292588,9.791888
351608801396557,-0.0067840195,-0.107597515,9.779425
351608821253198,0.01105646,-0.08741865,9.820875
351608841100493,0.047537677,-0.122298256,9.824091
351608860956877,0.054099496,-0.15112734,9.79978
351608880813134,0.030274384,-0.14055456,9.772204
351608900669517,0.0029710606,-0.1250505,9.779703
351608920514610,-0.026543321,-0.10422209,9.795246
351608940370739,-0.024462823,-0.08208413,9.809376
351608960226866,0.024836108,-0.099246025,9.815206
351608980082866,0.04720184,-0.14805163,9.819189
351608999938995,0.053352084,-0.15091349,9.781398
351609019785774,0.03893582,-0.108069986,9.7692585
351609039641646,0.055951487,-0.13677575,9.795339
351609059497647,3.320071E-4,-0.12247752,9.800162
351609079353518,-0.037684526,-0.086563446,9.809886
351609099209518,0.053346556,-0.11868572,9.841666
351609119065391,0.08322173,-0.14549649,9.833692
351609138915697,0.062745325,-0.09921887,9.817098
351609158771569,0.025305362,-0.052745134,9.815695
351609178627314,0.046183717,-0.08422577,9.813029
351609198483057,0.044253733,-0.08549114,9.786475
351609218335924,0.06491242,-0.091172025,9.776165
351609238191541,0.08466444,-0.10692679,9.785034
351609258047284,0.08073895,-0.07635284,9.792654
351609277902900,0.035016105,-0.042160243,9.760071
351609297758645,0.023443675,-0.04518326,9.767281
351609317608244,0.061787196,-0.07203801,9.7778635
351609337463860,0.07128015,-0.09326941,9.798342
351609357319349,0.07417082,-0.10980099,9.827371
351609377174964,0.1046181,-0.10062294,9.834212
351609397030452,0.074907504,-0.056549232,9.85084
351609416886069,0.05280643,-0.03516782,9.881804
351609436743805,0.033849638,-0.04393199,9.840284
351609456599421,0.025878483,-0.08352471,9.813932
351609476454910,0.03678194,-0.07304322,9.836542
351609496310397,0.09936564,-0.09785483,9.814017
351609516159875,0.10113046,-0.072133586,9.754527
351609536015236,0.0708207,-0.054248318,9.75519
351609555870595,0.10236879,-0.07751619,9.799139
351609575725955,0.04949717,-0.074712984,9.793648
351609595581444,0.045663882,-0.037261818,9.773056
351609615436803,0.112757504,-0.04760972,9.796704
351609635279168,0.115987115,-0.07966577,9.830417
351609655134273,0.0802083,-0.0734524,9.829653
351609674989376,0.053283058,-0.017199054,9.837492
351609694844480,0.07405622,-0.036937963,9.8319845
351609714699585,0.06740987,-0.073666744,9.855708
351609734565012,0.06442118,-0.038373698,9.828163
351609754420244,0.13861875,-0.06526331,9.807395
351609774275605,0.16123861,-0.07390511,9.810592
351609794130836,0.09765206,-0.066281,9.783572
351609813991700,0.11267326,-0.064279765,9.7637415
351609833847189,0.09609634,-0.032777213,9.761248
351609853702548,0.115353726,-0.037227783,9.757754
351609873557908,0.14457065,-0.067315914,9.765963
351609893413269,0.14671414,-0.05871784,9.737796
351609913268756,0.114049576,-0.032341268,9.778982
351609933130895,0.06858393,-0.039139815,9.789098
351609952986384,0.06734099,-0.07267722,9.797944
351609972841871,0.065616906,-0.069281206,9.80638
351609992697359,0.082736485,-0.06956735,9.80802
351610012552848,0.119347855,-0.06776046,9.815875
351610032404801,0.08149579,-0.043008763,9.792357
351610052260290,0.037790164,-0.03921369,9.852063
351610072115779,0.06085464,-0.07887859,9.8763685
351610091971136,0.09935577,-0.101459116,9.817747
351610111829550,0.10346119,-0.07543162,9.8237295
351610131685039,0.072335914,-0.063645415,9.832329
351610151538635,0.05986099,-0.066322416,9.760287
351610171394123,0.05834585,-0.014245143,9.741047
351610191249612,0.13154958,-0.06584574,9.748843
351610211104971,0.14194663,-0.11635153,9.77193
351610230976142,0.04517334,-0.08552863,9.795239
351610250832015,0.0103738215,-0.062257394,9.838514
351610270687888,0.035534322,-0.041439686,9.823162
351610290543633,0.04057617,-0.039561823,9.814544
351610310399506,0.085547104,-0.074056864,9.833999
351610330261707,0.08601981,-0.09789253,9.817769
351610350117708,0.06329445,-0.08903474,9.803744
351610369973709,0.033253383,-0.064785734,9.794118
351610389829838,0.07073424,-0.06485307,9.762789
351610409685839,0.09155961,-0.08275592,9.7218275
351610429541840,0.09121529,-0.053427108,9.736001
351610449404039,0.08536532,-0.059377275,9.739268
351610469260296,0.054721072,-0.09148083,9.757604
351610489116553,0.038151573,-0.051779345,9.798486
351610508972810,0.09551056,-0.071437575,9.858363
351610528823245,0.10555381,-0.11349024,9.833117
351610548679374,0.06716497,-0.047457315,9.795102
351610568535503,0.05242407,-0.036611266,9.814795
351610588391632,0.064669,-0.07223968,9.792901
351610608247761,0.05888634,-0.067803696,9.762537
351610628106844,0.12624227,-0.0796492,9.829966
351610647962973,0.10631642,-0.0958106,9.885992
351610667819102,0.03765454,-0.10129645,9.900534
351610687675339,0.045298174,-0.041561052,9.874519
351610707531468,0.08575808,-0.03852127,9.848948
351610727387597,0.10300959,-0.0774741,9.835274
351610747244732,0.074569575,-0.07564168,9.763128
351610767100989,0.08617461,-0.10030399,9.756575
351610786957118,0.10640324,-0.09550147,9.773449
351610806813370,0.1295232,-0.06471404,9.767504
351610826668675,0.11566463,-0.040466987,9.772456
351610846524932,0.108222835,-0.037261978,9.776284
351610866381187,0.087438256,-0.053080946,9.824868
351610886237315,0.007746803,-0.05782395,9.853464
351610906093572,0.030279133,-0.057495926,9.823505
351610925941640,0.07097119,-0.055361733,9.829255
351610945797768,0.103522,-0.07075763,9.843204
351610965653769,0.09293197,-0.07253551,9.816437
351610985509896,0.075212516,-0.060509816,9.803046
351611005365896,0.07764001,-0.05439035,9.809127
351611025222025,0.10808211,-0.069982596,9.80323
351611045075520,0.16160685,-0.04334751,9.810813
351611064931648,0.187191,-0.03066397,9.831539
351611084787777,0.14466521,-0.02491593,9.826768
351611104643776,0.040670108,-0.011298563,9.791962
351611124496114,0.021693723,-0.0036255135,9.766965
351611144352115,0.026100818,-0.029024107,9.7376175
351611164208114,0.037638746,-0.07559667,9.706439
351611184063986,0.06489212,-0.123805165,9.749472
351611203919987,0.10622722,-0.114123456,9.787702
351611223771678,0.11032664,-0.087428994,9.805395
351611243627422,0.056264833,-0.026556946,9.830102
351611263483167,0.05990294,0.0033677325,9.856619
351611283338910,0.04048934,-0.025326326,9.8522625
351611303194654,0.047316212,-0.042015593,9.826993
351611323050399,0.0947486,-0.023001904,9.808637
351611342898895,0.11618393,-0.04668657,9.786779
351611362754511,0.12958871,-0.06549356,9.8028965
351611382610256,0.12478741,-0.026907764,9.811337
351611402465871,0.109666295,-0.04343526,9.789523
351611422318773,0.0859628,-0.041717693,9.770823
351611442174390,0.10712766,-0.0036185924,9.81805
351611462029877,0.16212212,-0.07028525,9.7797575
351611481885493,0.10944045,-0.061886244,9.748288
351611501740982,0.06288775,-0.040719293,9.758473
351611521596597,0.04665412,-0.08931899,9.791906
351611541451813,-0.00244218,-0.10074586,9.845095
351611561307430,0.02163353,-0.059899114,9.834633
351611581163047,0.08563561,-0.06953588,9.85547
351611601018536,0.08668311,-0.059086427,9.838917
351611620874153,0.07859104,-0.05972859,9.81998
351611640723780,0.12400339,-0.083462186,9.804407
351611660579135,0.13857591,-0.10782164,9.79931
351611680434496,0.074626334,-0.083919086,9.793717
351611700289855,0.036636855,-0.0403341,9.802687
351611720151158,0.073216856,-0.047743198,9.807526
351611740006519,0.08340591,-0.08969299,9.772975
351611759862006,0.049009357,-0.059212103,9.781971
351611779717366,0.066363014,-0.05719324,9.792644
351611799572855,0.06195704,-0.064088844,9.798667
351611819428214,0.06399561,-0.027280277,9.800966
351611839282197,0.08552741,-0.046520352,9.813996
351611859137686,0.079709716,-0.08685469,9.800557
351611878993173,0.0028442203,-0.059981376,9.810444
351611898848661,-0.008531079,-0.029490897,9.826966
351611918704022,0.043769356,-0.046487506,9.805044
351611938567624,0.0646484,-0.058535073,9.816345
351611958423240,0.05707208,-0.03320132,9.799112
351611978278857,0.062913395,-0.078669064,9.746386
351611998134474,0.037086852,-0.06604622,9.744064
351612017986199,0.05865461,-0.047288895,9.781518
351612037841688,0.07036928,-0.09148149,9.78894
351612057697303,0.03224168,-0.06047007,9.811297
351612077552791,0.019447519,-0.016418234,9.875
351612097408408,0.0721779,-0.07743778,9.875945
351612117263895,0.036305077,-0.028333914,9.8348465
351612137122804,0.03290448,5.103967E-4,9.8031435
351612156978293,0.103131086,-0.064996816,9.800607
351612176833908,0.04838435,-0.06456998,9.797672
351612196687581,0.003260934,-0.0373877,9.75665
351612216543198,0.068175085,-0.07326282,9.734309
351612236406659,0.063984625,-0.061982006,9.743814
351612256262532,0.036667794,-0.04611167,9.743713
351612276118277,0.069469295,-0.0868472,9.748586
351612295974022,0.10673374,-0.088390484,9.763827
351612315837517,0.08630617,-0.0797976,9.823673
351612335693518,0.038003374,-0.025783459,9.850517
351612355549391,0.021590661,0.01000815,9.861151
351612375405392,0.066174276,-0.051579405,9.877256
351612395261393,0.07748334,-0.08703266,9.880264
351612415117394,0.10989029,-0.096002206,9.872006
351612434975955,0.087705776,-0.061493218,9.822481
351612454832084,0.057638068,-0.037755217,9.814849
351612474688085,0.027375164,-0.05157867,9.807654
351612494544086,0.057760783,-0.06945264,9.742092
351612514400215,0.13499194,-0.074341536,9.724011
351612534254686,0.12231018,-0.071671054,9.711632
351612554110815,0.063730665,-0.06986964,9.709014
351612573966816,0.05468716,-0.0667322,9.751388
351612593822817,0.10582718,-0.06659426,9.799111
351612613678818,0.12624769,-0.08575093,9.841708
351612633534819,0.098185,-0.062238593,9.881086
351612653389600,0.032868046,-0.06079134,9.884367
351612673245580,0.003960961,-0.08533328,9.844123
351612693101581,0.030789498,-0.07117034,9.83025
351612712957582,0.0623351,-0.09383946,9.832554
351612732819995,0.07256239,-0.11493641,9.773733
351612752676252,0.06231474,-0.04798799,9.746183
351612772532376,0.052318476,-0.09043613,9.759183
351612792388504,0.041371252,-0.12164917,9.742074
351612812244633,0.035664037,-0.094976634,9.730764
351612832101742,0.03862552,-0.05758119,9.750642
351612851957998,0.021860834,-0.059650578,9.77152
351612871814255,0.012268449,-0.05325711,9.781633
351612891670510,0.027146572,-0.042623006,9.802256
351612911526766,0.07297819,-0.08908333,9.836777
351612931383023,0.06432856,-0.099482216,9.864305
351612951228014,0.020354755,-0.032623336,9.886168
351612971084014,0.05248569,-0.03350505,9.888834
351612990940015,0.06674344,-0.06867681,9.847776
351613010796014,0.07744118,-0.07353143,9.838419
351613030642172,0.06511993,-0.052251488,9.828772
351613050498045,0.060502928,-0.080618374,9.778877
351613070353788,0.041385174,-0.04739553,9.762168
351613090209532,0.050484814,-0.06207318,9.747187
351613110065405,0.05993597,-0.09274787,9.712696
351613129918729,0.061853368,-0.075367704,9.71077
351613149774473,0.053910814,-0.06949307,9.740707
351613169630218,0.030786827,-0.11467075,9.7652445
351613189485833,0.006655968,-0.021633554,9.825896
351613209341577,0.003394406,-0.06846698,9.8673
351613229197322,0.019439915,-0.11128326,9.873416
351613249053686,0.028853076,-0.038542457,9.861666
351613268909430,0.048025165,-0.035796903,9.83921
351613288765175,0.04606986,-0.090346485,9.831799
351613308620790,0.046529464,-0.08639415,9.746271
351613328474772,0.06399526,-0.11565746,9.679411
351613348330517,0.06461411,-0.09078617,9.819189
351613368186132,0.02094423,-0.080689855,9.917468
351613388041876,0.04683755,-0.1436964,9.83332
351613407897621,0.10771568,-0.008323376,9.791282
351613427746306,0.100180365,-0.05624386,9.789908
351613447601795,-0.005152767,-0.113872565,9.767986
351613467457284,-0.05544888,0.0378194,9.76291
351613487312770,0.049428556,-0.05470918,9.815431
351613507168258,0.12713465,-0.21105546,9.856386
351613527023747,0.09770176,-0.10444548,9.817727
351613546883574,0.060877547,-0.044538733,9.799167
351613566739190,0.02701602,-0.015775686,9.791262
351613586594807,8.708883E-4,-0.004971229,9.785165
351613606450294,0.04449449,-0.08755189,9.797569
351613626300412,0.13668796,-0.14639771,9.8197155
351613646155901,0.13297677,-0.12122795,9.800985
351613666011260,0.057896182,-0.0763445,9.775797
351613685866620,0.0154164275,-0.010564609,9.756693
351613705721981,0.02339946,-0.040074922,9.743129
351613725577342,0.069519676,-0.14451143,9.808883
351613745438171,0.06479098,-0.13481371,9.814603
351613765293660,0.01761453,-0.08872269,9.835845
351613785149149,0.03742103,-0.028694514,9.838695
351613805004632,0.011739652,-0.016135758,9.795704
351613824860121,0.0054825107,-0.06556668,9.770678
351613844713336,0.015332762,-0.11568598,9.790881
351613864568696,0.03355612,-0.14377713,9.767364
351613884424185,0.037159614,-0.10985546,9.768243
351613904279544,0.0056543355,-0.05458054,9.796903
351613924145437,-0.0149178505,-0.057655692,9.807783
351613944001054,-0.016006367,-0.097411744,9.810464
351613963856669,-0.020065166,-0.06770181,9.823588
351613983712413,-0.00918509,-0.04006993,9.814734
351614003568030,-0.0074659325,-0.03749645,9.795229
351614023423645,0.025260229,-0.023213914,9.796727
351614043283254,0.0515634,-0.090570435,9.7992935
351614063138999,0.051544625,-0.09686552,9.765584
351614082994870,0.03598995,-0.091160834,9.75341
351614102850615,-0.012900674,-0.091434374,9.783062
351614122706360,-0.07857137,-0.073564194,9.804944
351614142567241,-0.039332226,-0.01803775,9.826242
351614162423111,0.0074564046,-0.04720337,9.838701
351614182278984,0.04558169,-0.12647258,9.837766
351614202134855,0.05024214,-0.13829938,9.82394
351614221995715,0.03490625,-0.10822905,9.815195
351614241851716,0.022208652,-0.08736961,9.812755
351614261707715,0.014528482,-0.068147235,9.841
351614281563715,0.038963594,-0.07272342,9.848805
351614301419716,0.05372541,-0.122938015,9.828006
351614321275715,0.047739234,-0.15817265,9.779433
351614341129184,0.07619352,-0.06808959,9.759101
351614360985185,0.028628096,-0.056323435,9.753024
351614380841314,0.030457228,-0.07688157,9.728165
351614400697315,0.054710153,-0.116689466,9.753869
351614420553444,0.07172625,-0.14219901,9.843133
351614440414833,0.048161212,-0.06790199,9.863716
351614460270962,0.002400397,-0.033842213,9.8536415
351614480127219,0.008179538,-0.007517741,9.845219
351614499983348,0.017893385,-0.07533233,9.853097
351614519837593,0.036064554,-0.1268137,9.836785
351614539693722,0.041187104,-0.08648617,9.817195
351614559549979,0.025228867,-0.08764671,9.799213
351614579406108,0.021522123,-0.083716996,9.77354
351614599262237,0.017759558,-0.08542723,9.733605
351614619118494,0.02898094,-0.1061769,9.737745
351614638972613,0.034821045,-0.12553726,9.735726
351614658828614,0.014764929,-0.0898604,9.733359
351614678684743,-8.7709783E-4,-0.07659664,9.731391
351614698540872,-0.007109882,-0.044107445,9.827973
351614718396873,0.020304434,-0.093284115,9.867429
351614738257456,0.021730388,-0.09023127,9.865009
351614758113565,0.014570247,-0.042041227,9.876547
351614777969822,0.010422108,-0.0621689,9.870044
351614797825949,-0.009149039,-0.07317499,9.89626
351614817682077,-0.0032455397,-0.042046305,9.870667
351614837538334,0.0015942873,-0.09696064,9.822042
351614857391243,0.020602817,-0.11043655,9.785159
351614877247499,0.022947485,-0.063062705,9.747981
351614897103628,0.020096632,-0.09747137,9.671446
351614916959755,0.023125514,-0.093437135,9.696211
351614936805224,-0.005266706,-0.09435135,9.734601
351614956661097,0.018316312,-0.112204276,9.755683
351614976517098,0.05290627,-0.074699774,9.797455
351614996372971,0.06953242,-0.069592886,9.852293
351615016228972,0.027588688,-0.07415471,9.892631
351615036070260,-0.016368458,-0.015493255,9.893801
351615055925876,0.007233793,-0.036428936,9.873786
351615075781621,0.040467102,-0.09967513,9.897748
351615095637236,0.032320827,-0.086988695,9.860751
351615115492852,0.009965568,-0.07977836,9.823584
351615135348469,-0.0032450815,-0.08330508,9.79392
351615155200372,0.022589127,-0.09684819,9.756231
351615175055860,0.040398944,-0.07968386,9.739256
351615194911477,0.051130198,-0.10277404,9.721018
351615214766964,0.062341124,-0.119155854,9.719369
351615234623050,0.056408867,-0.11492087,9.742309
351615254478539,0.06732206,-0.104429856,9.756284
351615274334026,0.06827038,-0.07737911,9.763265
351615294189515,0.030272493,-0.05689182,9.812877
351615314045004,-0.00778148,-0.07395642,9.8541355
351615333894983,0.0015141286,-0.113428116,9.857784
351615353750472,0.046758257,-0.102410085,9.860138
351615373605833,0.073948644,-0.061441477,9.864623
351615393461194,0.03593915,-0.08698273,9.84236
351615413316555,0.029371982,-0.040479552,9.789917
351615433171916,0.05828226,-0.06127842,9.772666
351615453028679,0.06273962,-0.14770363,9.786912
351615472884040,0.06703788,-0.12373809,9.804124
351615492739273,0.07479681,-0.049161598,9.817655
351615512594634,0.062361807,-0.036454562,9.821731
351615532448075,0.047957946,-0.014386203,9.790602
351615552303436,0.045888994,-0.03983695,9.786231
351615572158669,0.07544745,-0.117980175,9.783676
351615592014030,0.101539955,-0.14169742,9.778191
351615611869263,0.07676825,-0.06999715,9.804183
351615631724496,0.03371175,-0.0077795666,9.816619
351615651575281,0.0041099945,-0.016088739,9.822584
351615671430386,0.024240177,-0.047907434,9.818536
351615691285619,0.057831213,-0.08837932,9.837506
351615711140724,0.046688337,-0.08532423,9.864361
351615730995957,0.026600966,-0.050508402,9.8535595
351615750840713,0.018960286,-0.018381879,9.835047
351615770695689,0.024365341,0.0081810355,9.800917
351615790550666,0.07005894,-0.071275756,9.735224
351615810405641,0.06652454,-0.10367021,9.705716
351615830267023,0.035014477,-0.08547454,9.744742
351615850122128,0.02422735,-0.075746134,9.771436
351615869977231,0.020466393,-0.068696946,9.775082
351615889832335,0.05433231,-0.03490663,9.7862835
351615909687440,0.06505588,-0.06300332,9.789938
351615929542543,0.018072631,-0.0829316,9.801336
351615949390315,0.024103759,0.0011611092,9.805506
351615969245164,0.028608453,-0.05402686,9.82459
351615989100011,0.040305067,-0.07740946,9.77479
351616008954987,0.060280126,-0.057063323,9.677302
351616028809836,0.02099173,-0.0017888452,9.758567
351616048674113,-0.03064804,0.0031287195,9.9627495
351616068529217,-0.0603917,-0.071690656,9.997437
351616088384322,0.047093756,-0.06522029,9.9395275
351616108239425,0.18696354,-0.0648394,9.86457
351616128092406,0.072095305,-0.11827916,9.821098
351616147947511,-0.05144411,0.008160176,9.709653
351616167802744,-0.055764217,0.121448845,9.678216
351616187657849,-0.0010071304,-0.072901905,9.72298
351616207513082,0.062439002,-0.19254151,9.796755
351616227368187,0.08415231,-0.11520647,9.820844
351616247235806,0.029011732,-0.02207533,9.798014
351616267091295,-0.023999635,0.043275617,9.766011
351616286946784,-0.061565287,0.06808866,9.75093
351616306802145,0.017459048,-0.068250224,9.797601
351616326657634,0.096310414,-0.22759084,9.85136
351616346523243,0.106818944,-0.17144734,9.877623
351616366378860,0.037588965,-0.021087186,9.878309
351616386234605,-0.037911773,0.06044659,9.832722
351616406090350,-0.012850102,0.017095745,9.79786
351616425951527,0.0397165,-0.09875319,9.8076
351616445807400,0.0721933,-0.18468991,9.812762
351616465663273,0.03822603,-0.11826304,9.794427
351616485519146,0.02746142,-0.011883446,9.757405
351616505375019,0.021421852,0.018528905,9.748319
351616525230892,0.01573361,-0.053033754,9.7417345
351616545089513,0.036151905,-0.114016704,9.724802
351616564945514,0.07611886,-0.14612035,9.765647
351616584801387,0.06539944,-0.11765064,9.827021
351616604657367,0.037306245,-0.04981003,9.899184
351616624513240,0.0111918105,2.590693E-4,9.925097
351616644368973,0.012245543,0.012318697,9.934513
351616664224846,0.018199017,-0.01063096,9.934608
351616684080719,0.03016521,-0.03428771,9.869743
351616703936592,0.027051726,-0.06666777,9.789717
351616723792593,0.02959824,-0.06001041,9.728508
351616743648466,0.060815286,-0.08940174,9.668226
351616763512139,0.08607276,-0.12042236,9.648472
351616783368139,0.07109059,-0.100960344,9.655627
351616803224268,0.055064704,-0.11664417,9.711762
351616823080267,0.036539804,-0.07906365,9.767953
351616842939560,0.03733964,-0.03221285,9.823548
351616862795817,0.07325853,-0.069884315,9.886764
351616882651944,0.03783737,-0.01954354,9.907368
351616902508200,0.0045388797,-0.008930506,9.919365
351616922364457,-0.008987501,-0.050232697,9.901489
351616942216196,0.0516245,-0.046929944,9.868614
351616962072325,0.107314475,-0.06800379,9.856194
351616981928454,0.12889409,-0.08340023,9.816513
351617001784580,0.14288352,-0.06386892,9.783295
351617021640708,0.120180786,-0.0760768,9.747625
351617041496837,0.08165915,-0.05821743,9.72469
351617061350112,0.09122867,-0.04594581,9.747172
351617081206240,0.10394281,-0.047290232,9.767009
351617101062497,0.07353384,-0.03650989,9.765264
351617120918624,0.04344955,-0.0057652155,9.781254
351617140771499,0.058774445,-0.042570844,9.815648
351617160627628,0.055143964,-0.030920727,9.827392
351617180483755,0.06394588,-0.018889122,9.829696
351617200339883,0.04812996,-0.024471544,9.848184
351617220196012,0.03035098,-0.0071212114,9.851031
351617240049759,0.016774407,-0.04312463,9.824482
351617259905760,0.034088243,-0.06830907,9.846324
351617279761889,0.049478646,-0.022040932,9.811576
351617299618018,0.046151213,-0.057110235,9.762747
351617319474147,0.019302782,-0.034062035,9.78303
351617339330148,0.032035645,-0.02438212,9.77333
351617359174505,0.01557635,-0.062291093,9.736363
351617379030250,0.0074387616,-0.010704169,9.760014
351617398885995,0.015174862,-0.06673989,9.760965
351617418741740,0.05302578,-0.10285114,9.76811
351617438594211,0.058367528,0.016726775,9.743656
351617458449956,0.08438611,-0.052154336,9.78595
351617478305573,0.011405273,-0.06506481,9.823924
351617498161318,-0.045127645,1.9768416E-4,9.816617
351617518017063,0.009518308,-0.017695995,9.819635
351617537872680,0.058202676,-0.07213482,9.846959
351617557719763,0.04035996,-0.058169715,9.849892
351617577575252,0.021822495,-0.049399994,9.84791
351617597430613,0.043270346,-0.028794972,9.80792
351617617286102,0.054865286,-0.036719106,9.771471
351617637141463,0.03474949,-0.027741129,9.776497
351617657002060,0.05764085,-0.057447735,9.757977
351617676857529,0.08122671,-0.09812218,9.733363
351617696713018,0.067632325,-0.059157908,9.777271
351617716568507,0.04000679,-0.025161276,9.818369
351617736422496,0.014891021,-0.03503438,9.830588
351617756277985,0.046841323,-0.032641206,9.830127
351617776133346,0.059518542,-0.03651048,9.879812
351617795988830,0.04563971,-0.061538517,9.895375
351617815844191,0.041095126,-0.048114263,9.861676
351617835699678,0.053734142,-0.027862238,9.838868
351617855552308,0.055906687,-0.04842864,9.8153925
351617875407797,0.03504944,-0.05953372,9.789084
351617895263156,0.052334957,-0.06241708,9.768719
351617915118516,0.067868836,-0.100068115,9.732135
351617934973877,0.03764062,-0.0688351,9.701781
351617954836113,0.057213128,-0.052966785,9.744674
351617974691601,0.05215254,-0.06590094,9.77347
351617994547218,0.041900348,-0.09825744,9.738257
351618014402705,0.022645717,-0.050672196,9.76607
351618034256110,0.022339707,-0.033491395,9.83909
351618054111599,0.021778002,-0.074254185,9.835481
351618073967088,0.038424935,-0.039694548,9.820819
351618093822577,0.076173276,-0.04154853,9.807274
351618113678066,0.03987066,-0.07655984,9.839634
351618133533421,-0.022698775,-0.015127104,9.838275
351618153392073,-0.005777611,-0.005933454,9.824651
351618173247562,0.053423177,-0.059587404,9.815331
351618193103049,0.043815326,-0.049613986,9.800399
351618212958537,0.04729583,-0.043388993,9.773784
351618232814026,0.06615898,-0.06498252,9.74928
351618252667431,0.06623435,-0.069059625,9.756027
351618272522919,0.048947114,-0.0556015,9.758942
351618292378408,0.07843664,-0.045784827,9.804673
351618312233895,0.10898588,-0.037466604,9.823302
351618332086462,0.07836177,-0.05381841,9.831256
351618351941951,0.051929288,-0.008519964,9.845916
351618371797798,0.028301675,0.009162245,9.844932
351618391653415,0.036161322,-0.012294291,9.876883
351618411508904,0.054255206,-0.031461176,9.879128
351618431364521,0.04795702,-0.038133916,9.875479
351618451230286,0.04001161,-0.02156428,9.851039
351618471086159,0.04827782,-0.017083084,9.838012
351618490941904,0.03305706,-0.037643943,9.810713
351618510797649,0.030848982,-0.04071807,9.820144
351618530653522,0.054128375,-0.05944689,9.845646
351618550509907,0.059558075,-0.07224467,9.881675
351618570365780,0.05696082,-8.574663E-4,9.886089
351618590221525,0.06411901,-0.0135092,9.929871
351618610077398,0.039243296,-0.07644544,9.955841
351618629933143,0.04512063,-0.047809716,9.956212
351618649789016,0.0596898,-0.055157084,9.952362
351618669645589,0.04472736,-0.03824782,9.997558
351618689501334,0.030546606,-0.029564124,9.922859
351618709357207,0.059879232,-0.035987735,9.907559
351618729212952,0.09415361,-0.021134598,9.934416
351618749066297,0.017815722,-0.086880766,10.049613
351618768922042,-0.033234596,-0.06704823,10.162741
351618788777915,0.055474173,-0.02591678,10.159206
351618808633639,0.09313051,-0.012726707,10.101109
351618828489384,0.06221916,-0.030759381,10.069998
351618848350089,-0.020213919,0.005254764,10.03371
351618868205961,0.0036688054,-0.0039051485,10.012346
351618888061834,0.091963336,-0.09434129,10.01304
351618907917705,0.11840855,-0.12578389,10.058944
351618927773577,0.091163374,-0.0806105,10.109777
351618947629450,0.07835753,0.013121947,10.100895
351618967477861,0.08094318,0.011391721,10.093883
351618987333605,0.055429455,-0.056500256,10.141826
351619007189350,0.0631634,-0.08900139,10.15567
351619027044967,0.09385258,-0.08016998,10.215604
351619046889254,0.046321295,-0.015443738,10.242464
351619066744743,-0.010937285,-0.0264256,10.211382
351619086600232,-0.029427867,-0.041569497,10.208534
351619106455716,0.039155528,-0.083544046,10.213862
351619126311205,0.06885599,-0.15171812,10.225085
351619146166692,0.05756974,-0.113542035,10.206774
351619166024690,0.07536785,-0.042747978,10.25653
351619185880179,0.060962237,-0.042638905,10.273091
351619205735666,0.018426811,-0.089768,10.239793
351619225591154,0.011480725,-0.117749736,10.247468
351619245446643,0.06190614,-0.086335935,10.290223
351619265299412,0.039426323,-0.08334887,10.328555
351619285154900,-0.0081643015,-0.033576198,10.277752
351619305010389,-0.0066443975,0.002315322,10.336807
351619324865876,0.021316811,-0.050169326,10.424442
351619344720138,-0.0125175,-0.09499833,10.428893
351619364575499,0.02308144,-0.05169875,10.399443
351619384430988,0.03352095,-0.020796914,10.415422
351619404286477,-0.01628779,-0.041985046,10.439756
351619424141838,0.02092777,0.0068558194,10.365872
351619443997327,0.0538272,0.009531608,10.349975
351619463848586,0.07147597,-0.05566396,10.370112
351619483703947,0.05204672,-0.031583313,10.358854
351619503559180,0.055180047,0.030077964,10.316181
351619523414541,0.07718376,0.013962617,10.322202
351619543269902,0.046010632,0.0018438194,10.354154
351619563128001,0.017154215,-0.021676503,10.3337755
351619582983362,0.034883473,-0.0227571,10.359459
351619602838723,0.052818064,0.0032550374,10.374974
351619622694212,0.0011711171,-0.016950453,10.408658
351619642548519,-0.00448587,0.021796733,10.403473
351619662403880,0.04138248,0.025115335,10.404782
351619682259241,0.04561228,-0.028143527,10.391581
351619702114602,0.008505461,-0.010708772,10.411899
351619721969963,-0.020945283,-0.009294987,10.428044
351619741825324,0.003812981,-0.038749594,10.384477
351619761680854,0.054013852,-0.022883069,10.373049
351619781536215,0.031968538,0.0017131844,10.412752
351619801391446,-0.008971511,-0.02554634,10.381069
351619821246806,0.00803682,-0.034775507,10.353701
351619841102167,0.0030718863,-0.09674846,10.344379
351619860959388,-0.043991867,-0.101767495,10.351646
351619880814748,-0.06077736,-0.039999075,10.354858
351619900670109,-0.049592555,-0.0013228462,10.389352
351619920525340,-0.010005348,-0.042909753,10.417604
351619940387691,-0.029418936,-0.045193832,10.378063
351619960243180,-0.05482233,-0.06658101,10.395292
351619980098539,-0.059781246,-0.027224481,10.450547
351619999953900,-0.055005778,-0.045035716,10.4290285
351620019809389,-0.0038449233,-0.043753307,10.394537
351620039664750,0.03704539,-0.09037178,10.412876
351620059480587,0.042839594,-0.06360041,10.462379
351620079335308,0.03629196,0.009867993,10.440098
351620099190027,0.04673563,-0.018208552,10.43893
351620119044747,0.03272943,-0.10037808,10.462825
351620138899340,0.073479645,-0.12061656,10.3920555
351620158763306,0.11898847,-0.15904817,10.361724
351620178618154,0.13866961,-0.048603177,10.399614
351620198473003,0.07442956,-0.014493639,10.383067
351620218327850,0.040176023,-0.08371269,10.392805
351620238182698,0.054706857,-0.11429509,10.400184
351620258037547,0.09545399,-0.113783106,10.393622
351620277904268,0.08654377,-0.026408773,10.4298525
351620297759372,0.0021083863,-0.0128795635,10.443354
351620317614477,-0.04497234,-0.020336945,10.435825
351620337469582,0.028215643,-0.046062674,10.466103
351620357338503,0.07766451,-0.08799887,10.442988
351620377193864,0.07009118,-0.07338694,10.425589
351620397049225,0.024733413,-0.057629623,10.397244
351620416904586,0.06962861,-0.09542811,10.434313
351620436759947,0.15776765,-0.07058467,10.45967
351620456633026,0.1305072,-0.07213762,10.416825
351620476488771,0.078082375,-0.071828395,10.407596
351620496344516,0.039228097,-0.02487888,10.366351
351620516200261,-0.020004358,-0.07981099,10.36908
351620536056006,0.057381965,-0.057972796,10.46846
351620555911879,0.08710549,-0.15423271,10.407653
351620575773666,-0.015261892,-0.21088652,10.322213
351620595629539,-0.011398417,-0.06244199,10.367392
351620615485412,0.098358214,-0.04169412,10.50847
351620635341285,0.18770607,-0.16958635,10.426137
351620655199312,0.052765865,-0.10024619,10.465299
351620675055185,0.052171938,0.055477276,10.368859
351620694911058,0.11463103,-0.22476102,10.457761
351620714766931,-0.08382091,0.022196611,10.549771
351620734622804,-0.15378527,-0.014433982,10.33254
351620754475132,-0.022023536,-0.14454058,10.344551
351620774331004,0.018670544,0.10600949,10.459921
351620794187005,-0.04849196,-0.025830708,10.366259
351620814042876,-0.017818538,-0.3577526,10.308293
351620833898748,-0.06152718,-0.026726337,10.339668
351620853754621,-0.045418102,0.13613836,10.378256
351620873610218,0.08247861,-0.10016225,10.395569
351620893466090,0.08533603,0.10714694,10.395953
351620913321963,0.15507269,0.15215182,10.366034
351620933177834,0.15729094,-0.10079976,10.3072605
351620953037522,0.15205283,-0.07839165,10.346007
351620972893523,0.044232335,-0.010235945,10.383382
351620992749524,0.058824457,-0.025391709,10.333096
351621012605525,0.15672064,-0.018237585,10.315773
351621032461526,0.18255171,0.122029625,10.398485
351621052317527,0.19066535,-0.08208058,10.305738
351621072168879,0.102124006,-0.20827278,10.191336
351621092024752,0.113656566,0.08127386,10.194828
351621111880751,-0.0073401695,0.040158216,10.272176
351621131736623,-0.17090625,0.043147612,10.204666
351621151592624,-0.13290557,0.078899585,10.194961
351621171448075,0.0820261,0.17739692,10.253334
351621191304075,0.2685168,0.06332293,10.228628
351621211160076,0.22619483,-0.023686934,10.174546
351621231015947,0.4403682,-0.08670537,10.328996
351621250867022,0.4193283,-0.4279839,10.062048
351621270722895,-0.11835061,-0.7358095,9.897488
351621290578766,-0.53755677,-0.17892411,10.148764
351621310434638,-0.59842813,0.52504057,10.233673
351621330290511,-0.32541466,0.54441303,10.25872
351621350146510,-0.047427822,0.19204491,10.214309
351621370004995,-0.029573284,0.12577078,10.285295
351621389860996,-0.14950266,0.30652472,10.205655
351621409716867,-0.2403677,0.39558685,9.97808
351621429572867,-0.20054066,0.1222322,10.028029
351621449428868,0.27570215,-0.15076493,10.258141
351621469290409,0.7375749,-0.2713077,10.298292
351621489146537,0.7634651,-0.047812704,10.4020195
351621509002666,0.62451947,0.061786015,10.010484
351621528858793,-0.13716774,-0.03014644,9.826246
351621548718036,-0.122963965,-0.22233455,10.178367
351621568574421,-0.08644246,-0.4804768,10.05165
351621588430676,-0.26811594,-0.30955207,9.97789
351621608287060,-0.13164733,-0.014512715,9.944904
351621628143445,-0.07925054,-0.044114858,9.708699
351621647999700,-0.5285401,-0.76787436,9.487162
351621667831443,-0.10981044,-1.4611624,10.096568
351621687686804,0.85120547,-0.51177883,10.321237
351621707542291,0.2877956,0.24780974,10.09551
351621727397779,0.25267342,0.2610511,9.93473
351621747253268,0.7346442,-0.013359998,9.945812
351621767104619,0.45697644,-0.06965287,9.952131
351621786959979,-0.08474712,-0.2791744,9.915791
351621806815340,0.13670743,-0.21900868,10.200114
351621826670699,0.32122478,0.035268433,10.09053
351621846525719,0.03413226,0.11010269,9.880858
351621866381080,0.7649076,0.28861603,10.278824
351621886236311,0.75339246,-0.25548238,10.087241
351621906091671,0.32077858,-0.23089735,9.93591
351621925946904,0.418896,0.4656443,10.053558
351621945802263,-0.32259056,0.33073476,9.678243
351621965663415,-0.9631339,0.89169306,9.877472
351621985518904,-0.93719155,1.2883238,9.623653
351622005374391,-0.83684254,0.6641207,8.765396
351622025229751,-0.0737188,0.7043276,9.005907
351622045085240,1.4472221,0.0013609595,10.02255
351622064940569,3.963062,-2.016312,9.446799
351622084796057,1.3446988,-1.914024,9.480911
351622104651546,-0.53558344,1.0133656,10.164269
351622124507033,1.1107583,0.63375354,10.224217
351622144362649,4.195484,-1.4279803,10.722869
351622164218138,3.767544,-0.14733414,11.082536
351622184073845,-1.5420555,6.215011,11.237222
351622203929461,-0.9671315,8.174911,13.008528
351622223784950,-1.0547271,2.3905551,10.885531
351622243640565,0.07263135,-1.9931341,7.867691
351622263500868,-0.11100996,-2.4822974,8.553807
351622283356485,-5.8557777,-3.4312015,7.686356
351622303212228,-6.229721,-3.0542371,7.9006395
351622323067844,-2.2207649,-2.1732657,9.191735
351622342923589,-0.02137795,-0.7839348,9.641266
351622362781063,2.9590635,0.9274707,9.167993
351622382636679,-0.3357153,-0.2141168,9.543908
351622402492424,-1.6378766,0.35171923,10.363019
351622422348039,-2.9399886,0.9870446,11.133034
351622442203655,3.6072314,1.0539545,9.242056
351622462059400,6.882559,1.0113667,9.388111
351622481920757,-1.4304566,3.3137565,12.575076
351622501776501,1.60054,3.1916194,12.182063
351622521632246,1.9065137,0.48379138,12.978823
351622541488117,1.1070236,-0.6181649,15.103378
351622561341476,1.151079,-0.52024275,16.455585
351622581197349,2.3069694,0.3340118,13.673615
351622601053092,1.1223639,2.0426273,12.13776
351622620908836,0.3676069,0.67895305,12.407715
351622640764709,-1.1393238,-0.85333174,11.318017
351622660621409,0.4607513,-1.6551236,10.75665
351622680477153,1.5220858,0.32363212,9.7818575
351622700332898,-0.4140643,1.6072462,8.219539
351622720188641,-0.23320262,3.8693886,7.478175
351622740044385,2.5312653,6.8985095,7.777146
351622759900258,-1.334855,-0.46175027,14.428645
351622779751661,0.63175964,3.0943897,8.901434
351622799604170,-0.8308956,2.228682,9.879799
351622819459915,-0.7472282,-1.0538241,11.075204
351622839315658,-0.18719104,-0.8393394,9.850929
351622859167324,-0.75526094,-1.0673616,11.302593
351622879022941,-2.7284482,-1.6698596,11.062055
351622898878428,-1.821668,-2.069133,10.358978
351622918734044,-2.2127786,-1.2403079,10.899823
351622938589533,-4.667416,0.59070456,11.819571
351622958443350,-3.8963008,0.6106203,11.080543
351622978298838,-2.9877288,0.020796167,10.133195
351622998154455,-3.570989,-0.24166314,10.029735
351623018009942,-3.7374191,-0.31099197,9.302899
351623037865430,-3.460148,0.24584372,8.062144
351623057721047,-3.7272084,0.053863004,7.3880844
351623077576888,3.1423297,0.102938406,7.876311
351623097432504,1.5046686,1.1767231,7.7915196
351623117288121,0.7136468,1.2731675,7.134353
351623137143736,0.43439448,0.76232624,6.7021413
351623156997261,0.2064461,-0.78478837,6.74604
351623176852878,0.33771783,-1.0199051,7.0450597
351623196708365,-0.29682657,-1.6776618,7.6683207
351623216563981,-1.9486322,-0.9718634,7.6436086
351623236419470,-1.3221009,-0.85291314,7.9730086
351623256275085,-4.0888863,-4.129516,10.568357
351623276125453,-6.0417056,5.1137424,4.072587
351623295980814,-2.175128,1.7091951,7.1847715
351623315836301,1.6137297,-2.178423,7.2944984
351623335691789,7.726181,-4.1986394,9.536223
351623355547278,8.462831,-4.922913,11.431745
351623375400534,0.963947,-2.86756,10.375549
351623395255894,-0.1565705,-2.2142894,10.558554
351623415111255,1.0181442,-0.68578565,11.664629
351623434966614,1.7150334,2.1642015,12.681163
351623454826861,1.2760249,2.6466932,11.327839
351623474682350,-0.36359924,1.5809634,10.225996
351623494537837,-0.3988519,1.9508395,9.191306
351623514393197,1.889489,1.491269,8.336544
351623534248686,2.521651,2.4617877,7.743344
351623554104173,1.5897657,-3.3533099,7.806094
351623573958888,1.0248487,-4.952189,7.927782
351623593814377,1.1136146,-4.8874164,7.8870716
351623613669864,2.0372965,-2.3081198,8.104575
351623633525352,2.1495478,-0.5940196,8.414912
351623653380713,1.4882578,0.695393,8.953442
351623673235086,1.8251824,0.2998126,8.580605
351623693090446,2.2338076,-0.19368738,8.325426
351623712945807,0.17829803,0.6845039,9.580758
351623732801166,0.20741214,-0.4369335,11.105531
351623752652077,0.9403275,-1.8320091,10.26263
351623772507310,1.872256,-1.5985761,8.964081
351623792362543,1.7186655,-0.94537014,9.623981
351623812217776,1.2006137,-0.43911207,10.214492
351623832073137,-0.3096333,0.437118,10.515265
351623851928365,1.1645544,-0.5853565,9.642512
351623871783018,0.01961509,1.4628316,8.747733
351623891638251,-3.499936,2.8552077,12.052307
351623911493482,0.5982209,-2.0151055,9.911816
351623931348714,1.6548032,-1.1010474,10.300485
351623951203947,0.718328,0.92098165,10.104399
351623971062847,-0.03243714,-0.25460213,9.926748
351623990918079,0.64597636,-0.25118858,8.410354
351624010773440,0.82415676,-0.17383526,10.355062
351624030628799,-0.7154318,-1.5219003,11.851266
351624050490053,-1.0350993,-1.3722923,11.289559
351624070345542,0.57423764,1.133126,9.577082
351624090201029,0.9592781,2.2637553,7.6502886
351624110056517,0.8014922,2.3857484,7.689649
351624129912006,0.8811926,2.249412,7.9256663
351624149767493,0.93664604,0.51634914,9.1140585
351624169620025,0.7683091,-0.89930815,10.145087
351624189475514,0.57038313,0.7910406,8.510373
351624209330873,1.1212428,0.78794545,8.204364
351624229186361,-3.354336,0.9206139,12.768642
351624249041722,-3.2337701,-0.7956009,13.740218
351624268896898,-1.3790218,1.3223559,10.105388
351624288752386,-0.892777,1.6977091,10.96017
351624308607875,-1.0275186,1.6928208,9.669089
351624328463362,0.50302005,0.5509034,8.4585905
351624348318722,1.7018788,-0.87418276,7.5303745
351624368174211,3.095104,-1.9560124,6.179547
351624388034890,2.5512846,-0.3702984,5.2429414
351624407890378,-0.17977501,1.5092958,7.36592
351624427745995,-2.3734946,0.8076925,10.104741
351624447601482,-2.1546402,-0.087494135,12.337601
351624467458367,0.92570895,-1.5970626,13.408044
351624487313984,3.2145157,-3.104073,12.597323
351624507169599,2.658722,-2.1076818,11.306259
351624527025215,1.0420892,-0.57305515,10.921524
351624546880704,0.10827306,0.0012691482,10.992766
351624566730693,0.6274981,-0.22997437,10.413065
351624586586181,0.87107515,-0.111720376,9.751972
351624606441670,1.317368,-0.42278382,10.062061
351624626297157,0.7728401,0.12126931,10.693343
351624646152517,-0.92548096,1.2549872,8.661447
351624666008006,-2.016427,2.217381,6.537518
351624685855996,-1.3106269,1.4549131,7.7402425
351624705711356,0.5079918,-0.32399234,10.217167
351624725566717,1.3945252,-0.47362766,11.498561
351624745422076,1.3314981,-0.04984116,11.22843
351624765278561,1.0776036,-0.01829601,9.818211
351624785133922,0.16665564,0.4530321,9.266201
351624804989281,0.019071775,0.6295132,9.322994
351624824847958,0.63281107,0.29731905,9.430193
351624844703319,1.0062863,-0.03872275,9.96454
351624864554730,1.2516457,-0.1945868,10.259284
351624884409962,1.1920234,-0.30501062,10.037398
351624904265195,0.6983333,-0.05836113,9.62013
351624924120426,0.33113247,0.19162324,9.224719
351624943975658,0.0059182653,0.19500403,9.313519
351624963830891,0.129046,-0.09528818,9.888063
351624983684202,0.648145,-0.62822336,10.771304
351625003539306,1.0704451,-0.9025694,10.675536
351625023394539,1.0117021,-0.6604008,10.104815
351625043249642,0.64341235,-0.13593726,9.766418
351625063104691,0.4511731,0.17350937,9.619754
351625082959924,0.76274633,0.107575744,9.564555
351625102815027,1.02781,-0.16802435,9.794428
351625122670259,1.1166244,-0.09396366,9.53975
351625142525492,1.0632368,0.05241591,9.297051
351625162382625,0.69826305,0.1737384,9.333637
351625182237857,0.5133436,0.09812874,9.599824
351625202093090,0.5871727,-0.034312535,9.818424
351625221948321,0.7821776,-0.15930912,9.972237
351625241803553,0.885744,-0.22049385,10.172781
351625261658786,0.91024566,-0.16604072,10.021678
351625281507971,0.76813024,-0.059833802,9.944922
351625301363075,0.5523729,0.04670412,9.919713
351625321218180,0.5597116,0.06930841,9.812616
351625341073283,0.7329493,-0.10032841,9.860063
351625360931416,0.7662212,-0.13214076,9.878675
351625380786521,0.6530468,-0.08589587,9.882981
351625400641624,0.6344343,-0.1264795,9.987375
351625420496728,0.5675613,-0.091430224,9.943537
351625440351833,0.6212046,-0.001030056,9.82851
351625460207064,0.36998627,0.4324274,9.008739
351625480071378,-0.38469067,1.8459108,7.5216813
351625499926739,0.86434436,-0.2763289,10.585177
