UPTIMENANO,Ax,Ay,Az
351460243529453,0.6662306,-0.46194914,8.521669
351460263384430,0.90248525,-0.39562574,8.958433
351460283239533,0.3498804,0.66434723,11.599049
351460303094509,-0.8897243,1.9360384,10.895273
351460322949614,0.005244148,0.4434373,10.331214
351460342804589,-0.42287314,-0.6687349,8.701462
351460362665138,-0.21257217,-0.9424585,10.08397
351460382520243,-0.35822988,-0.15386899,9.790204
351460402375474,0.08748217,-0.020624975,8.836177
351460422230578,0.054602146,-0.31389943,10.158642
351460442085811,-0.61845803,0.16853307,10.66207
351460461944582,0.13034469,0.10710385,9.6439085
351460481799942,1.0770301,0.1388176,8.967078
351460501655303,0.6863815,-0.12495599,9.133941
351460521510662,0.44297868,-0.5638402,8.5616865
351460541363656,0.21577616,-0.5537866,8.591517
351460561219017,-0.7102205,0.121448025,10.732627
351460581074376,-0.88383394,0.54955053,11.5662365
351460600929736,0.67410624,-0.080918916,9.607555
351460620785097,0.63504523,-0.259717,9.330283
351460640640456,-0.07971546,0.5157979,10.557329
351460660488398,-0.43296635,0.3679685,10.856789
351460680343503,-0.35857242,-0.55263126,10.312147
351460700198606,0.011017581,-0.85880536,9.509989
351460720053710,0.56871116,-0.2975953,9.560075
351460739908815,0.19844338,-0.0274378,10.282404
351460759758822,-0.10907025,-0.10642038,10.074152
351460779613798,0.15062489,-0.21977127,9.45756
351460799468903,0.47878772,-0.29179913,9.122673
351460819323878,-0.7148324,0.04551266,10.299901
351460839178165,-0.09991091,-0.25560528,9.874401
351460859033142,0.53318554,-0.12350837,9.320618
351460878888117,0.10062086,0.94850254,10.283283
351460898743093,0.37046772,0.5378085,9.308334
351460918598070,0.36203805,-0.7474596,8.8795395
351460938453045,-0.15809077,0.18546349,10.131038
351460958301700,0.038788833,0.8999096,9.956289
351460978156549,0.37701094,0.12524888,9.292623
351460998011268,0.015016237,-0.15105811,9.075795
351461017866116,-0.20800225,0.6913042,8.889505
351461037720837,0.025544023,0.8231174,9.345894
351461057567388,-0.8972227,0.805476,11.562324
351461077422108,0.34460497,-0.26704195,11.468252
351461097276701,1.2510743,0.46846098,9.323575
351461117131292,0.7133351,-0.042227846,9.565565
351461136986012,0.46226943,-1.0342981,9.644442
351461156840605,0.43400368,0.084236085,9.354285
351461176706596,0.35542017,0.7261972,9.8267145
351461196561444,0.0010210362,1.1640987,11.162507
351461216416165,-0.36914548,0.1552488,10.989783
351461236271012,0.60422844,0.3122269,9.686429
351461256120801,1.904538,-2.0054328,6.988201
351461275975522,1.2143402,0.6091686,9.129984
351461295830241,-1.6461227,1.3584611,7.5239706
351461315684961,-2.3337898,0.27373827,7.7432995
351461335539682,-0.32150745,4.3426785,14.088938
351461355395710,-3.3611586,1.9697204,12.492579
351461375250430,-5.1237683,-1.7831837,13.401428
351461395105151,-1.0995237,-3.6763098,12.760084
351461414959742,4.728165,-4.1780076,7.0057917
351461434814462,2.7364883,0.45551476,8.186014
351461454669183,0.8954312,2.5599208,10.216253
351461474513345,-1.7797682,-0.24006101,7.3636065
351461494367681,0.26145783,-5.5962276,5.18254
351461514222146,1.6249528,-7.3736944,4.8678126
351461534076609,-3.7380283,0.6210819,9.002141
351461553935872,-1.0447078,4.501127,10.488302
351461573790465,0.13493088,-1.2309719,5.413794
351461593645056,-1.0222872,-4.234517,1.1462075
351461613499520,-0.7392742,-4.8241234,1.0611436
351461633354113,-3.7515934,-2.7301698,4.0337796
351461653214414,-7.8597336,0.61698425,6.566749
351461673069134,-7.2418814,3.812618,11.803661
351461692923727,-4.3400435,4.6098795,11.890721
351461712778318,-2.384348,3.861967,10.177506
351461732632910,-2.640191,5.267337,12.068613
351461752487503,-2.048121,6.575946,16.702854
351461772343197,17.062551,6.1269956,14.743318
351461792197789,7.703373,1.0889326,-7.36351
351461812052510,-11.653091,4.3732524,13.652501
351461831907101,-3.8866475,0.9113768,19.054583
351461851764808,-0.89135003,-8.060414,4.937859
351461871619529,-5.1486373,-5.381357,-0.28442955
351461891474248,-5.8162837,1.7753615,5.3818903
351461911328968,-2.5863144,0.27229574,10.565987
351461931183561,-4.654047,-1.5943621,7.740112
351461951038280,0.8984964,-4.355004,7.5752306
351461970902521,1.2308973,-6.7748632,9.545815
351461990757370,0.044322204,-8.525732,12.119793
351462010612345,-1.3553411,-2.7823567,11.21016
351462030467321,-0.22593617,-1.6827796,7.5473323
351462050322170,2.2623498,-0.8294097,10.911634
351462070186361,1.4066365,-3.1912951,12.632183
351462090041593,0.054493137,-5.6641893,15.23293
351462109896698,1.682257,-3.6886692,15.719609
351462129751801,2.3987226,1.3826704,19.688046
351462149610117,-0.80498296,1.13718,22.319176
351462169465350,-4.214312,1.100901,21.026129
351462189320581,-7.5653834,-3.1909173,18.49312
351462209175685,-7.2460165,3.6898932,15.8304405
351462229030918,-1.158829,5.353155,12.9647045
351462248886149,-2.92581,4.2031283,10.673962
351462268742283,-6.3996887,1.6384685,8.502262
351462288597644,-4.856844,2.3486943,6.744916
351462308452875,-5.3570127,0.06810871,6.7795854
351462328308235,-3.4739141,0.77325916,3.713598
351462348163468,-1.7954142,2.3845963,2.1874485
351462368017803,0.36322582,2.1592915,2.6666927
351462387873163,-0.022982039,2.3722012,5.304305
351462407728396,-3.4303675,1.8439885,8.755239
351462427583627,-4.4836926,-1.9660652,11.168724
351462447447191,-2.1703818,-3.1573482,11.107481
351462467302680,-5.2492733,-0.53468376,11.323958
351462487158167,-4.3058605,-0.7823868,13.35961
351462507013655,-2.239482,-0.6074261,12.67686
351462526869144,-1.1430179,0.30005273,11.151938
351462546724631,1.9060608,0.65008146,10.886115
351462566583185,5.095905,-1.1731741,11.06507
351462586438674,3.8320773,-2.3792803,11.49162
351462606294289,3.2984626,-3.8344684,13.501849
351462626149905,4.44355,-2.9853897,13.196941
351462646005522,2.6578224,-1.362904,14.3215275
351462665857840,-0.40991628,-1.4035304,15.498331
351462685713328,-1.4640772,-1.2397578,9.907049
351462705568817,-2.2426147,1.0305321,6.055546
351462725424304,1.5400372,-2.182662,6.6241107
351462745276512,0.05679957,-1.4651796,6.7453732
351462765132129,-0.95289445,1.1112659,4.019583
351462784987616,-1.987293,-2.9569402,9.306778
351462804843104,-2.2872028,-0.56372315,10.983333
351462824698593,-1.0567682,3.7626023,9.320073
351462844554080,0.20729065,2.6235678,9.244235
351462864407892,0.2461506,-0.41989666,9.597132
351462884263253,1.2103966,-1.0815734,9.178612
351462904118740,0.8315172,-1.4007461,9.816154
351462923974228,1.4308717,-0.86908567,10.7918005
351462943829589,1.4835349,-0.41429412,9.820363
351462963681146,0.1268134,-0.791873,9.391185
351462983536506,2.0260046,-1.5142795,8.728124
351463003391867,6.8576255,1.866191,6.004394
351463023247354,4.7560673,1.7119228,12.1344185
351463043102714,2.8769932,1.3410254,12.802267
351463062958075,0.40232962,-0.867235,13.093405
351463082799074,0.33201966,-1.5155948,11.712334
351463102654178,0.7079894,-1.452783,13.367087
351463122509155,0.74323976,-1.491818,12.645224
351463142364258,0.6874718,-0.41895196,11.451543
351463162219411,1.2510567,0.5416484,12.888104
351463182074388,1.372419,0.3205427,14.019136
351463201932522,0.8752385,-0.4814499,13.076428
351463221787626,0.3782808,-0.92734396,11.091614
351463241642603,0.3656941,-1.1253848,11.830216
351463261490721,1.5643543,1.5330867,14.782287
351463281345569,0.091725126,-2.2308602,16.971012
351463301200546,3.4839602,2.1688275,18.505396
351463321055393,4.861335,5.188206,17.185467
351463340910369,5.6861916,-0.69888407,7.013587
351463360765218,-1.2743672,-2.2626426,9.577107
351463380612379,-0.60747695,-0.53015506,7.1309047
351463400466971,-2.9334824,-4.0300894,6.441707
351463420321692,-1.6115705,-5.1159115,6.1215267
351463440176411,-1.9495287,-1.0538876,5.639074
351463460031444,-3.9216616,-0.6733558,1.2223761
351463479886165,-5.0479136,-2.4166172,4.17486
351463499740756,-1.8433987,1.2704741,6.4023833
351463519595348,0.23812926,1.458019,7.8069277
351463539450069,-0.8092913,1.0496242,9.28245
351463559307695,-1.0847564,0.33187884,8.121221
351463579162415,-0.9609836,-1.1148273,8.485111
351463599017008,-0.5907114,-0.6729627,11.125525
351463618871727,0.90563995,-0.6058491,12.107659
351463638726319,1.2557154,-0.6769404,13.01065
351463658581040,0.7299155,-0.7685563,12.848966
351463678441440,1.0166614,-0.43718356,11.315209
351463698296160,0.49927884,-0.65756243,10.970564
351463718151009,0.09413317,-1.0602555,11.595343
351463738005856,-0.3285172,-0.7010826,10.669888
351463757865196,-0.985107,-0.54803497,8.222744
351463777720045,-0.84702617,0.6484491,7.080749
351463797574892,-1.6906722,-0.36297435,4.9992123
351463817429868,1.3465384,-0.6339905,6.7627892
351463837284717,3.5774498,1.3623676,8.678578
351463857139564,2.9769228,0.58028483,9.814904
351463876994534,2.0684495,-0.068242714,10.2431345
351463896849383,2.1230145,-0.7798452,10.634727
351463916704230,2.0869355,-0.59802365,13.102867
351463936559078,1.6006235,-1.9848177,15.392948
351463956413927,0.9451248,-2.7273383,16.056234
351463976276070,0.24369416,-0.6736589,16.768446
351463996131046,-1.9152052,-1.0061328,11.220604
351464015986023,-0.7663067,-1.3216276,10.604594
351464035840998,-0.25013065,0.4676134,11.952565
351464055702916,0.529454,-0.5773662,12.247177
351464075558021,0.3355346,-0.879634,13.157946
351464095413124,-0.017905157,-0.7554772,13.243441
351464115268356,0.36271504,-0.8799395,11.672618
351464135123461,3.8398747,0.22764558,11.3835335
351464154978692,-0.13539974,7.2231503,8.252537
351464174841464,-3.1030338,2.4376683,1.9148437
351464194696825,0.74558985,-3.5228562,5.66197
351464214552184,-0.037204664,-6.4798813,12.603811
351464234407544,-2.413054,-3.465277,12.762827
351464254262905,-2.0909214,-0.7381608,7.071619
351464274122433,-2.0092306,-1.4844155,4.379769
351464293977922,-2.256755,-3.2539988,6.034433
351464313833411,-2.1955523,-4.3400664,8.983909
351464333688900,3.8318686,-4.2537456,12.715185
351464353542547,9.212359,-1.0021819,15.136632
351464373398036,6.9812436,2.4395192,12.458721
351464393253520,1.8876784,2.7660334,10.267487
351464413109008,2.4463694,6.522322,12.097311
351464432964497,2.0676386,8.339482,11.481121
351464452819984,-1.7636294,1.0011436,8.668248
351464472684798,0.2972642,-0.74133605,10.513502
351464492540543,0.92630404,-1.5918148,10.712499
351464512396286,0.67660064,-2.516512,9.65721
351464532252030,0.62418306,-1.2164927,10.023619
351464552107775,0.3379542,-0.398304,10.207747
351464571964731,-0.03099798,-0.62862843,9.716452
351464591820603,0.06424743,-1.180675,9.827262
351464611676348,0.08890865,-1.7155616,9.955465
351464631532091,9.3280664E-4,-1.8274167,9.70707
351464651381223,0.12250282,-1.5525478,9.547966
351464671236840,0.034737304,-1.1809969,9.831098
351464691092455,-0.18187235,-0.73000103,9.988189
351464710948071,-0.14916448,-0.46912906,10.271665
351464730803816,0.004352803,-0.37229857,10.123526
351464750659431,0.47482663,-0.16960792,9.965242
351464770511274,0.8142221,-0.17749764,10.254073
351464790366891,0.5567384,-0.0095825605,10.018221
351464810222506,0.3417175,-0.02285687,9.887317
351464830078250,0.28915143,-0.23851939,9.956326
351464849933867,0.3177731,-0.2839935,9.892929
351464869787940,0.24284726,-0.051029943,9.648707
351464889643428,0.2962533,0.37056017,9.695889
351464909499045,0.41980922,0.25390488,9.761488
351464929354532,0.53973037,0.2940964,9.86435
351464949210148,0.56247044,0.5561025,9.840541
351464969065637,0.56961733,0.64125633,10.014241
351464988909013,0.6623225,0.21473001,10.072
351465008764245,0.58987397,-0.20290694,10.010677
351465028619606,0.2713717,-0.516283,9.838711
351465048474837,0.15646707,-0.6196766,9.801255
351465068320573,0.2936909,-0.58671045,9.71024
351465088175550,0.38389215,-0.61837935,9.699335
351465108030295,0.16959919,-0.51859635,9.752641
351465127885400,0.098133415,-0.4932403,9.703178
351465147740377,0.09152075,-0.49470386,9.736451
351465167592288,0.13735428,-0.5043359,9.790305
351465187447261,0.09226807,-0.43221775,9.806498
351465207302238,0.18098642,-0.43725917,9.869882
351465227157213,0.047062572,-0.17153332,9.974126
351465247012189,0.08710677,0.03416237,10.01555
351465266867166,0.23474169,-0.03841184,9.798394
351465286715107,0.3136334,-0.0711933,9.751596
351465306569827,0.29361528,0.036315653,9.858926
351465326424676,0.42127392,0.18238892,9.888071
351465346279523,0.5083064,0.21466704,9.865811
351465366132319,0.5550624,-0.08131897,9.779256
351465385987040,0.52022403,-0.32659575,9.79409
351465405841759,0.36252925,-0.2595407,9.801152
351465425696480,0.3766249,-0.15753591,9.836059
351465445551201,0.3590222,-0.102347,9.820914
351465465405922,0.18710211,-0.13055703,9.762271
351465485262061,0.17224792,-0.29925203,9.715501
351465505116782,0.29643854,-0.31876513,9.75343
351465524971503,0.42607832,-0.27962542,9.753334
351465544826096,0.43584675,-0.2184053,9.723809
351465564680817,0.34896082,-0.11968977,9.717903
351465584534898,0.38438725,-0.17427844,9.728534
351465604389491,0.34975678,-0.26776794,9.753447
351465624244212,0.18992297,-0.22652498,9.758105
351465644098933,0.2183693,-0.19869234,9.806771
351465663955184,0.32295263,-0.17263772,9.891511
351465683809905,0.3065749,-0.16013019,9.903477
351465703664498,0.25402918,-0.13443315,9.890028
351465723519219,0.24286678,-0.12333381,9.917315
351465743373940,0.19876964,-0.11299647,9.912308
351465763228516,0.13632528,-0.104156144,9.854999
351465783077720,0.18485007,-0.1192048,9.822698
351465802932313,0.27319315,-0.14662762,9.782244
351465822786904,0.27626643,-0.25112048,9.756403
351465842641496,0.18361504,-0.24102612,9.74625
351465862496089,0.2319626,-0.20953137,9.737109
351465882350973,0.30271652,-0.17988801,9.770326
351465902205437,0.28368792,-0.1828024,9.761185
351465922060030,0.26892713,-0.18305926,9.761342
351465941914621,0.28718072,-0.17063624,9.797305
351465961773120,0.33196273,-0.16094342,9.778839
351465981627713,0.29822415,-0.17041236,9.80155
351466001482304,0.24424167,-0.16136602,9.852501
351466021336896,0.25060776,-0.17160477,9.86159
351466041191489,0.25827718,-0.14568536,9.850198
351466061046080,0.24921483,-0.15442954,9.847063
351466080911089,0.24785516,-0.15911426,9.850816
351466100765938,0.23297277,-0.13577443,9.779107
351466120620785,0.2517119,-0.14859931,9.733455
351466140475633,0.243941,-0.15244456,9.754983
351466160330482,0.24451368,-0.13127366,9.746756
351466180195247,0.26686397,-0.12534465,9.747155
351466200050351,0.26910555,-0.08784845,9.752296
351466219905328,0.28661755,-0.1146628,9.766299
351466239760433,0.23937117,-0.17130746,9.776313
351466259617396,0.18625887,-0.17486997,9.776514
351466279472501,0.25151956,-0.18115215,9.815181
351466299327606,0.29305905,-0.17416756,9.870818
351466319182711,0.24241851,-0.123218894,9.892025
351466339037944,0.20573303,-0.14948034,9.835594
351466358893049,0.23202617,-0.18671481,9.816618
351466378749422,0.35014182,-0.19419262,9.817209
351466398604655,0.40151,-0.15265018,9.772716
351466418459760,0.34452382,-0.0697814,9.767537
351466438314993,0.31186897,-0.09923703,9.777368
351466458170098,0.30785063,-0.17717537,9.788399
351466478038265,0.3128899,-0.17672707,9.786642
351466497893754,0.36548355,-0.1317868,9.81184
351466517749243,0.3454162,-0.10915597,9.818826
351466537604860,0.28046063,-0.10046492,9.817569
351466557460349,0.26201034,-0.11403087,9.81016
351466577315838,0.27666342,-0.10278089,9.828942
351466597164411,0.35858387,-0.114386104,9.809547
351466617019772,0.35754687,-0.13550603,9.81751
351466636875261,0.2791008,-0.16338517,9.826999
351466656730622,0.27500615,-0.15257634,9.821275
351466676586103,0.28588232,-0.101475425,9.817472
351466696441592,0.3265474,-0.0945004,9.818628
351466716296953,0.32147393,-0.1267201,9.76969
351466736152314,0.29012805,-0.12645632,9.709589
351466756007675,0.35033828,-0.10757165,9.705565
351466775859764,0.38440812,-0.10505051,9.7026005
351466795715124,0.3621513,-0.13206013,9.662761
351466815570485,0.34789792,-0.12529638,9.699367
351466835425844,0.40224957,-0.13707653,9.771669
351466855281204,0.3473589,-0.14007622,9.811661
351466875136565,0.22276068,-0.11068699,9.833342
351466894985555,0.22900297,-0.16424294,9.891293
351466914840787,0.26129428,-0.20547219,9.939978
351466934696020,0.22877556,-0.17390886,9.983549
351466954551251,0.19925815,-0.1675057,9.951041
351466974404462,0.2834202,-0.17953284,9.862107
351466994259695,0.2842064,-0.17415944,9.759936
351467014114798,0.25890455,-0.178638,9.662793
351467033970030,0.25229838,-0.17019145,9.626797
351467053825135,0.24064347,-0.16444895,9.628605
351467073674257,0.26493898,-0.18357784,9.674572
351467093529361,0.30799127,-0.17083405,9.73641
351467113384466,0.30316794,-0.16669951,9.780699
351467133239569,0.25494576,-0.18850212,9.851371
351467153094673,0.19983874,-0.16996633,9.89998
351467172949650,0.24304807,-0.17628112,9.898187
351467192795988,0.2447643,-0.17892615,9.918591
351467212651092,0.21601811,-0.18031007,9.946792
351467232506069,0.2320658,-0.19971418,9.90661
351467252361044,0.26818368,-0.1982494,9.860755
351467272216885,0.30368966,-0.21228732,9.816983
351467292071862,0.32120776,-0.21232973,9.775536
351467311926837,0.28997254,-0.15978138,9.743785
351467331781942,0.32757953,-0.13145602,9.720128
351467351636919,0.3506678,-0.15820332,9.711713
351467371489220,0.32115906,-0.15463619,9.717568
351467391344065,0.30414182,-0.1351726,9.745341
351467411198914,0.2818783,-0.11851136,9.791485
351467431053761,0.24737206,-0.14393118,9.828334
351467450908737,0.23083699,-0.1644868,9.851501
351467470763586,0.25738624,-0.18918167,9.917735
351467490622974,0.25388363,-0.20055959,10.003884
351467510477822,0.24010068,-0.19905208,10.008761
351467530332799,0.19659099,-0.12294189,9.851688
351467550187646,0.24791387,-0.18890817,9.587261
351467570041720,0.24007222,-0.26911914,9.573515
351467589896569,0.209506,-0.21885662,9.684637
351467609751416,0.2708234,-0.20369792,9.717467
351467629606264,0.21075138,-0.16080518,9.7488
351467649461241,0.27328822,-0.1977649,9.809818
351467669316088,0.3011281,-0.29071105,9.857752
351467689168803,0.14763124,-0.22353828,9.873696
351467709023652,0.09762116,-0.16949226,9.891092
351467728878499,0.13166298,-0.18016654,9.894211
351467748733219,0.1615432,-0.14245181,9.912865
351467768588068,0.28953046,-0.16067061,9.886803
351467788445190,0.2755296,-0.22444318,9.797428
351467808300166,0.19727974,-0.22616504,9.7778015
351467828155015,0.2459542,-0.27091917,9.742538
351467848009990,0.27405003,-0.22630882,9.747763
351467867867246,0.22844943,-0.15264294,9.77481
351467887722095,0.24953541,-0.1692386,9.783601
351467907577072,0.17720774,-0.15214057,9.755769
351467927432049,0.17290014,-0.1601805,9.726782
351467947287026,0.22722024,-0.1992375,9.75309
351467967142003,0.20483132,-0.16900063,9.79275
351467986998535,0.23634769,-0.19305833,9.8312435
351468006853512,0.24589054,-0.20590544,9.840927
351468026708487,0.25839022,-0.18774952,9.867697
351468046563463,0.26345,-0.21621367,9.881518
351468066418440,0.20831342,-0.20314288,9.868568
351468086278550,0.17627081,-0.18407187,9.863651
351468106133654,0.19939712,-0.19666266,9.820428
351468125988887,0.2430707,-0.21924208,9.756359
351468145843990,0.2097141,-0.2167517,9.71394
351468165700193,0.20932314,-0.19976643,9.709252
351468185555298,0.24117601,-0.21524234,9.696055
351468205410401,0.26250988,-0.20778659,9.695944
351468225265633,0.19264768,-0.18709315,9.730458
351468245120738,0.13256913,-0.20119026,9.787994
351468264975971,0.0921793,-0.18595785,9.840474
351468284833700,0.110474266,-0.1867939,9.863761
351468304688933,0.16484089,-0.22777376,9.845685
351468324544166,0.11670738,-0.21728611,9.837075
351468344399527,0.13253394,-0.23825209,9.857637
351468364254760,0.20137963,-0.25273785,9.860176
351468384099051,0.23250948,-0.23684345,9.838751
351468403954156,0.1997914,-0.2399101,9.804733
351468423809261,0.16097817,-0.22443615,9.7887335
351468443664238,0.1778586,-0.24096747,9.760837
351468463519343,0.24078783,-0.26613596,9.763452
351468483374448,0.21124944,-0.22770351,9.771535
351468503228395,0.15152965,-0.21887147,9.760391
351468523083372,0.18706849,-0.25342157,9.783452
351468542938477,0.21330397,-0.26731604,9.797075
351468562793454,0.21434335,-0.26078027,9.815214
351468582650729,0.16585958,-0.26040092,9.86687
351468602505834,0.1818003,-0.25040522,9.87121
351468622360939,0.20836912,-0.2798332,9.841394
351468642216044,0.19088319,-0.26653004,9.822108
351468662071021,0.20373663,-0.29201284,9.807153
351468681925626,0.19622183,-0.28846744,9.796188
351468701780581,0.22961158,-0.26185384,9.778839
351468721635558,0.23109996,-0.2752565,9.772829
351468741490535,0.18050659,-0.23839468,9.768767
351468761345509,0.19676694,-0.27484125,9.7805805
351468781200486,0.23073761,-0.2814061,9.789317
351468801051024,0.20698272,-0.24284682,9.776467
351468820905872,0.18364222,-0.23885347,9.817554
351468840760721,0.21035786,-0.2679905,9.829427
351468860615568,0.24501032,-0.23733906,9.796383
351468880465773,0.2380492,-0.1872473,9.781842
351468900320622,0.19558765,-0.22967766,9.776065
351468920175341,0.16643001,-0.26370826,9.79404
351468940030189,0.20688803,-0.24543227,9.772905
351468959884910,0.23005281,-0.24943382,9.8092
351468979739641,0.15204744,-0.22956601,9.850925
351468999594490,0.1264534,-0.22909881,9.853018
351469019449211,0.16426523,-0.23043191,9.860756
351469039303929,0.20788936,-0.25766158,9.854905
351469059158777,0.17289986,-0.26000088,9.845008
351469079013498,0.13905059,-0.19956611,9.829028
351469098872947,0.18371767,-0.22188371,9.794999
351469118727795,0.20679398,-0.27747172,9.770173
351469138582772,0.18166746,-0.26899496,9.763229
351469158437619,0.18957919,-0.27587566,9.731678
351469178291623,0.1780356,-0.24973835,9.702559
351469198146600,0.13677683,-0.26884133,9.731461
351469218001447,0.18248709,-0.26499474,9.753941
351469237852743,0.19790576,-0.23369275,9.800204
351469257707720,0.15685669,-0.21979383,9.835612
351469277562569,0.14521325,-0.25331628,9.880957
351469297414938,0.16267346,-0.27223334,9.921423
351469317269787,0.19970267,-0.2574716,9.898454
351469337124508,0.22775175,-0.22795717,9.875485
351469356979357,0.22191465,-0.2136298,9.831827
351469376834078,0.25537857,-0.22203964,9.773483
351469396685593,0.24937887,-0.20003124,9.757726
351469416540314,0.2260293,-0.20335755,9.760151
351469436395035,0.21377388,-0.23414993,9.74183
351469456249756,0.21211591,-0.24293801,9.723269
351469476106293,0.22960912,-0.2112872,9.764821
351469495961014,0.24786425,-0.20250317,9.798901
351469515815863,0.20806609,-0.18240504,9.788611
351469535670584,0.16785268,-0.1687735,9.836433
351469555525305,0.15261634,-0.20682208,9.833867
351469575380026,0.15149686,-0.24093975,9.859083
351469595232893,0.17164704,-0.2302278,9.866736
351469615087614,0.18679324,-0.21400803,9.871611
351469634942335,0.20862903,-0.23493242,9.873386
351469654797056,0.20701864,-0.22425398,9.825208
351469674651777,0.19852775,-0.20221405,9.750013
351469694513226,0.20179918,-0.21733072,9.751315
351469714368055,0.22778499,-0.2329557,9.720339
351469734222904,0.24667805,-0.21723786,9.738214
351469754077753,0.26700673,-0.19383557,9.727919
351469773930076,0.25599855,-0.19338241,9.697065
351469793784925,0.20942533,-0.17675148,9.764749
351469813639772,0.20243913,-0.18111828,9.790017
351469833494620,0.21779706,-0.2016066,9.784969
351469853349469,0.23633388,-0.20926309,9.799315
351469873204316,0.29780722,-0.25102925,9.826778
351469893060263,0.2004326,-0.18304025,9.872701
351469912915112,0.07194553,-0.13965613,9.913331
351469932769959,0.115940355,-0.16609547,9.933168
351469952624935,0.2060099,-0.20734245,9.889032
351469972479784,0.22964808,-0.20834517,9.878212
351469992331801,0.21420941,-0.17407794,9.83654
351470012186522,0.2436972,-0.15754849,9.740927
351470032041243,0.24315044,-0.15358576,9.734063
351470051896087,0.2822325,-0.1646518,9.756321
351470071750947,0.31419736,-0.21423483,9.704063
351470091605668,0.29466626,-0.18232726,9.742535
351470111460515,0.3218223,-0.1824002,9.783974
351470131315235,0.27488652,-0.1893328,9.797205
351470151169956,0.18853371,-0.10832538,9.83048
351470171024675,0.26087207,-0.112546064,9.884569
351470190884863,0.29408315,-0.15361066,9.96211
351470210739712,0.26483643,-0.116905816,9.977998
351470230594687,0.28349873,-0.13993165,9.803351
351470250449535,0.19444053,-0.17053531,9.74008
351470270304384,0.19253357,-0.1514435,9.745339
351470290161522,0.2481318,-0.15105137,9.739554
351470310016499,0.26400736,-0.12281417,9.761642
351470329871476,0.21502274,-0.0785058,9.793183
351470349726453,0.20036341,-0.10981728,9.812584
351470369581430,0.19225143,-0.11927999,9.79
351470389436407,0.2470285,-0.14483991,9.772398
351470409286854,0.27591896,-0.12922606,9.774781
351470429141703,0.22841845,-0.11948175,9.793348
351470448996552,0.20163995,-0.12299737,9.842539
351470468851529,0.21375413,-0.12358872,9.824719
351470488715624,0.2540919,-0.11283815,9.845348
351470508570601,0.29298842,-0.13943088,9.817628
351470528425706,0.2542719,-0.14315645,9.810745
351470548280683,0.20810926,-0.15438601,9.7964735
351470568135660,0.23752289,-0.15196887,9.81639
351470587996183,0.26510862,-0.13288034,9.81423
351470607851288,0.24177627,-0.114983715,9.825781
351470627706521,0.22641991,-0.1276716,9.799023
351470647561626,0.27001095,-0.1557376,9.789028
351470667416731,0.28230333,-0.19050185,9.822039
351470687271964,0.30215457,-0.17894053,9.760788
351470707135683,0.2680407,-0.15422179,9.769289
351470726991044,0.24963708,-0.15256046,9.798572
351470746846405,0.25537443,-0.15091,9.812073
351470766701617,0.24408434,-0.08787621,9.802998
351470786553504,0.24932122,-0.13017856,9.782856
351470806408737,0.26953664,-0.14643775,9.794751
351470826264096,0.24097952,-0.13486248,9.788399
351470846119456,0.26525503,-0.11613889,9.831981
351470865974689,0.2633043,-0.112981685,9.827437
351470885823915,0.25903407,-0.08925622,9.818975
351470905679147,0.2615472,-0.06726421,9.8037405
351470925534380,0.29679796,-0.08966878,9.827912
351470945389611,0.33349344,-0.08603092,9.809604
351470965244843,0.32737225,-0.062073406,9.81904
351470985100076,0.29901424,-0.034070104,9.812223
351471004949579,0.30582595,-0.044908963,9.803965
351471024804683,0.31544816,-0.044816148,9.78568
351471044659788,0.29982755,-0.04110788,9.785069
351471064514891,0.33205774,-0.04605001,9.755907
351471084361133,0.33072555,-0.052674774,9.779912
351471104215982,0.29015565,-0.058312096,9.812268
351471124070957,0.28733048,-0.05988334,9.832923
351471143925933,0.2676325,-0.046882235,9.82441
351471163780782,0.29238153,-0.047652096,9.828637
351471183635654,0.33399057,-0.027506212,9.834846
351471203490502,0.2998073,-0.030912427,9.823885
351471223345351,0.28884044,-0.05246167,9.823218
351471243200326,0.29458863,-0.04510296,9.835119
351471263055174,0.32973984,-0.03413108,9.839877
351471282910023,0.31830955,-0.03674841,9.818856
351471302750297,0.33174148,-0.10364246,9.7794075
351471322605146,0.3405635,-0.0779105,9.785744
351471342459867,0.35132387,-0.06516218,9.7968445
351471362314716,0.2943007,-0.048821755,9.775478
351471382169461,0.28907168,-0.05659468,9.770871
351471402024310,0.330944,-0.076961815,9.78261
351471421879031,0.3026922,-0.09925202,9.787539
351471441733752,0.24440308,-0.088927045,9.821332
351471461588473,0.24807489,-0.0793193,9.853247
351471481443194,0.26122123,-0.07650588,9.879644
351471501299543,0.27005598,-0.06526288,9.870571
351471521154392,0.29103166,-0.07559236,9.857966
351471541009113,0.27466112,-0.084964655,9.810187
351471560863834,0.28525317,-0.06056624,9.786885
351471580718555,0.301892,-0.03348811,9.7696295
351471600567930,0.31796184,-0.032800384,9.758947
351471620422523,0.34219503,-0.029471852,9.756954
351471640277116,0.3122176,-0.03827704,9.754785
351471660131837,0.21016653,-0.041074634,9.76701
351471679987732,0.24048108,-0.047509648,9.77085
351471699842325,0.28623655,-0.038226295,9.801616
351471719696918,0.30688444,-0.016780742,9.817947
351471739551511,0.28368333,-0.04424267,9.829603
351471759406104,0.19703071,-0.05495482,9.848908
351471779260674,0.20979725,-0.060534474,9.853793
351471799113140,0.29524896,-0.0648144,9.85842
351471818967733,0.30023447,-0.03471162,9.85059
351471838822196,0.27734384,-0.029110415,9.818134
351471858676788,0.22849567,-0.020882918,9.800683
351471878531381,0.26033828,-0.044511575,9.81581
351471898385569,0.3051719,-0.06500707,9.76677
351471918240161,0.29938093,-0.04475903,9.708634
351471938094626,0.28068247,-0.03725249,9.765069
351471957949089,0.2655057,-0.016340686,9.759749
351471977805274,0.26077688,-0.018119665,9.7431345
351471997659611,0.217966,-0.031523,9.770979
351472017514074,0.26807782,-0.03359031,9.779019
351472037368538,0.2544765,-0.059437934,9.801002
351472057223003,0.24160536,-0.032951184,9.827971
351472077077466,0.2713175,-0.02941769,9.868929
351472096940604,0.24666534,-0.027185233,9.867977
351472116795325,0.20239195,-0.03504834,9.860216
351472136650044,0.24524125,-0.028301027,9.860232
351472156504636,0.30700263,-0.044734888,9.852166
351472176359357,0.2774395,-0.056756034,9.834823
351472196219867,0.2666875,-0.012872741,9.821609
351472216074715,0.28658253,-0.011973363,9.793212
351472235929564,0.26731965,-0.031350106,9.7874155
351472255784411,0.2726507,-0.039308824,9.785993
351472275644696,0.28776368,-0.035153423,9.795624
351472295499801,0.2549403,-0.026183648,9.787275
351472315354906,0.23226331,-0.042450923,9.779254
351472335209883,0.23415324,-0.065068014,9.7818775
351472355064988,0.24478188,-0.05627189,9.762594
351472374919965,0.2658791,-0.04227099,9.767521
351472394780702,0.28169957,-0.032779183,9.763616
351472414635807,0.2815819,-0.02745623,9.774606
351472434491040,0.2633193,-0.032109004,9.78919
351472454346273,0.24192958,-0.050430764,9.7931385
351472474201378,0.24985097,-0.0662859,9.832217
351472494060839,0.26520905,-0.06874131,9.850271
351472513916200,0.31041083,-0.059022352,9.829347
351472533771433,0.25695747,-0.06410369,9.86777
351472553626794,0.21502027,-0.043391235,9.890694
351472573482027,0.2586747,-0.04507484,9.8622265
351472593337260,0.2708032,-0.021792794,9.809326
351472613189237,0.2916157,-0.04535241,9.8011265
351472633044598,0.29018086,-0.078110956,9.82585
351472652899831,0.2644542,-0.07099429,9.822649
351472672755064,0.26985857,-0.053757686,9.7924385
351472692611247,0.23749259,-0.04887382,9.805385
351472712466480,0.24704902,-0.08477013,9.808259
351472732321692,0.26272658,-0.08370308,9.786634
351472752176924,0.26375276,-0.091025494,9.8025675
351472772032157,0.29408878,-0.09372874,9.81508
351472791882178,0.23802158,-0.09875493,9.807998
351472811737282,0.24126586,-0.058324277,9.792078
351472831592515,0.2995543,-0.06876486,9.816348
351472851447746,0.27995723,-0.07227821,9.823948
351472871302850,0.25931233,-0.096223615,9.824073
351472891158083,0.26073766,-0.09136733,9.901515
351472911007774,0.25601655,-0.10028164,9.862282
351472930862750,0.299801,-0.109351866,9.784849
351472950717727,0.22732341,-0.051619165,9.802145
351472970572830,0.27606326,-0.047970425,9.784314
351472990420230,0.2669375,-0.08552218,9.755689
351473010275207,0.2370523,-0.069729716,9.737956
351473030130054,0.30762416,-0.07949679,9.782605
351473049985030,0.2808313,-0.08389563,9.800436
351473069839879,0.23395155,-0.086251535,9.771906
351473089693923,0.23074743,-0.09458227,9.838692
351473109548899,0.2475239,-0.06894734,9.84575
351473129403748,0.2649948,-0.07809596,9.772273
351473149258309,0.24896601,-0.07460127,9.794903
351473169113158,0.26973966,-0.08068229,9.823275
351473188968135,0.2943484,-0.06855871,9.796733
351473208816286,0.26032943,-0.040919945,9.8031025
351473228671007,0.2719791,-0.05661478,9.813651
351473248525728,0.21679837,-0.07449849,9.818076
351473268380449,0.20095828,-0.07538315,9.828272
351473288232674,0.24118358,-0.07726396,9.818026
351473308087395,0.23967701,-0.06367359,9.823053
351473327941988,0.21161518,-0.08089067,9.823533
351473347796709,0.21300907,-0.07700161,9.829412
351473367651430,0.26360053,-0.066097975,9.808251
351473387506023,0.30532607,-0.062805206,9.78447
351473407351138,0.29398635,-0.048170008,9.754058
351473427205603,0.22911792,-0.04552677,9.74915
351473447059940,0.23665737,-0.07498559,9.778561
351473466914405,0.28147838,-0.08864977,9.793562
351473486768870,0.28242788,-0.09086281,9.805534
351473506616789,0.25659654,-0.088924356,9.834771
351473526470998,0.18009557,-0.07702947,9.840161
351473546325207,0.18363786,-0.06420854,9.825961
351473566179544,0.23445053,-0.06209161,9.825197
351473586034331,0.26411444,-0.06950101,9.787937
351473605888540,0.28032506,-0.08409308,9.782039
351473625742728,0.25403666,-0.04778921,9.794375
351473645597065,0.25550988,-0.06541787,9.822757
351473665451274,0.23154469,-0.10564006,9.8141775
351473685305483,0.2122733,-0.065760255,9.781339
351473705160734,0.26174486,-0.048430525,9.792565
351473725014943,0.27738416,-0.050496403,9.806032
351473744869280,0.25054425,-0.07202595,9.813455
351473764723482,0.23433459,-0.092444785,9.81706
351473784577691,0.24240518,-0.11466143,9.786056
351473804430015,0.2733334,-0.09809581,9.796632
351473824284095,0.2707675,-0.056869842,9.8075695
351473844138304,0.26585066,-0.04585609,9.809483
351473863992511,0.26931062,-0.05908802,9.79695
351473883853729,0.2796226,-0.07693239,9.80369
351473903707938,0.29178742,-0.06999515,9.811192
351473923562273,0.27575228,-0.050535094,9.811635
351473943416481,0.26867226,-0.04897733,9.808354
351473963270690,0.2911136,-0.032470897,9.848339
351473983125025,0.28544497,-0.030241977,9.85552
351474002983805,0.25427604,-0.03886075,9.821788
351474022838142,0.27009434,-0.029387997,9.79811
351474042692477,0.30459687,-0.048631012,9.784656
351474062546813,0.2743489,-0.038944807,9.794756
351474082401278,0.24215661,-0.008352541,9.823514
351474102259463,0.2520205,-0.024480946,9.830697
351474122113927,0.18789402,-0.042684544,9.833997
351474141968392,0.21502107,-0.033211745,9.801414
351474161822855,0.30427662,-0.029924186,9.801046
351474181685250,0.25573954,-0.019758692,9.786575
351474201539971,0.22409543,-0.029939694,9.7986355
351474221394562,0.23053768,-0.039348256,9.823384
351474241249155,0.27006817,-7.1376975E-4,9.813697
351474261103876,0.2657533,-0.015176446,9.80769
351474280958466,0.19932507,-0.034002516,9.831025
351474300816544,0.20921272,-0.055174842,9.799675
351474320671393,0.27862382,-0.066373475,9.783046
351474340526240,0.2918084,-0.053185564,9.800927
351474360380960,0.29112044,-0.048363417,9.829471
351474380235809,0.22228312,-0.041563306,9.812905
351474400096044,0.20249051,-0.03304037,9.829983
351474419950892,0.26347217,-0.04233031,9.819203
351474439805741,0.26619825,-0.04880926,9.803427
351474459660716,0.28446978,-0.05866379,9.776009
351474479515564,0.26882488,-0.074373275,9.795474
351474499370413,0.248502,-0.0710216,9.8030615
351474519220658,0.28474197,-0.06385488,9.767741
351474539075506,0.27103913,-0.043274384,9.753104
351474558930483,0.25641495,-0.091191515,9.76155
351474578785330,0.19484343,-0.13592124,9.82614
351474598645566,0.15684001,-0.111858174,9.8677
351474618500543,0.20805988,-0.07768627,9.867093
351474638355518,0.21568416,-0.08997914,9.824606
351474658210494,0.17018434,-0.0969209,9.85537
351474678065343,0.18128088,-0.103083886,9.806762
351474697928676,0.21204463,-0.1096263,9.790777
351474717783781,0.22390041,-0.13300863,9.793379
351474737639014,0.25881544,-0.1385208,9.783168
351474757494119,0.23664391,-0.10303536,9.81066
351474777349347,0.22008356,-0.0698028,9.796767
351474797204452,0.25389498,-0.090219036,9.800939
351474817059964,0.23969719,-0.11377584,9.781442
351474836915068,0.19220564,-0.10402058,9.800505
351474856770301,0.19267969,-0.11494743,9.81845
351474876625532,0.21058172,-0.1458367,9.831632
351474896476183,0.21891375,-0.15296496,9.810714
351474916331288,0.20104937,-0.12434582,9.8173065
351474936186519,0.18191743,-0.10343018,9.833859
351474956041623,0.1818307,-0.11302386,9.840202
351474975896728,0.17968033,-0.14906876,9.824013
351474995740340,0.1738889,-0.15519187,9.838752
351475015595188,0.22240143,-0.14771168,9.809458
351475035450165,0.25027496,-0.1651234,9.796852
351475055305012,0.23881531,-0.17371511,9.798314
351475075159860,0.20677653,-0.15184064,9.76447
351475095014837,0.21286228,-0.12800255,9.789185
351475114866004,0.22125441,-0.13189045,9.8164625
351475134724273,0.23094454,-0.10792457,9.75972
351475154579122,0.21554169,-0.11389066,9.768821
351475174433843,0.18827043,-0.07924907,9.802104
351475194290204,0.2537841,-0.09778647,9.796835
351475214145053,0.24439749,-0.094653904,9.825865
351475233999902,0.26118076,-0.048589654,9.800637
351475253854623,0.2564811,-0.07107784,9.812608
351475273709472,0.19400264,-0.116775386,9.834482
351475293564321,0.21408781,-0.114081,9.845034
351475313415206,0.2470999,-0.067092806,9.824556
351475333269927,0.2585421,-0.071361125,9.815281
351475353124648,0.16793768,-0.07934347,9.841379
351475372979369,0.17476217,-0.052348685,9.845416
351475392834090,0.21063012,-0.059057586,9.787002
351475412682301,0.22200868,-0.06811578,9.764392
351475432536894,0.27999508,-0.07667723,9.804614
351475452391487,0.26354203,-0.048388466,9.800983
351475472245952,0.22875917,-0.02441467,9.808885
351475492101337,0.21604681,-0.027726581,9.831214
351475511955930,0.21314806,-0.047308326,9.8292265
351475531810523,0.22028944,-0.065969214,9.841058
351475551664988,0.24342826,-0.07854806,9.856218
351475571519581,0.2736968,-0.085996896,9.836381
351475591374174,0.26659104,-0.041313015,9.842304
351475611227500,0.20975596,0.00885993,9.837047
351475631082093,0.24474615,0.0047140224,9.777964
351475650936558,0.25620982,0.020163547,9.72833
351475670791151,0.2532569,0.017191183,9.752032
351475690645616,0.29349494,7.6383067E-4,9.774587
351475710501733,0.2445388,-0.027469486,9.812622
351475730356326,0.24524659,-0.037760813,9.839977
351475750210791,0.27916706,-0.031991426,9.8693695
351475770065248,0.2187389,-0.05194428,9.88838
351475789918822,0.23246796,-0.042946383,9.827671
351475809773415,0.25813106,5.77076E-4,9.770996
351475829627878,0.2500526,0.011871784,9.777599
351475849482470,0.25459686,-0.007955888,9.782849
351475869336935,0.23124027,-0.03275956,9.797147
351475889191526,0.24240467,0.006237938,9.816367
351475909048203,0.31575248,0.017778385,9.835764
351475928902668,0.25597963,0.017499248,9.849755
351475948757259,0.16479102,-0.01861881,9.794026
351475968611724,0.20396687,-0.052853033,9.794868
351475988466317,0.22247237,-0.061936412,9.804423
351476008320327,0.25071016,-0.021744486,9.811355
351476028174919,0.28886285,0.027245857,9.825175
351476048029384,0.2877963,0.0026682774,9.84411
351476067883975,0.28329206,-0.036759194,9.832926
351476087737740,0.24724567,-0.0551099,9.828196
351476107592205,0.22621378,-0.030388806,9.826784
351476127446668,0.2644902,-0.040970676,9.838719
351476147301132,0.25347826,-0.06293686,9.808142
351476167155597,0.23851721,-0.029214578,9.834019
351476187010060,0.231776,-0.049074236,9.83664
351476206870633,0.15808353,-0.09660155,9.780856
351476226725226,0.21599752,-0.09035635,9.749312
351476246579819,0.32297033,-0.050930694,9.74294
351476266434412,0.2752801,-0.038141772,9.76502
351476286289005,0.21761568,-0.044715583,9.811323
351476306145078,0.20916341,-0.03416181,9.837355
351476325999799,0.23278752,-0.052833118,9.81866
351476345854520,0.2521296,-0.056941997,9.810079
351476365709241,0.23591861,-0.048385564,9.824924
351476385563962,0.20218039,-0.037108436,9.806313
351476405418683,0.22214492,-0.026113434,9.823321
351476425274872,0.2269123,-0.04381452,9.829843
351476445129593,0.26879615,-0.038463425,9.823423
351476464984442,0.25818342,-0.04191703,9.81653
351476484839163,0.2398529,-0.039925564,9.837095
351476504691946,0.21609135,-0.04113838,9.816871
351476524546795,0.20633674,-0.03558086,9.777515
351476544401516,0.24180508,-0.023071425,9.804011
351476564256237,0.22656456,-0.022433557,9.822163
351476584110958,0.22685523,-0.020244135,9.78567
351476603966703,0.21879195,-0.02855334,9.768132
351476623821424,0.1988,-0.039585825,9.815254
351476643676145,0.24011612,-0.03941511,9.83477
351476663530844,0.24297808,-0.007827757,9.8387
351476683385565,0.21108074,-0.020268703,9.819897
351476703240286,0.22021437,-0.051215116,9.80932
351476723099263,0.19599248,-0.048779365,9.836595
351476742953984,0.17747113,-0.04603674,9.842403
351476762808833,0.21551797,-0.026987744,9.846099
351476782663548,0.22837293,-0.034872267,9.807732
351476802523889,0.2046883,-0.07216797,9.80431
351476822378866,0.16246764,-0.056226138,9.784716
351476842233841,0.21394624,-0.05719017,9.750811
351476862088689,0.26871744,-0.06514842,9.757256
351476881943666,0.23670131,-0.055557694,9.8018875
351476901791514,0.20907271,-0.05846005,9.801993
351476921646362,0.18690233,-0.06688823,9.8149605
351476941501211,0.20967636,-0.07933849,9.81317
351476961355930,0.16871521,-0.095696315,9.822247
351476981210778,0.15604822,-0.10069996,9.824198
351477001065627,0.19375083,-0.10959486,9.828609
351477020917622,0.2094738,-0.10257434,9.840311
351477040772342,0.23530936,-0.09469725,9.834481
351477060627063,0.2198594,-0.09990184,9.838389
351477080481782,0.17375241,-0.10110417,9.846686
351477100332127,0.21770534,-0.09156365,9.822105
351477120186720,0.2643127,-0.10514551,9.8275385
351477140041439,0.20661736,-0.09987461,9.807286
351477159896031,0.20893833,-0.12615368,9.773119
351477179750752,0.19026561,-0.10227514,9.781692
351477199605343,0.20102668,-0.09524637,9.790196
351477219455102,0.21487552,-0.103982754,9.791863
351477239309695,0.22155945,-0.085547686,9.781434
351477259164158,0.22243674,-0.11032352,9.796043
351477279018750,0.17478023,-0.11165988,9.790537
351477298873215,0.14150354,-0.09500218,9.816837
351477318722891,0.16503288,-0.1051839,9.797803
351477338577355,0.18988289,-0.135574,9.790674
351477358431820,0.1909585,-0.098732255,9.8538685
351477378286283,0.25242558,-0.11231312,9.880401
351477398146123,0.21310012,-0.09809202,9.846442
351477418000588,0.1804363,-0.06011172,9.812275
351477437855051,0.21375996,-0.11533826,9.797442
351477457709643,0.16256769,-0.15220201,9.812266
351477477564108,0.15814365,-0.14711773,9.814758
351477497418699,0.20139079,-0.16388427,9.815299
351477517272005,0.22880691,-0.1619116,9.818783
351477537126598,0.19361252,-0.14500043,9.795292
351477556981061,0.18335447,-0.13225824,9.7611065
351477576835653,0.2041673,-0.115067415,9.793023
351477596690118,0.23155968,-0.12492033,9.811305
351477616548049,0.20645562,-0.11040575,9.828913
351477636402641,0.18600869,-0.07983426,9.847739
351477656257106,0.2061731,-0.10044915,9.83815
351477676111697,0.23394908,-0.13269565,9.842993
351477695973924,0.20661426,-0.13035126,9.848642
351477715828645,0.1638257,-0.12632236,9.843863
351477735683366,0.15901077,-0.11038902,9.828396
351477755537956,0.19219697,-0.124068454,9.775413
351477775392677,0.24790585,-0.12836766,9.760317
351477795247268,0.25157708,-0.11463825,9.76024
351477815107268,0.19153465,-0.115975514,9.768592
351477834961989,0.17358646,-0.08290561,9.773493
351477854816836,0.18285707,-0.10426428,9.770851
351477874671556,0.21308711,-0.11459833,9.806563
351477894526405,0.2199269,-0.089879826,9.814622
351477914381818,0.19095892,-0.09594441,9.781163
351477934236538,0.16686195,-0.08715886,9.809848
351477954091387,0.20972179,-0.07649308,9.839074
351477973946106,0.21270765,-0.05640537,9.829353
351477993795396,0.20729138,-0.060131315,9.86232
351478013650117,0.2233339,-0.08202462,9.8584795
351478033504836,0.20919712,-0.09276176,9.809689
351478053359428,0.19809069,-0.08396767,9.813851
351478073214149,0.24831703,-0.063067146,9.811389
351478093068868,0.24270675,-0.039134264,9.780672
351478112926503,0.20335992,-0.029444203,9.773452
351478132781224,0.20701838,-0.06819795,9.796403
351478152635943,0.23081914,-0.10583411,9.830542
351478172490663,0.14418408,-0.09850823,9.837599
351478192345384,0.12354552,-0.10092235,9.828726
351478212211087,0.16173053,-0.115328304,9.8432865
351478232066063,0.16936211,-0.08769037,9.862332
351478251921040,0.18982895,-0.069403484,9.864298
351478271776015,0.19104856,-0.07636874,9.872584
351478291630991,0.20760807,-0.122796856,9.856736
351478311485968,0.21061626,-0.11329438,9.794805
351478331334809,0.19295165,-0.07367259,9.7580595
351478351189657,0.19828337,-0.077046886,9.75093
351478371044634,0.20052344,-0.097490296,9.742542
351478390899481,0.20886457,-0.089898035,9.774537
351478410757596,0.26249272,-0.08144426,9.812128
351478430612573,0.21319279,-0.099671915,9.8398905
351478450467676,0.17495377,-0.09756518,9.880596
351478470322652,0.18840717,-0.08902792,9.855136
351478490177757,0.20563428,-0.08053475,9.795419
351478510034465,0.19037682,-0.049228568,9.76734
351478529889441,0.20555764,-0.11252309,9.745992
351478549744546,0.17446153,-0.113298684,9.757804
351478569599649,0.2083031,-0.10620992,9.807648
351478589454753,0.26377705,-0.11802166,9.811412
351478609309730,0.21719106,-0.09982349,9.8261595
351478629166034,0.17370659,-0.09814518,9.813131
351478649021138,0.1954995,-0.10303179,9.789195
351478668876243,0.17142844,-0.084939726,9.768463
351478688731346,0.19488607,-0.10493027,9.801198
351478708588494,0.20998615,-0.12030399,9.862868
351478728443599,0.20835418,-0.121997595,9.872156
351478748298702,0.2065598,-0.115672596,9.863005
351478768153934,0.18466093,-0.064951174,9.917825
351478788009039,0.19144006,-0.067102656,9.888966
351478807861472,0.1660594,-0.06822385,9.805494
351478827716576,0.17328478,-0.098692656,9.761414
351478847571681,0.20370537,-0.11870064,9.743193
351478867426656,0.18021166,-0.12577529,9.752835
351478887281760,0.14590205,-0.12131161,9.76246
351478907136865,0.21448153,-0.12501624,9.788443
351478926984105,0.23304388,-0.10730306,9.802054
351478946838953,0.20053244,-0.0828986,9.811107
351478966693802,0.17396072,-0.061502185,9.820413
351478986548649,0.14453398,-0.084452786,9.813661
351479006395195,0.15758912,-0.0998247,9.802604
351479026249916,0.20077282,-0.10600715,9.803757
351479046104635,0.22303237,-0.08172432,9.81718
351479065959355,0.21003227,-0.08805762,9.833364
351479085814204,0.17947869,-0.0771716,9.8303385
351479105668923,0.16226603,-0.08807458,9.805617
351479125520266,0.20660649,-0.06385407,9.807628
351479145374859,0.23849037,-0.06389212,9.80552
351479165229450,0.19652145,-0.0693253,9.804782
351479185084042,0.18671863,-0.07847377,9.818546
351479204938635,0.21582428,-0.09088516,9.830867
351479224798273,0.2532132,-0.071464404,9.819383
351479244652993,0.24490763,-0.06807195,9.789228
351479264507714,0.18958911,-0.047857817,9.818881
351479284362305,0.18517938,-0.08595588,9.798818
351479304216452,0.20119162,-0.075719155,9.788519
351479324071045,0.21810186,-0.061965756,9.806308
351479343925764,0.26718393,-0.062690444,9.821134
351479363780484,0.19280949,-0.055768237,9.847372
351479383635205,0.1658713,-0.08039964,9.86043
351479403489924,0.22828358,-0.08071338,9.90098
351479423347320,0.19918744,-0.06920197,9.878931
351479443202041,0.17606647,-0.07076131,9.825356
351479463056760,0.19660562,-0.06161511,9.830568
351479482911608,0.23810102,-0.07417221,9.835517
351479502766329,0.22396614,-0.0655383,9.80511
351479522615075,0.15849088,-0.04413292,9.776516
351479542469795,0.20944497,-0.103936695,9.740551
351479562324388,0.2215812,-0.13191494,9.754894
351479582179107,0.16461425,-0.13735814,9.775269
351479602028311,0.15769102,-0.06991941,9.793067
351479621882904,0.1798371,-0.08514156,9.811634
351479641737367,0.17226891,-0.10605834,9.834024
351479661591831,0.16555056,-0.08619659,9.822225
351479681446296,0.18859439,-0.12638791,9.826902
351479701300759,0.18925014,-0.1259678,9.842511
351479721160776,0.14638942,-0.12390647,9.874924
351479741015369,0.18138348,-0.09125854,9.887063
351479760869960,0.22496931,-0.09250195,9.861442
351479780723343,0.1972154,-0.10431085,9.830099
351479800577936,0.1547291,-0.11164072,9.749058
351479820438853,0.15302457,-0.12239877,9.733319
351479840293573,0.18714665,-0.12478337,9.746693
351479860148294,0.24223195,-0.13639021,9.743742
351479880003141,0.19822508,-0.13628167,9.71635
351479899858327,0.15961243,-0.107683145,9.760255
351479919713048,0.1747506,-0.10366471,9.82568
351479939567767,0.1298449,-0.1018532,9.842447
351479959422359,0.08110069,-0.10839226,9.832116
351479979277080,0.13078393,-0.14122146,9.846836
351479999131799,0.17305154,-0.11400717,9.874917
351480018980102,0.15620048,-0.10096681,9.879199
351480038834695,0.10365106,-0.10356775,9.860739
351480058689286,0.071812086,-0.12703863,9.812702
351480078543878,0.19162723,-0.15612079,9.780148
351480098398343,0.25138536,-0.14694847,9.803951
351480118240724,0.1811009,-0.15092053,9.758871
351480138095060,0.09477772,-0.1375425,9.714316
351480157949525,0.102235466,-0.10811541,9.771914
351480177803860,0.21461807,-0.15068658,9.785264
351480197658196,0.1736014,-0.13293596,9.774751
351480217512533,0.102945715,-0.08481612,9.786239
351480237379229,0.13358897,-0.14038484,9.810149
351480257233821,0.14392433,-0.16588919,9.83213
351480277088286,0.1486959,-0.13240501,9.8229885
351480296942877,0.14448833,-0.10821235,9.843111
351480316804687,0.14234062,-0.10509972,9.868084
351480336659536,0.13655964,-0.12784645,9.888404
351480356514255,0.1082868,-0.11633089,9.839586
351480376368975,0.13978484,-0.10364347,9.800399
351480396223824,0.18810123,-0.12939526,9.829081
351480416080425,0.17005567,-0.100006774,9.816951
351480435935273,0.18900774,-0.07396827,9.7639475
351480455790122,0.19873857,-0.061321504,9.753074
351480475644969,0.19485487,-0.06451804,9.749035
351480495499817,0.20590891,-0.11131649,9.746618
351480515354666,0.15492818,-0.097102776,9.773254
351480535207215,0.15551925,-0.07801495,9.796791
351480555061935,0.18554923,-0.0948608,9.842312
351480574916784,0.15846151,-0.07687089,9.86448
351480594771631,0.15460518,-0.08326591,9.88023
351480614624890,0.1371215,-0.096044466,9.891818
351480634479611,0.18716288,-0.11399782,9.851867
351480654334330,0.17107381,-0.1043138,9.84317
351480674189050,0.21199456,-0.083180845,9.8377695
351480694043771,0.21408364,-0.07310648,9.822518
351480713909227,0.17638661,-0.0809741,9.823238
351480733764203,0.17840937,-0.08094614,9.819005
351480753619052,0.17125092,-0.08580317,9.811839
351480773474027,0.19878839,-0.097041845,9.781946
351480793328875,0.16817456,-0.12731889,9.753783
351480813183852,0.099290796,-0.10413085,9.806258
351480833034676,0.15934244,-0.114452936,9.811261
351480852889652,0.22734742,-0.083263755,9.824867
351480872744501,0.19160078,-0.04240208,9.8274355
351480892599348,0.16661957,-0.11181562,9.80638
351480912447997,0.15981832,-0.123519205,9.82358
351480932302718,0.19823915,-0.11657048,9.82241
351480952157437,0.21157458,-0.105074696,9.853424
351480972012285,0.1519304,-0.08156718,9.8686285
351480991867006,0.17838638,-0.11879989,9.864991
351481011718147,0.19748473,-0.108260505,9.813266
351481031572867,0.18662013,-0.08458515,9.778115
351481051427588,0.18375541,-0.1079235,9.773563
351481071282435,0.14681934,-0.1078762,9.743808
351481091137155,0.20807183,-0.08304717,9.799171
351481110991876,0.3064267,-0.08282417,9.813247
351481130842493,0.25448656,-0.08160854,9.825446
351481150697085,0.1217478,-0.0588171,9.867754
351481170551678,0.11368467,-0.06668121,9.850011
351481190406269,0.20583029,-0.10004103,9.785434
351481210258173,0.19147488,-0.08192251,9.778481
351481230112638,0.18917185,-0.09207252,9.768866
351481249967229,0.19112898,-0.09012628,9.759592
351481269821693,0.18199138,-0.07132094,9.775557
351481289676158,0.22361909,-0.06344037,9.812121
351481309530749,0.19874655,-0.058658157,9.847018
351481329371596,0.11862099,-0.07004807,9.834232
351481349225805,0.16870387,-0.088327445,9.828143
351481369080140,0.17928313,-0.077035055,9.819091
351481388934476,0.18390644,-0.07368413,9.820342
351481408788685,0.13690332,-0.057853196,9.8194065
351481428646726,0.13374321,-0.051690158,9.821391
351481448501062,0.22519456,-0.08420803,9.810543
351481468355399,0.23470947,-0.08402729,9.78259
351481488209734,0.2059148,-0.07111797,9.822131
351481508065594,0.17767057,-0.06354104,9.860311
351481527919931,0.13285743,-0.0530864,9.841783
351481547774394,0.15007058,-0.075605914,9.821049
351481567628858,0.17926186,-0.09672201,9.822555
351481587483195,0.112527326,-0.10858531,9.823187
351481607337658,0.14213297,-0.11432875,9.807582
351481627196029,0.22502764,-0.102972716,9.778878
351481647050366,0.22926135,-0.08027343,9.7616005
351481666904829,0.17849211,-0.02927145,9.796671
351481686759293,0.1350107,-0.046236545,9.802269
351481706613758,0.16021961,-0.066313,9.797511
351481726464487,0.20997134,-0.08146148,9.822015
351481746318695,0.22121815,-0.05757404,9.845087
351481766172904,0.1648901,-0.058795966,9.848124
351481786027111,0.13558616,-0.06578365,9.843568
351481805887574,0.16680904,-0.06538286,9.8357725
351481825741911,0.19564666,-0.055170394,9.820095
351481845596374,0.19701844,-0.039918084,9.802478
351481865450710,0.20503016,-0.021246446,9.815993
351481885305175,0.1672293,-0.03014143,9.813479
351481905159638,0.18318097,-0.02462245,9.806978
351481925025031,0.19615674,-0.025146581,9.789083
351481944879624,0.17719418,-0.044879667,9.779674
351481964734343,0.14902142,-0.046793934,9.76949
351481984588935,0.1881203,-0.05138436,9.789148
351482004443656,0.21750915,-0.049120236,9.831149
351482024303239,0.19562022,-0.033658437,9.828423
351482044157959,0.1602726,-0.027724274,9.846475
351482064012808,0.13134861,-0.040569503,9.849294
351482083867527,0.14726295,-0.07627443,9.859731
351482103728324,0.14434017,-0.0668115,9.868925
351482123583173,0.18773025,-0.08546439,9.817553
351482143438020,0.18550545,-0.09149587,9.781917
351482163292996,0.16585839,-0.05431385,9.814843
351482183147845,0.1849343,-0.060431264,9.844276
351482203002692,0.1671486,-0.09595923,9.791511
351482222863367,0.20279513,-0.084866814,9.770719
351482242718344,0.18208249,-0.11996115,9.788073
351482262573319,0.1443822,-0.11234316,9.792396
351482282428423,0.11492842,-0.09020059,9.803327
351482302283400,0.16888262,-0.09098118,9.818736
351482322148097,0.15983759,-0.09490411,9.828107
351482342003457,0.111045934,-0.09236702,9.796394
351482361858818,0.13900734,-0.11013388,9.784498
351482381714177,0.16272089,-0.14138173,9.832413
351482401569537,0.14986788,-0.14683113,9.869843
351482421424898,0.14067356,-0.116058394,9.898799
351482441283652,0.13776137,-0.10740345,9.878083
351482461139140,0.12798518,-0.12610397,9.839544
351482480994629,0.13563633,-0.10728529,9.796497
351482500850116,0.15389234,-0.12546074,9.751448
351482520701398,0.11900172,-0.1334949,9.7339115
351482540556759,0.12763238,-0.14844355,9.734484
351482560412118,0.14638242,-0.16379406,9.767725
351482580267606,0.11572994,-0.12025286,9.759701
351482600122967,0.11457124,-0.13345101,9.797901
351482619977168,0.091922715,-0.13861403,9.838913
351482639832528,0.084610745,-0.16004962,9.852588
351482659688017,0.092324354,-0.12928765,9.861438
351482679543378,0.08437013,-0.105268106,9.880805
351482699398736,0.09320481,-0.13440657,9.86874
351482719254225,0.11934818,-0.13704371,9.818182
351482739111699,0.15093948,-0.15948896,9.800006
351482758967187,0.1258561,-0.14074951,9.822111
351482778822676,0.06176857,-0.1383497,9.799018
351482798678163,0.09641502,-0.17641619,9.763952
351482818535097,0.12777568,-0.13268559,9.819741
351482838390714,0.16708115,-0.15094705,9.825861
351482858246201,0.113960646,-0.15842663,9.817375
351482878101817,0.05300101,-0.09726459,9.823321
351482897957434,0.10101047,-0.18111326,9.794332
351482917793601,0.09547383,-0.18632975,9.816013
351482937648705,0.041462883,-0.12774667,9.837886
351482957503810,0.049750764,-0.1575966,9.846075
351482977358785,0.058579188,-0.16237758,9.862263
351482997213890,0.07840964,-0.17022398,9.857063
351483017068995,0.09376942,-0.17824593,9.828458
351483036910160,0.07403016,-0.15302096,9.812188
351483056765005,0.0769228,-0.15069996,9.793239
351483076619726,0.122370504,-0.11813794,9.793872
351483096474573,0.10717117,-0.0806104,9.774837
351483116325916,0.1292192,-0.15932745,9.779368
351483136180509,0.15865,-0.19298488,9.763036
351483156035228,0.116207734,-0.14767599,9.774287
351483175889820,0.04496083,-0.1050459,9.790786
351483195744413,0.038378213,-0.111143395,9.7987175
351483215599132,0.06798058,-0.12854053,9.771902
351483235448129,0.10150441,-0.13013837,9.800568
351483255302722,0.09960144,-0.14808798,9.843759
351483275157185,0.06804425,-0.12924007,9.829482
351483295011649,0.0324524,-0.08101601,9.835421
351483314866242,0.09026503,-0.11478781,9.843177
351483334719109,0.11928589,-0.1127458,9.853181
351483354573574,0.09944092,-0.12486134,9.822626
351483374428039,0.08041625,-0.09898097,9.802005
351483394282504,0.09551137,-0.06833805,9.790375
351483414138851,0.11162732,-0.1290808,9.793293
351483433993188,0.100890465,-0.13812733,9.7999115
351483453847653,0.10818715,-0.15030955,9.781228
351483473702118,0.0723666,-0.13793714,9.75303
351483493556455,0.07714228,-0.104747064,9.798346
351483513410920,0.103085175,-0.11749425,9.843809
351483533261465,0.10817063,-0.14063251,9.841232
351483553115802,0.079162456,-0.11681576,9.832794
351483572970139,0.058918156,-0.124636166,9.8742
351483592824476,0.041433148,-0.12273373,9.864903
351483612678813,0.04176047,-0.12250599,9.850144
351483632535526,0.09672384,-0.17736651,9.843521
351483652389863,0.12939763,-0.17279589,9.844705
351483672244200,0.12679113,-0.13016997,9.844138
351483692098665,0.112903304,-0.13089316,9.82322
351483711960504,0.09734831,-0.15242514,9.783288
351483731814969,0.096387215,-0.15416604,9.768081
351483751669562,0.095855795,-0.14053231,9.773722
351483771524008,0.12980558,-0.13777404,9.804832
351483791378473,0.11980896,-0.14361878,9.846497
351483811233064,0.07681267,-0.12354699,9.859519
351483831080638,0.06648319,-0.11922314,9.874521
351483850935103,0.09618952,-0.14644049,9.868178
351483870789438,0.1431141,-0.17022754,9.812174
351483890643902,0.110490836,-0.13732554,9.761433
351483910498367,0.09440807,-0.12255959,9.71853
351483930355609,0.13626334,-0.13147378,9.741117
351483950210201,0.1354562,-0.11066766,9.792433
351483970064666,0.16676286,-0.17250726,9.814443
351483989919131,0.15623823,-0.17972407,9.838586
351484009766124,0.1179913,-0.12986763,9.863664
351484029620461,0.10017967,-0.12578009,9.83455
351484049474926,0.032654658,-0.104460075,9.801031
351484069329258,0.09231693,-0.13129748,9.824547
351484089183595,0.16971946,-0.1585285,9.832933
351484109038058,0.11866673,-0.10338544,9.842185
351484128898313,0.11962847,-0.11793599,9.813525
351484148752778,0.106662355,-0.14419724,9.773991
351484168607369,0.11580559,-0.1345129,9.807582
351484188461833,0.136014,-0.13046081,9.833531
351484208316298,0.12705183,-0.13437775,9.823564
351484228175491,0.09741431,-0.13170086,9.800453
351484248030083,0.07768992,-0.12588646,9.835502
351484267884676,0.056995586,-0.120741606,9.843344
351484287739267,0.06060389,-0.14251898,9.827082
351484307593859,0.10106648,-0.14149818,9.833071
351484327448452,0.13245456,-0.15822971,9.840029
351484347306299,0.08342633,-0.14428394,9.793834
351484367160892,0.056643028,-0.13857876,9.770091
351484387015613,0.10524831,-0.15759856,9.801048
351484406870334,0.12784372,-0.15354203,9.806975
351484426731759,0.13455857,-0.14553635,9.816546
351484446586608,0.13226832,-0.13051726,9.821772
351484466441585,0.12658632,-0.15608735,9.860935
351484486296434,0.09255487,-0.13980304,9.850812
351484506151411,0.070686184,-0.11956035,9.839031
351484526007638,0.08364031,-0.14981544,9.830678
351484545862615,0.09942664,-0.1623842,9.826519
351484565717464,0.0965519,-0.14749745,9.834064
351484585572441,0.08665853,-0.11805954,9.810985
351484605427418,0.10134396,-0.12197845,9.784779
351484625282267,0.13168071,-0.13381876,9.799172
351484645133922,0.14054756,-0.13935396,9.823355
351484664988771,0.09645575,-0.13681056,9.800017
351484684843492,0.09409588,-0.111399494,9.798397
351484704698341,0.12601908,-0.1660222,9.8157
351484724556940,0.086492896,-0.1387625,9.812237
351484744411789,0.060091943,-0.07293437,9.806861
351484764266747,0.08512031,-0.10151182,9.846171
351484784121595,0.059558235,-0.12874126,9.856246
351484803976572,0.080567956,-0.1441753,9.845939
351484823832519,0.13303724,-0.1698063,9.809937
351484843687367,0.13838491,-0.13652658,9.776351
351484863542344,0.10159726,-0.12009722,9.792598
351484883397191,0.10248194,-0.1295091,9.836766
351484903252039,0.10498293,-0.11601376,9.808663
351484923107016,0.11353162,-0.10420283,9.756909
351484942956774,0.13540325,-0.17489268,9.760736
351484962811622,0.10414474,-0.19915214,9.811783
351484982666471,0.04420258,-0.10636252,9.859899
351485002521190,0.029014233,-0.096902184,9.871833
351485022371278,0.03964066,-0.114952065,9.875007
351485042225999,0.06524133,-0.14242174,9.85424
351485062080846,0.04069716,-0.16848294,9.823983
351485081935566,0.016923612,-0.14040643,9.78022
351485101790415,0.065826684,-0.16136612,9.755736
351485121645134,0.12337831,-0.20270702,9.769979
351485141492133,0.0898077,-0.14765991,9.820842
351485161346726,0.06447162,-0.12216079,9.831482
351485181201317,0.06837535,-0.15999386,9.810126
351485201055909,0.078392565,-0.12710851,9.832472
351485220910374,0.0413172,-0.15156968,9.833007
351485240768580,0.00291258,-0.13058656,9.811539
351485260623173,0.047440093,-0.12881038,9.822974
351485280477894,0.09249725,-0.1761937,9.824935
351485300332487,0.056641642,-0.12757988,9.808022
351485320192082,0.02873947,-0.10993749,9.778493
351485340046803,0.034684643,-0.16277213,9.76054
351485359901652,0.036362413,-0.17261834,9.723934
351485379756373,0.06250828,-0.19182798,9.75302
351485399611222,0.077748135,-0.16503069,9.830972
351485419466071,0.059165932,-0.10285732,9.853042
351485439319060,0.04115512,-0.12689313,9.841131
351485459173781,0.012492319,-0.1535624,9.828971
351485479028502,0.022968255,-0.1575212,9.814375
351485498883223,0.030868305,-0.16836068,9.821413
351485518737944,0.044885054,-0.1542159,9.832355
351485538593275,0.062013283,-0.14656577,9.802092
351485558447996,0.055525813,-0.11384971,9.802711
351485578302717,0.066952996,-0.1758636,9.808476
351485598157566,0.054965645,-0.18667004,9.79062
351485618007599,0.042869315,-0.15492268,9.765072
351485637862192,0.036933746,-0.19218086,9.790962
351485657716785,0.028588336,-0.13963482,9.845393
351485677571250,0.027749635,-0.14070961,9.800671
351485697425843,0.047833934,-0.15267524,9.828157
351485717280415,0.08364578,-0.13163935,9.836571
351485737141664,0.07081823,-0.17054534,9.7778845
351485756996385,0.05462845,-0.103649415,9.787803
351485776851103,0.05943275,-0.11014308,9.783923
351485796705823,0.0664513,-0.1835762,9.7538805
351485816560544,0.09404076,-0.11901794,9.723049
351485836418429,0.14926681,-0.13958232,9.739078
351485856268420,0.12825288,-0.1110308,9.712259
351485876123141,0.09178543,-0.12746139,9.6553755
351485895977988,0.0955036,-0.1483923,9.6670885
351485915832708,0.108163476,-0.12315481,9.673504
351485935687557,0.10901744,-0.122833535,9.6564245
351485955537492,0.09034458,-0.13504346,9.678443
351485975392212,0.0989819,-0.10705534,9.671223
351485995246805,0.097398974,-0.13414583,9.657545
351486015101526,0.09564114,-0.13076541,9.649796
351486034958515,0.09514718,-0.1203951,9.635184
351486054813236,0.07662587,-0.11942426,9.590957
351486074667953,0.06547049,-0.10645102,9.5762
351486094522673,0.100722134,-0.12394689,9.606425
351486114377394,0.13092908,-0.16535592,9.58296
351486134235094,0.076449774,-0.109525464,9.550598
351486154089814,0.05772009,-0.07744416,9.598592
351486173944663,0.075047806,-0.10837501,9.601865
351486193799510,0.027037585,-0.11866405,9.575774
351486213654231,0.0042782384,-0.12657057,9.525491
351486233509080,0.03926982,-0.13416573,9.544271
351486253372725,0.048296977,-0.11589081,9.534231
351486273227702,0.04077577,-0.13707228,9.510052
351486293082679,0.06044557,-0.10436048,9.510152
351486312937784,0.049636383,-0.114719875,9.460434
351486332793489,0.018199634,-0.16501959,9.4400215
351486352648594,0.007119745,-0.12294609,9.501504
351486372503571,0.07468563,-0.16267441,9.493939
351486392358676,0.07456182,-0.1484596,9.456853
351486412213781,0.052632533,-0.12956312,9.4241085
351486432076444,0.011331177,-0.12240349,9.354297
351486451931805,-0.015375387,-0.105741814,9.270907
351486471787038,0.0057240357,-0.15144148,9.286111
351486491642399,0.03344396,-0.1863341,9.34008
351486511497632,0.04744513,-0.14916117,9.398054
351486531352865,0.06750741,-0.15542354,9.393267
351486551197858,0.067620724,-0.13672157,9.390845
351486571052963,0.03285614,-0.09172258,9.367222
351486590908068,0.036077805,-0.14146262,9.286431
351486610763173,0.039018594,-0.13084641,9.250121
351486630611386,0.06630406,-0.16189583,9.279272
351486650466363,0.06250721,-0.17542872,9.290647
351486670321190,0.07600318,-0.13511811,9.254353
351486690176167,0.094532914,-0.14863789,9.281267
351486710031016,0.051016167,-0.1158158,9.309813
351486729885993,0.08208988,-0.13918033,9.270714
351486749742216,0.044930592,-0.13963722,9.241644
351486769597065,0.028978435,-0.13192351,9.269397
351486789451912,0.018642096,-0.14734384,9.296952
351486809306888,0.01614497,-0.12648675,9.295641
351486829161737,0.04972061,-0.123633325,9.2617655
351486849018529,0.02784748,-0.13209367,9.260004
351486868873505,0.004068652,-0.11240646,9.26283
351486888728354,0.013011703,-0.19193794,9.242885
351486908583329,0.0046979296,-0.2028571,9.177961
351486928433478,-0.006455633,-0.19005798,9.181996
351486948288327,0.0016721879,-0.16062237,9.278734
351486968143174,-0.0069544283,-0.13339175,9.27934
351486987998022,0.004114254,-0.11068645,9.2281685
351487007852871,-0.009575196,-0.13003993,9.227747
351487027707720,-0.060635217,-0.16961609,9.273781
351487047513056,-0.07273578,-0.12275504,9.292047
351487067367009,-0.07109565,-0.08835697,9.275582
351487087220960,-0.0343549,-0.12026219,9.245086
351487107074784,-0.039785925,-0.19432311,9.251098
351487126928737,-0.06296389,-0.1484388,9.252426
351487146781500,-0.060769092,-0.12734723,9.204751
351487166635324,-0.03541733,-0.13539624,9.166781
351487186489149,-0.026398215,-0.17827989,9.196621
351487206342844,-0.11222455,-0.18763457,9.22996
351487226207323,-0.0910721,-0.1339599,9.260888
351487246061276,-0.073647395,-0.12702435,9.210782
351487265915229,-0.108323194,-0.13902065,9.155164
351487285769182,-0.13254185,-0.14064746,9.217951
351487305623135,-0.11735456,-0.12653412,9.287119
351487325477088,-0.11132417,-0.07908694,9.252397
351487345335593,-0.11353804,-0.06309865,9.258991
351487365189546,-0.09623546,-0.14284615,9.231989
351487385043499,-0.0901432,-0.160279,9.204105
351487404897580,-0.06292548,-0.09484165,9.221598
351487424751533,-0.03954368,-0.111380115,9.258235
351487444613332,-0.049855184,-0.11895492,9.218341
351487464467413,-0.0938339,-0.12868829,9.200212
351487484321494,-0.09612417,-0.14561526,9.230042
351487504175703,-0.07580376,-0.11983639,9.23873
351487524026622,-0.08177726,-0.088486366,9.246832
351487543880703,-0.031234311,-0.07203538,9.220435
351487563734656,-0.034256674,-0.12148191,9.19926
351487583588609,-0.06383035,-0.14730933,9.213677
351487603442690,-0.10047064,-0.13680351,9.205481
351487623296643,-0.013207865,-0.07152673,9.267873
351487643157652,0.013976146,-0.09925049,9.252882
351487663011733,-0.020349806,-0.17377912,9.203727
351487682865793,-0.0020901645,-0.17741875,9.199482
351487702719874,-0.0057790764,-0.16042222,9.222735
351487722574083,-0.07817057,-0.07983711,9.17603
351487742435242,-0.10429868,-0.03262449,9.217054
351487762289447,-0.1318071,-0.097921215,9.2823715
351487782143656,-0.1024855,-0.14467339,9.263967
351487801997863,-0.03958588,-0.13094014,9.222421
351487821852071,-0.002970964,-0.06314628,9.214838
351487841706280,-0.009353749,-0.03503761,9.225592
351487861568131,-0.12636055,-0.082790665,9.190082
351487881426198,-0.24112943,-0.07781977,9.209104
351487901280663,-0.22024783,0.0022185587,9.149412
351487921135126,-0.15557185,-0.03091795,9.196042
351487940997868,-0.0051762997,-0.07350352,9.272348
351487960852461,0.04951997,-0.0685736,9.213041
351487980707052,-0.0077593382,-0.21591496,9.162325
351488000561644,-0.012037264,-0.18703793,9.252825
351488020416237,0.058153484,-0.26495674,9.343161
351488040274639,0.13122766,-0.30053955,9.361069
351488060129487,0.14822614,-0.22927453,9.326863
351488079984336,0.06929051,-0.22674088,9.187466
351488099839055,-0.081782214,-0.24305826,9.078571
351488119693903,-0.16335887,-0.24485038,9.0895
351488139548624,-0.19271936,-0.14922781,9.195007
351488159406574,-0.2553214,-0.080703996,9.302087
351488179261422,-0.29086104,-0.08910536,9.338564
351488199116271,-0.21382554,-0.12158762,9.340234
351488218971118,-0.08757324,-0.21772942,9.314932
351488238833856,-0.039015446,-0.13856527,9.362703
351488258688833,0.09004897,-0.09196145,9.230751
351488278543936,0.07484842,-0.09550743,9.338729
351488298398912,0.15156451,-0.28654265,9.50059
351488318254017,-0.2214667,-0.48791578,9.447649
351488338114106,-0.26540437,-0.3525284,9.175523
351488357969467,-0.3052938,-0.05536455,9.243763
351488377824700,-0.16631506,0.47107443,9.353705
351488397680061,0.10427982,0.033588808,9.088587
351488417535422,-0.16658302,-0.15867357,9.465895
351488437390655,0.09852678,0.4757799,9.500802
351488457255226,0.10169502,0.174261,9.656513
351488477110843,-0.560978,-0.42586425,9.264941
351488496966460,-0.55104005,-0.09658477,9.213039
351488516822077,0.03824702,0.018132847,9.996536
351488536674598,-0.15416345,-0.51372373,9.370739
351488556530215,-0.30004185,-0.27764148,9.212639
351488576385960,0.26308942,0.13859577,8.983044
351488596241577,-0.22717793,-0.2990027,9.121129
351488616097322,0.40767363,0.33676597,9.778156
351488635952939,0.18760349,-0.35371464,9.346135
351488655780810,-0.6081047,-0.9933322,9.072983
351488675635659,-0.2624236,-0.15935397,9.905747
351488695490380,-0.0061693927,-0.22247873,9.326443
351488715345229,-0.21034437,-0.26830658,9.531736
351488735199950,0.2819117,-0.02701308,9.611994
351488755051819,-0.16068833,-0.46890393,9.267577
351488774906519,-0.357353,-0.20320638,9.607737
351488794761112,0.08851888,-0.05628585,10.134472
351488814615831,0.23015283,-0.22202598,9.8237295
351488834479475,-0.19008718,0.038470726,8.9849205
351488854334452,-0.2183847,0.448718,9.576459
351488874189299,-0.24694407,-0.18483858,9.290103
351488894044275,-0.63514656,-0.14562465,9.770971
351488913899124,0.28762528,0.29643136,9.780585
351488933754099,7.8201835E-4,0.00646363,9.270046
351488953600146,0.050613575,-0.8201744,9.702868
351488973454867,0.18984947,-0.5029116,9.522659
351488993309586,0.82695246,0.020467252,9.714779
351489013164306,0.5358171,0.016644107,9.641298
351489033019027,-0.33928308,0.20922141,9.5259695
351489052864239,0.039955482,0.3519247,9.656098
351489072718832,0.1794511,0.42953306,9.683152
351489092573425,0.11348587,0.17685229,9.929298
351489112428018,-0.0062493565,-0.35262272,10.180448
351489132278601,0.10825659,-0.50296044,9.827079
351489152133066,0.03318966,-0.3186159,9.606655
351489171987525,0.15319254,-0.41188997,9.982446
351489191841989,0.098822825,-0.41571122,10.417809
351489211696326,0.35424608,-0.21335545,10.084542
351489231550789,0.7136897,-0.1831663,9.520077
351489251401645,0.0087360935,-0.5216681,9.93114
351489271255982,0.2172119,-0.41779596,10.576668
351489291110317,0.73085177,0.32777107,10.009632
351489310964653,0.8149121,0.8415863,9.63219
351489330818990,-0.14073323,1.8981514,9.430894
351489350673043,-2.8636465,1.7152263,6.737503
351489370527379,-5.4742575,0.9368343,3.6447227
351489390381716,-3.4458396,-4.962748,12.848452
351489410236053,-0.43539372,-6.7613106,12.621717
351489430092584,0.21591273,-5.5955286,10.645258
351489449946921,0.61120516,-5.3969016,9.618929
351489469801258,-0.30664864,-3.5565922,6.8713236
351489489655595,-1.0497643,-2.3482454,7.5083075
351489509509932,-1.3120075,-2.379566,9.97899
351489529364269,-1.4783713,-3.2822595,10.873496
351489549221044,-1.4787425,-5.403477,9.542746
351489569075381,-1.0071628,-5.4829144,9.44062
351489588929846,-0.91795385,-4.4815044,9.233252
351489608784183,-1.5415517,-3.8481905,8.00612
351489628638520,-2.2721064,-1.4217018,8.346607
351489648489707,0.12093099,1.5602487,9.294676
351489668343916,1.4205556,3.4173858,9.792566
351489688198253,-0.69676304,2.9755895,9.316305
351489708052462,-0.07904534,0.8963968,10.082635
351489727906671,-0.9356655,0.025802625,9.488375
351489747761008,-1.6700754,-1.4947934,8.9657135
351489767608061,-0.9454933,-1.2527916,9.965161
351489787462141,0.2361853,0.5534628,10.230779
351489807316350,0.60820776,0.15677561,10.31042
351489827170429,0.28894672,-0.90951353,10.150966
351489847034268,0.5516948,-1.8847843,10.549078
351489866888605,2.077419,-0.9508817,11.963193
351489886742940,0.42626065,0.6259621,10.0937195
351489906598808,-0.76842713,1.7188065,8.654561
351489926453145,0.5808885,0.5749414,9.725617
351489946306938,6.425588,-1.1631376,12.967587
351489966161274,3.3366334,-2.194846,9.690538
351489986015611,-4.5660963,-0.77258545,6.380283
351490005869820,-1.8597953,-0.8662321,10.398857
351490025724157,-0.6150193,3.3123558,11.3873825
351490045578494,-5.161202,3.8235867,6.6608205
351490065438427,-6.185456,-1.3084527,5.423509
351490085292887,-0.69977856,-0.28940096,10.691495
351490105147352,1.2545284,-2.2485602,12.608831
351490125001815,0.48408398,-3.4742794,9.409191
351490144865264,1.7438021,-1.5888733,10.360984
351490164719857,2.6443074,-0.59099364,11.62492
351490184574576,-1.6438705,-0.94528174,11.322924
351490204429168,-1.6317955,-1.2727002,12.712473
351490224283761,0.653,-1.4142896,12.229484
351490244139073,-0.29605618,0.05208505,11.400823
351490263993665,-1.7015077,-0.88129026,11.025892
351490283848258,-0.9304058,1.104896,11.25668
351490303702977,0.26826367,0.871456,11.4148655
351490323557569,-0.048186664,-0.8052437,10.18284
351490343412290,0.05025666,0.22605562,8.716763
351490363265428,-0.7218688,0.027562119,8.482581
351490383120020,-2.4660747,0.84214944,7.2857094
351490402974613,-0.6523005,0.9914068,7.774609
351490422829334,1.9668499,-2.150252,10.3364315
351490442695971,-1.0073304,-1.9578024,8.4339695
351490462550948,-0.7326366,0.87408257,7.2978306
351490482405925,0.61625,0.68648964,9.3942
351490502260896,0.24272847,-0.72178704,10.204854
351490522115873,-1.990312,-0.9928443,10.640896
351490541970848,0.027302166,-1.1008929,9.572142
351490561823283,3.5858688,-3.1596208,8.010214
351490581678260,-5.7524242,1.8533285,15.304654
351490601533235,-3.800797,0.6401452,14.679522
351490621388211,1.013144,-4.041639,17.027315
351490641243060,6.0003433,-6.3046823,13.651486
351490661097861,4.7191286,-0.77370286,9.60905
351490680952709,-4.0551586,-3.1017566,10.195263
351490700807558,-0.24260142,0.8297059,8.347216
351490720662533,4.2983656,2.673512,7.621474
351490740519953,-0.16823193,4.456488,10.559062
351490760374930,0.40519083,6.675435,10.80412
351490780229905,2.7223427,6.7192535,10.565687
351490800084881,1.7140675,6.778308,11.160825
351490819939858,0.115496285,2.9410408,12.172467
351490839794833,-0.7682838,-1.1502569,10.232382
351490859649468,-1.7566189,0.122166805,10.343354
351490879504445,-1.307664,-2.1966445,8.727098
351490899359420,-1.8280532,-0.8989655,9.578716
351490919214397,-2.775363,-1.4541482,11.456729
351490939069246,1.0916748,2.0416796,12.691623
351490958917343,1.8311874,6.1178117,10.132309
351490978772192,-0.45783085,3.2322512,12.3541765
351490998626913,1.0310829,2.8799956,14.01587
351491018481756,-3.4529905,4.667179,13.44072
351491038328370,-10.313698,4.066932,14.098844
351491058183091,-2.901971,-1.7056613,5.6525702
351491078037810,0.1326667,-1.4557242,3.267313
351491097892530,-2.7584627,1.589146,9.146331
351491117747251,-1.42094,1.5995828,11.20035
351491137601970,-0.062985584,-2.28832,6.0161996
351491157449609,1.6832056,-1.571309,2.4750483
351491177304202,2.5532844,1.6430885,1.9857475
351491197158793,2.0789459,4.005526,0.7817921
351491217013385,0.07486684,3.7456586,2.296741
351491236867978,-2.395056,3.6154807,2.6574218
351491256719171,-5.3747354,-1.8754435,9.69247
351491276573764,-2.5022335,-2.2137938,12.643156
351491296428229,-3.4616401,-2.68874,8.71301
351491316282694,1.50054,-1.1302525,7.930443
351491336130523,0.34951133,-4.0931983,11.138273
351491355984732,-6.3855534,-7.636065,8.744379
351491375839067,-3.6444888,-8.5664625,11.549677
351491395693275,0.8025821,1.7862887,15.96881
351491415547484,-1.0911692,0.011627685,9.06595
351491435401819,-1.1822584,-3.797513,5.1586175
351491455258886,-2.2396643,-3.746738,6.415004
351491475113223,-2.1249871,-2.7946389,9.388562
351491494967558,-0.11044912,6.4979625,13.2325735
351491514821766,-2.8131788,-1.0474086,14.581452
351491534676103,-3.0774617,-3.9197853,14.031034
351491554531934,-0.27789798,-3.2886243,9.968799
351491574386142,1.4163256,-1.8392272,9.046715
351491594240479,-0.01357253,-0.39525133,10.343967
351491614094686,-0.5542916,-1.1382192,8.88715
351491633949022,1.7096903,1.8549013,5.8199
351491653803231,1.3986835,-0.41020986,8.590608
351491673661315,0.5980341,-1.0350838,9.185862
351491693515651,1.1316326,-0.62681866,9.518417
351491713369988,1.0784566,-1.1056652,9.995214
351491733224195,-0.16302264,0.28637284,9.948538
351491753080239,0.46918383,0.5856908,8.99251
351491772934704,1.175281,-1.8475453,8.093369
351491792789039,-1.145375,-0.2409677,9.603518
351491812643503,-0.1706061,1.4851937,10.085414
351491832497840,1.5443454,1.2833,8.976342
351491852354234,0.34918708,1.3636714,9.576274
351491872208699,-1.3151395,1.2789623,8.350375
351491892063164,-1.6494447,0.7980832,9.60154
351491911917501,0.0026625227,-1.5371404,10.637197
351491931772399,1.0549768,-3.5583143,12.117389
351491951626736,-0.6312925,-1.1046348,13.097256
351491971486853,-2.1393113,1.2698175,10.910337
351491991341317,-2.7167368,3.367715,8.420791
351492011195910,3.109672,-0.19568302,6.5251265
351492031050373,4.3618402,-1.6878756,7.485564
351492050905990,-0.1996808,-0.5693827,9.564416
351492070760583,1.355066,-1.6603492,9.398932
351492090615174,2.842985,-2.8643947,9.7426
351492110469638,2.4223914,-1.6784163,8.392979
351492130324231,1.2476789,1.108318,6.176393
351492150178822,-2.0955184,1.2298853,8.612977
351492170036291,-2.50167,0.53165334,10.309133
351492189890884,-1.8428766,1.1136342,6.4913335
351492209745475,1.0377499,-6.296095,2.1267507
351492229600195,-3.5001225,2.144597,9.443659
351492249454788,-6.987838,7.030843,16.293406
351492269311110,-4.3263545,1.4761198,16.518913
351492289165830,-1.7027789,0.24584515,11.296502
351492309020551,-0.7146608,-0.6721532,9.566399
351492328875270,1.0662881,0.15008558,7.287166
351492348736329,0.39555034,0.4968149,7.3871555
351492368591178,-1.1834447,2.4249845,11.020335
351492388446153,-1.177906,2.7511904,15.030831
351492408301001,-1.6889161,0.58555394,12.713163
351492428155850,0.21607526,0.16063856,9.840899
351492448010825,0.5276486,0.5685128,10.280163
351492467866277,-0.13972296,1.1462158,10.127804
351492487721254,-0.5732314,1.2756497,10.108216
351492507576229,0.43830186,1.0751214,10.350809
351492527431205,0.7240681,0.1571754,10.508851
351492547286182,-0.11641417,-0.35895354,9.9351
351492567135075,-0.3052499,0.8637314,9.326031
351492586990051,-1.2480416,1.6322194,10.346262
351492606844900,-1.7977881,2.3008227,11.5810175
351492626699747,-0.08265496,1.2963859,11.8632
351492646548634,0.49777463,-0.3098963,10.852159
351492666403227,0.48147938,-0.757289,9.738029
351492686257946,0.028536592,-0.4505337,9.974378
351492706112666,-0.555444,-0.082136735,10.708716
351492725967387,-0.39090508,0.37558734,10.009398
351492745822106,-0.16638748,0.4394035,8.656138
351492765674553,-0.25596717,0.38365152,9.011629
351492785529146,-0.35647812,0.7931234,9.888969
351492805383737,-0.4404247,0.827174,9.879525
351492825238329,-0.2270525,0.37669423,9.561002
351492845093050,0.23807012,-0.23868613,8.879271
351492864931452,0.4293278,-0.4006562,8.682241
351492884785788,-0.09735714,0.13239005,9.527268
351492904640125,-0.523926,0.8026461,10.083459
351492924494332,-0.5504002,0.7123747,9.707188
351492944343719,-0.42639545,0.608187,9.35955
351492964197928,-0.25676653,0.66204286,9.308739
351492984052007,-0.29539457,0.5004009,9.523899
351493003906215,-0.35129967,0.38942036,9.826757
351493023760296,-0.27272326,0.2498619,9.863721
351493043614503,-0.38230908,0.3568453,9.663615
351493063466450,-0.38563916,0.48486236,9.495043
351493083320531,-0.40057364,0.519682,9.558534
351493103174610,-0.37879708,0.28362417,9.780286
351493123028690,-0.28993446,0.14038323,9.823924
351493142882771,-0.20992936,0.22867674,9.488604
351493162736574,-0.13026166,0.30150756,9.07936
351493182590654,-0.12182053,0.22674142,9.545188
351493202444607,-0.3957424,0.04331561,10.556654
351493222298686,-0.3967701,-0.20803908,10.055593
351493242152766,-0.2278633,0.15025276,8.730527
351493262006719,0.55053777,1.0308921,8.137716
351493281868005,0.25606287,-0.28690535,8.957684
351493301722213,-1.0726662,-0.0691594,10.952447
351493321576422,-1.6980062,0.8239864,11.171338
351493341430501,-0.73991394,0.80097723,9.63031
351493361286276,-0.099097095,0.28741884,9.406029
351493381140357,-0.19306096,0.31586236,9.749191
351493400994564,-0.08768127,-0.029055076,9.937217
351493420848644,0.015951911,-0.21809727,9.772862
351493440702853,0.24824396,-0.10957302,9.131972
351493460558148,0.15372138,0.22116658,8.931946
351493480412228,0.090236545,0.16094325,9.398683
351493500266437,-0.011770893,0.15506263,9.950192
351493520120516,-0.13614027,0.18767075,9.912748
351493539974724,-0.17017832,0.39224827,9.46255
351493559828805,-0.3206033,0.36118844,9.921651
351493579687973,-0.4050959,0.26554954,10.2334385
351493599542309,-0.23459473,0.121313885,9.907267
351493619396646,-0.14046511,-0.03318507,9.903122
351493639250853,-0.1865547,0.33260462,9.442307
351493659109312,0.07659844,0.9350093,8.379815
351493678963649,-0.07289631,0.26562366,8.87852
351493698817984,-0.546471,-0.015725082,10.612575
351493718672320,-0.62907946,-0.075823925,11.339351
351493738526657,-0.44894618,0.2424563,9.796948
