UPTIMENANO,Ax,Ay,Az
86098403256341,-1.1999048,9.589659,-0.86220706
86098423114262,-1.1352394,9.72857,-0.91010743
86098442972183,-1.0226734,9.7812605,-0.8430469
86098462822540,-0.99393314,9.81,-0.7113208000000001
86098482680333,-1.0035132,9.683064,-0.77359134
86098502537998,-1.0609937,9.649534,-0.977168
86098522395791,-1.0657837,9.649534,-0.95561284
86098542253584,-1.1232642,9.484278,-0.87897223
86098562106743,-1.3412110000000002,9.508227999999999,-0.81909674
86098581964408,-1.3507911,9.70941,-0.9053174
86098601822201,-1.214275,9.845925,-1.0609937
86098621679866,-1.1064991000000002,9.798025,-0.8909473
86098641537531,-1.1639795,9.5633135,-0.8095166
86098661389674,-1.1999048,9.541758999999999,-0.81909674
86098681247211,-1.089734,9.687855,-0.8167017
86098701104876,-0.99393314,9.7812605,-0.8382569
86098720962391,-1.0011181999999998,9.788445,-0.9196875
86098740820056,-1.0298585,9.79084,-0.9963281999999999
86098760677721,-0.9867481,9.7142,-0.98914313
86098780538724,-0.9651929,9.795630000000001,-0.94603276
86098800396261,-0.8909473,9.592053,-0.98435307
86098820253926,-0.8646021,9.589659,-0.974773
86098840111586,-0.7161109,9.606423,-0.9029224
86098859969250,-0.6179150999999999,9.659114,-1.1232642
86098879827481,-0.6730005,9.692644,-1.1783496
86098899685145,-0.8310718,9.721385,-1.1424243
86098919542809,-0.8885523000000001,9.75731,-1.0250684
86098939400473,-0.91010743,9.795630000000001,-1.0154883
86098959258137,-0.9268726,9.750125,-1.0729688
86098979115600,-0.97237796,9.611214,-1.1831397
86098998973264,-1.0370435,9.517808,-1.1663746000000002
86099018830800,-1.0130934,9.594449000000001,-1.0538087
86099038688464,-0.9508228000000001,9.5489435,-1.0106983
86099058546128,-1.089734,9.618399,-1.0346485
86099078412612,-1.1759547,9.632769,-1.0538087
86099098270532,-1.2358301999999999,9.663903999999999,-1.1232642
86099118128324,-1.3172607,9.78605,-1.0298585
86099137986244,-1.3891114,9.75252,-1.0562036
86099157844036,-1.3651612,9.855506,-1.0106983
86099177703328,-1.2406201000000001,9.8866415,-0.92208254
86099197561248,-1.0490186000000001,9.513017999999999,-0.9699829
86099217419168,-1.1807446000000001,9.326205999999999,-1.0394385
86099237277088,-1.2406201000000001,9.517808,-1.0729688
86099257134880,-1.0777588,9.79084,-0.9699829
86099276984419,-0.9867481,9.941727,-0.9436377
86099296842211,-0.9627979,9.769285,-1.099314
86099316699875,-1.1352394,9.6758795,-1.0083033000000001
86099336557667,-1.1591895,9.529783,-0.90771246
86099356415459,-1.0514137,9.513017999999999,-1.0657837
86099376265953,-1.0394385,9.639954,-0.8981324
86099396123362,-1.0681788,9.745335,-0.91010743
86099415980771,-1.0825489,9.74773,-1.0346485
86099435838308,-1.1903248,9.637559,-1.0106983
86099455695717,-1.2621753,9.587264,-1.0514137
86099475555314,-1.1975098,9.496253,-1.0705738
86099495412851,-1.1424243,9.520203,-1.0250684
86099515270388,-1.2358301999999999,9.821976,-0.9532178
86099535127925,-1.2022998,9.77168,-0.9316626
86099554985462,-1.1208692,9.73815,-0.88376224
86099574848411,-1.0418334999999999,9.627979,-0.88376224
86099594706076,-0.9364527,9.616004,-0.97237796
86099614563741,-0.90771246,9.558523,-0.85741705
86099634421406,-0.8909473,9.601633999999999,-0.80712163
86099654279071,-0.9508228000000001,9.577683,-0.855022
86099674138812,-1.0298585,9.778865,-0.9316626
86099693996477,-1.0202783000000002,9.678274,-0.855022
86099713854142,-0.9268726,9.611214,-0.9987232
86099733711679,-0.90771246,9.678274,-1.0226734
86099753569344,-0.95561284,9.769285,-0.88376224
86099773440259,-0.92926764,9.766891000000001,-0.85741705
86099793298308,-0.8646021,9.656719,-0.855022
86099813156229,-0.91729254,9.683064,-1.1088941
86099833014278,-0.9867481,9.742939999999999,-1.0777588
86099852872177,-1.094524,9.769285,-0.9388476999999998
86099872729373,-1.099314,9.812395,-0.9580079
86099892587421,-0.95561284,9.654325,-1.0394385
86099912445469,-0.88376224,9.663903999999999,-1.1615845
86099932303517,-0.95561284,9.616004,-1.1591895
86099952161565,-1.0418334999999999,9.553733,-1.2118799999999998
86099972028762,-1.1328443000000001,9.690249,-1.0681788
86099991887066,-1.094524,9.625584,-1.1759547
86100011745242,-0.9532178,9.536968,-1.2981006000000002
86100031603546,-1.0562036,9.592053,-1.22625
86100051461850,-1.1160791,9.632769,-1.2957056999999998
86100071315796,-1.1136841999999998,9.656719,-1.2693603999999998
86100091173972,-1.0609937,9.685459,-1.223855
86100111032148,-1.1160791,9.678274,-1.2525953
86100130890324,-1.2621753,9.642349000000001,-1.214275
86100150748500,-1.3412110000000002,9.508227999999999,-1.1735597
86100170601038,-1.3579761000000001,9.465117,-1.2382251
86100190459086,-1.2645704,9.529783,-1.1352394
86100210317134,-1.331631,9.788445,-1.099314
86100230175183,-1.0562036,9.821976,-1.2717555
86100250033232,-0.9029224,9.70941,-1.2717555
86100269888199,-0.9867481,9.5633135,-1.0178833
86100289746244,-0.8981324,9.407638,-1.1041040000000002
86100309604164,-0.96758795,9.599238,-1.1088941
86100329462085,-1.089734,9.802814999999999,-1.0418334999999999
86100349320004,-1.0753639,9.903406,-1.1208692
86100369174673,-1.1663746000000002,9.7740755,-1.0921290000000001
86100389032594,-1.0753639,9.515413,-1.1280543
86100408890513,-0.93405765,9.599238,-1.1927198
86100428748434,-1.0921290000000001,9.68067,-1.0873389
86100448606355,-1.101709,9.630374,-1.1112891000000003
86100468463490,-1.1520045,9.695039999999999,-1.0562036
86100488321283,-1.1807446000000001,9.678274,-1.1304493
86100508179204,-1.1064991000000002,9.577683,-1.2933106
86100528037125,-0.91729254,9.575289,-1.1328443000000001
86100547884950,-1.3412110000000002,9.697434,-0.8334668
86100567742615,-1.4370118,9.769285,-1.2573853000000002
86100587600280,-1.2789403999999998,9.740545,-1.2046948999999998
86100607457945,-1.0849438999999999,9.690249,-0.9651929
86100627315610,-0.9963281999999999,9.601633999999999,-1.0130934
86100647173275,-0.9508228000000001,9.635164,-1.1112891000000003
86100667036382,-1.089734,9.663903999999999,-1.1807446000000001
86100686894175,-1.0729688,9.829161000000001,-1.0753639
86100706751968,-0.8143066999999999,9.814791,-1.1567944
86100726609761,-0.9508228000000001,9.855506,-1.2022998
86100746467682,-1.0562036,9.596844,-1.1855347
86100766331593,-1.2693603999999998,9.642349000000001,-1.1088941
86100786189514,-1.3052857,9.726174,-1.0514137
86100806047435,-0.9699829,9.783655,-0.96758795
86100825905356,-0.8047266,9.611214,-0.8765772
86100845763387,-0.7879615,9.206455,-1.1807446000000001
86100865621308,-0.7592211999999999,9.19448,-1.4082716
86100885478721,-1.2837305,10.013577,-1.1591895
86100905336513,-1.3268408999999999,10.130933,-1.0729688
86100925194433,-1.3507911,9.917776,-1.5495777
86100945052225,-1.0490186000000001,9.539363,-1.4250367
86100964910145,-0.9388476999999998,9.223221,-1.3507911
86100984769851,-0.93405765,9.424402,-1.4489869
86101004627771,-0.87418216,9.594449000000001,-1.3507911
86101024485691,-1.0106983,9.798025,-1.2861254999999998
86101044343483,-1.0250684,9.821976,-1.3292358999999998
86101064201403,-0.88376224,9.80521,-1.5184423999999999
86101084055916,-0.8909473,9.572892999999999,-1.1855347
86101103913708,-1.0083033000000001,9.369317,-1.1160791
86101123771372,-1.0011181999999998,9.5489435,-1.1376343
86101143629164,-0.85023195,9.639954,-1.4992822000000001
86101163486956,-0.9029224,9.733359,-1.6357985000000002
86101183341597,-0.91729254,9.807606,-1.4298267
86101203199389,-0.61073,9.5561285,-1.4513819
86101223057053,-0.6490503000000001,9.654325,-1.22625
86101242914717,-1.4585668999999999,9.833950999999999,-0.76401126
86101262772509,-1.7172291000000002,9.733359,-1.0490186000000001
86101282630673,-0.9436377,9.68067,-1.2933106
86101302488466,-0.48139894,9.596844,-1.0130934
86101322346131,-0.5005590999999999,9.529783,-1.1711646
86101342203924,-0.75203615,9.606423,-1.334026
86101362061589,-0.84065187,9.651928999999999,-1.099314
86101381918180,-0.84065187,9.742939999999999,-0.99393314
86101401775973,-0.974773,9.716595,-1.1184741000000002
86101421633766,-1.2525953,9.685459,-1.1687696
86101441491431,-1.6214283,9.77647,-1.1520045
86101461349224,-1.5423926000000001,9.5633135,-1.1520045
86101481210781,-1.2957056999999998,9.429193,-0.97237796
86101501068564,-1.1280543,9.517808,-0.8885523000000001
86101520926356,-1.0154883,9.606423,-1.1208692
86101540784148,-0.9532178,9.74773,-1.0873389
86101560641940,-0.8047266,9.841136,-1.0418334999999999
86101580501065,-0.83586186,9.970467,-0.74724615
86101600358986,-0.9532178,9.869876,-0.7113208000000001
86101620216779,-0.9963281999999999,9.702225,-1.0346485
86101640074700,-1.0418334999999999,9.632769,-1.0705738
86101659932621,-1.1663746000000002,9.465117,-1.0394385
86101679788274,-1.2070899,9.328602,-1.0442286
86101699646195,-1.0921290000000001,9.489068,-1.0514137
86101719503988,-0.90052736,9.72378,-0.9963281999999999
86101739361909,-0.87418216,9.853110000000001,-1.1400293
86101759219702,-1.3100758,9.970467,-0.87897223
86101779085175,-1.4705421,9.798025,-0.9867481
86101798938041,-1.2094848999999999,9.606423,-1.1352394
86101818796089,-0.9987232,9.517808,-0.88376224
86101838654009,-0.9244776,9.477093,-0.8646021
86101858512057,-0.9268726,9.527389,-1.0705738
86101878370059,-1.1256591999999999,9.742939999999999,-0.9651929
86101898228107,-1.1304493,9.6758795,-0.90052736
86101918086027,-1.1041040000000002,9.572892999999999,-0.974773
86101937944075,-1.0777588,9.707015,-0.95561284
86101957802123,-1.1136841999999998,9.908196,-0.87418216
86101977661191,-1.1783496,9.941727,-0.8885523000000001
86101997519239,-1.1639795,9.663903999999999,-0.9867481
86102017377287,-1.1663746000000002,9.481883,-0.9053174
86102037235207,-1.0609937,9.398057000000001,-0.8310718
86102057093255,-0.977168,9.522598,-0.8478370000000001
86102076952173,-0.9627979,9.695039999999999,-0.91250247
86102096810221,-1.0011181999999998,9.81,-1.0059083
86102116668269,-1.096919,9.836346,-0.8981324
86102136526317,-1.2478052,9.7621,-0.8885523000000001
86102156384365,-1.1543995,9.625584,-0.8430469
86102176238928,-1.0729688,9.594449000000001,-0.7759864000000001
86102196096849,-0.99393314,9.5633135,-0.8334668
86102215954767,-1.0801538,9.5561285,-0.9627979
86102235812559,-1.0298585,9.632769,-0.9388476999999998
86102255670479,-1.0202783000000002,9.735755000000001,-0.94603276
86102275526773,-1.0250684,9.82437,-0.86220706
86102295384693,-1.0609937,9.778865,-0.86939216
86102315242485,-1.1088941,9.70941,-0.96040285
86102335100406,-1.22625,9.601633999999999,-0.98914313
86102354958199,-1.2717555,9.608819,-0.90052736
86102374819396,-1.2070899,9.685459,-0.84065187
86102394677317,-1.1759547,9.72378,-0.90052736
86102414535362,-1.1520045,9.733359,-0.9963281999999999
86102434393282,-1.1041040000000002,9.702225,-1.0059083
86102454251202,-1.0418334999999999,9.541758999999999,-1.0274634
86102474101108,-1.1400293,9.584868,-0.9436377
86102493958900,-1.1520045,9.630374,-1.0011181999999998
86102513816820,-1.1807446000000001,9.72857,-0.9987232
86102533674612,-1.1783496,9.814791,-0.91729254
86102553532532,-1.0705738,9.74773,-0.977168
86102573381600,-1.0035132,9.68067,-1.0322535
86102593239264,-0.98195803,9.536968,-0.99393314
86102613097056,-1.0322535,9.520203,-0.9029224
86102632954720,-1.094524,9.599238,-0.9627979
86102652812384,-1.0370435,9.699829,-1.0777588
86102672661685,-1.1184741000000002,9.81958,-1.0418334999999999
86102692519221,-1.101709,9.711803999999999,-0.9627979
86102712376757,-1.0250684,9.589659,-0.95561284
86102732234293,-1.0801538,9.5489435,-0.91729254
86102752091829,-1.1591895,9.678274,-0.9436377
86102771947024,-1.1448194,9.74773,-1.0538087
86102791804432,-1.1975098,9.802814999999999,-0.9532178
86102811661968,-1.2166698999999999,9.7142,-0.9508228000000001
86102831519376,-1.2621753,9.699829,-1.0370435
86102851376784,-1.2525953,9.630374,-1.0106983
86102871228804,-1.2406201000000001,9.702225,-0.91250247
86102891086084,-1.1663746000000002,9.64714,-0.87897223
86102910943364,-1.0801538,9.699829,-0.8981324
86102930800644,-1.0274634,9.730965,-0.8861573
86102950658052,-1.0011181999999998,9.666299,-0.93405765
86102970518465,-0.99393314,9.683064,-0.90052736
86102990375745,-0.8933423,9.637559,-0.83586186
86103010233025,-0.86220706,9.618399,-0.77359134
86103030090305,-0.9244776,9.70941,-0.77359134
86103049947585,-0.89573735,9.798025,-0.86220706
86103069806966,-0.852627,9.862691,-0.8214916999999999
86103089664374,-0.8765772,9.745335,-0.7376661
86103109521654,-1.0442286,9.742939999999999,-0.6227050999999999
86103129379062,-1.1567944,9.704619000000001,-0.5604346
86103149236342,-1.1591895,9.431587,-0.6825806
86103169093605,-1.2382251,9.465117,-0.86939216
86103188950885,-1.1352394,9.582474000000001,-0.84544194
86103208808165,-0.81909674,9.75252,-0.6586304000000001
86103228665445,-0.7879615,9.877061,-0.6945557
86103248522725,-0.8885523000000001,9.82437,-1.0274634
86103268384802,-1.0178833,9.79084,-1.0370435
86103288242082,-1.1424243,9.740545,-0.7807764
86103308099362,-1.219065,9.553733,-0.62510014
86103327956642,-1.2502003000000002,9.601633999999999,-0.67539555
86103347813922,-1.219065,9.75731,-0.69216067
86103367673985,-1.0825489,9.745335,-0.67539555
86103387530435,-1.0562036,9.795630000000001,-0.7568262
86103407387844,-1.0825489,9.644744000000001,-0.7927515
86103427245253,-1.0921290000000001,9.635164,-0.8382569
86103447102662,-1.0609937,9.644744000000001,-0.7424561
86103466961635,-1.1088941,9.726174,-0.6730005
86103486819044,-1.1807446000000001,9.745335,-0.74724615
86103506676453,-1.1663746000000002,9.690249,-0.78556645
86103526533862,-1.1520045,9.604028999999999,-0.75203615
86103546391271,-1.1472143999999997,9.541758999999999,-0.7544312
86103566247910,-1.1352394,9.666299,-0.7951465
86103586105447,-1.0705738,9.77168,-0.81909674
86103605962856,-1.0729688,9.850716,-0.8214916999999999
86103625820265,-1.1256591999999999,9.726174,-0.80712163
86103645677802,-1.1496094,9.639954,-0.8167017
86103665543037,-1.1064991000000002,9.5489435,-0.75203615
86103685400702,-1.1304493,9.695039999999999,-0.7185059
86103705258367,-1.0514137,9.6758795,-0.7664063
86103725115904,-1.0394385,9.75252,-0.84544194
86103744973569,-1.0921290000000001,9.654325,-0.8430469
86103764843754,-1.1232642,9.678274,-0.80712163
86103784701675,-1.0705738,9.627979,-0.6682104999999999
86103804559596,-1.0274634,9.568104,-0.67539555
86103824417517,-1.0681788,9.685459,-0.73048097
86103844275418,-0.9915381,9.836346,-0.76161623
86103864130699,-0.99393314,9.817185,-0.76161623
86103883988619,-1.101709,9.721385,-0.79035646
86103903846539,-1.0681788,9.616004,-0.72569096
86103923704459,-0.9508228000000001,9.616004,-0.6945557
86103943562379,-0.977168,9.594449000000001,-0.62989014
86103963429337,-1.1567944,9.572892999999999,-0.732876
86103983287513,-1.223855,9.656719,-0.7951465
86104003145689,-1.0633887,9.7812605,-0.77359134
86104023003865,-1.0298585,9.845925,-0.8382569
86104042862041,-1.099314,9.874666,-0.81191164
86104062720904,-1.0873389,9.7740755,-0.75203615
86104082579208,-1.1208692,9.5489435,-0.7496411000000001
86104102437384,-1.1807446000000001,9.438772,-0.8334668
86104122295560,-1.1855347,9.524992999999998,-0.9388476999999998
86104142153864,-1.0849438999999999,9.6686945,-0.9316626
86104162012271,-1.0346485,9.80521,-0.83586186
86104181870447,-1.096919,9.81,-0.8885523000000001
86104201728751,-1.1615845,9.730965,-0.9412427
86104221586927,-1.1951148999999999,9.6758795,-0.9244776
86104241445104,-1.1807446000000001,9.587264,-0.86939216
86104261303281,-1.1711646,9.644744000000001,-0.8214916999999999
86104281164842,-1.0681788,9.742939999999999,-0.81909674
86104301023146,-1.0681788,9.745335,-0.9364527
86104320881322,-1.1112891000000003,9.644744000000001,-1.0035132
86104340739498,-1.0681788,9.553733,-0.9388476999999998
86104360597802,-0.96040285,9.505833,-0.8310718
86104380452552,-1.0298585,9.620794,-0.88376224
86104400310729,-1.0801538,9.721385,-1.0346485
86104420168906,-1.1711646,9.788445,-1.0011181999999998
86104440027083,-1.1975098,9.79084,-0.8861573
86104459885260,-1.1448194,9.702225,-0.9148975
86104479738163,-1.1639795,9.524992999999998,-1.0154883
86104499596206,-1.1687696,9.627979,-0.95561284
86104519454126,-1.0777588,9.630374,-0.9627979
86104539312174,-1.1064991000000002,9.716595,-0.9963281999999999
86104559170222,-1.1639795,9.654325,-0.9987232
86104579021016,-1.2573853000000002,9.568104,-1.1064991000000002
86104598878936,-1.0729688,9.347761,-0.97237796
86104618736856,-1.1759547,9.644744000000001,-0.90771246
86104638594904,-1.1472143999999997,9.848321,-1.0250684
86104658452824,-1.0514137,10.056687,-0.9412427
86104678305550,-1.22146,9.821976,-1.0130934
86104698163342,-1.3052857,9.620794,-1.0825489
86104718021262,-1.1232642,9.589659,-0.9651929
86104737879054,-0.99393314,9.639954,-0.8167017
86104757736846,-1.0562036,9.5489435,-0.98914313
86104777592875,-1.1352394,9.575289,-1.1208692
86104797450667,-1.0657837,9.7812605,-0.91729254
86104817308459,-1.0849438999999999,9.80521,-0.9699829
86104837166251,-1.1879296999999998,9.671089,-1.0178833
86104857024043,-1.1304493,9.702225,-0.8669971
86104876875063,-1.0298585,9.654325,-0.83586186
86104896732727,-1.0538087,9.572892999999999,-0.93405765
86104916590391,-1.1232642,9.577683,-0.9484278
86104936448055,-1.0921290000000001,9.666299,-0.91010743
86104956305847,-1.0226734,9.742939999999999,-0.89573735
86104976158312,-1.096919,9.793235000000001,-0.852627
86104996015976,-1.089734,9.735755000000001,-0.87418216
86105015873512,-1.101709,9.620794,-0.9053174
86105035731048,-1.0562036,9.642349000000001,-0.852627
86105055588584,-0.9651929,9.642349000000001,-0.8765772
86105075438941,-1.0059083,9.685459,-0.8813671999999999
86105095296350,-1.0059083,9.699829,-0.8669971
86105115153631,-1.0106983,9.702225,-0.9196875
86105135011040,-1.0753639,9.707015,-0.92208254
86105154868444,-1.0538087,9.539363,-0.8861573
86105174722774,-1.0274634,9.606423,-0.8334668
86105194580054,-1.0226734,9.742939999999999,-0.8885523000000001
86105214437206,-0.9867481,9.82437,-0.9484278
86105234294486,-1.0202783000000002,9.833950999999999,-0.95561284
86105254151638,-1.0274634,9.72857,-0.9508228000000001
86105273992217,-1.0562036,9.637559,-0.9867481
86105293849113,-1.0250684,9.587264,-0.8669971
86105313705881,-1.0154883,9.654325,-0.8167017
86105333562777,-1.0538087,9.68067,-0.96040285
86105353419673,-1.0059083,9.793235000000001,-0.9436377
86105373277604,-0.98435307,9.690249,-0.97237796
86105393134500,-1.0178833,9.678274,-0.9915381
86105412991397,-0.974773,9.546548,-0.9987232
86105432848292,-0.99393314,9.611214,-0.8334668
86105452712714,-0.98914313,9.659114,-0.9196875
86105472569611,-1.099314,9.704619000000001,-1.0106983
86105492426506,-1.1376343,9.7740755,-1.0083033000000001
86105512283402,-1.0322535,9.788445,-0.9627979
86105532140427,-1.0035132,9.836346,-0.90771246
86105551997322,-0.95561284,9.649534,-0.90052736
86105571857375,-1.0130934,9.5489435,-0.91250247
86105591714272,-1.0633887,9.551338000000001,-1.0059083
86105611571295,-1.0298585,9.695039999999999,-0.9651929
86105631428319,-1.0394385,9.793235000000001,-0.92926764
86105651285216,-1.0873389,9.77647,-0.9436377
86105671147373,-1.0514137,9.766891000000001,-0.9316626
86105691004395,-1.0274634,9.711803999999999,-0.9029224
86105710861548,-0.9987232,9.520203,-0.86939216
86105730718571,-1.0250684,9.496253,-0.95561284
86105750565648,-1.0059083,9.637559,-0.9436377
86105770422545,-1.0825489,9.764495,-0.98195803
86105790279440,-1.0729688,9.910591,-0.8286768
86105810131636,-1.0562036,9.845925,-0.89573735
86105829988533,-1.0514137,9.704619000000001,-0.9867481
86105849845428,-1.0083033000000001,9.644744000000001,-0.87418216
86105869714726,-0.97956306,9.565708,-0.855022
86105889572007,-1.0466236,9.568104,-0.9029224
86105909429158,-1.0418334999999999,9.690249,-0.89573735
86105929286310,-1.0083033000000001,9.855506,-0.9484278
86105949143591,-0.97956306,9.800421,-0.8885523000000001
86105969009556,-1.0154883,9.692644,-0.86220706
86105988866836,-1.0106983,9.5561285,-0.87178713
86106008724245,-0.92208254,9.594449000000001,-0.8430469
86106028581652,-0.90771246,9.72857,-0.8047266
86106048442912,-0.9987232,9.869876,-0.80712163
86106068300449,-1.0562036,9.778865,-0.91250247
86106088157984,-1.094524,9.7621,-0.8669971
86106108015520,-1.0130934,9.599238,-0.80712163
86106127872929,-0.9244776,9.666299,-0.8214916999999999
86106147730464,-0.96040285,9.572892999999999,-0.88376224
86106167594813,-1.0011181999999998,9.584868,-0.86220706
86106187452478,-1.0753639,9.594449000000001,-0.85741705
86106207310141,-1.0322535,9.718989,-0.79754156
86106227167677,-0.95561284,9.678274,-0.7783814
86106247025342,-0.9699829,9.72857,-0.7424561
86106266891849,-0.98195803,9.685459,-0.81909674
86106286749641,-0.9963281999999999,9.75252,-0.7807764
86106306607434,-0.9508228000000001,9.671089,-0.89573735
86106326465225,-1.0514137,9.721385,-0.92208254
86106346330965,-1.0753639,9.745335,-0.8478370000000001
86106366189014,-1.0011181999999998,9.68067,-0.7113208000000001
86106386047061,-1.0250684,9.637559,-0.7711963000000001
86106405905109,-1.096919,9.5561285,-0.91729254
86106425763158,-1.0514137,9.663903999999999,-0.9029224
86106445621205,-0.9388476999999998,9.745335,-0.81191164
86106465473907,-0.9580079,9.742939999999999,-0.79993653
86106485331828,-1.1160791,9.855506,-0.8334668
86106505189875,-1.0705738,9.721385,-0.9148975
86106525047795,-1.0322535,9.584868,-0.9987232
86106544905716,-1.1400293,9.536968,-0.977168
86106564758198,-1.1184741000000002,9.575289,-0.8765772
86106584616119,-1.0705738,9.64714,-0.8933423
86106604474040,-1.1208692,9.656719,-0.8909473
86106624331958,-1.1520045,9.6758795,-1.0298585
86106644189878,-1.1424243,9.716595,-1.0226734
86106664047799,-1.0873389,9.697434,-0.8885523000000001
86106683900785,-1.0681788,9.68067,-0.9699829
86106703758577,-1.0753639,9.678274,-1.0250684
86106723616498,-1.0657837,9.659114,-1.0514137
86106743474289,-1.1136841999999998,9.651928999999999,-1.0370435
86106763332629,-1.1424243,9.592053,-0.9580079
86106783190422,-1.1591895,9.541758999999999,-1.0442286
86106803048341,-1.1112891000000003,9.534574000000001,-1.0418334999999999
86106822906261,-1.0921290000000001,9.659114,-1.0226734
86106842764182,-1.1136841999999998,9.879456,-1.0059083
86106862613190,-1.1280543,9.944121,-0.974773
86106882470854,-1.1543995,9.845925,-0.99393314
86106902328391,-1.1136841999999998,9.568104,-1.0585986
86106922186054,-1.0801538,9.484278,-1.0178833
86106942043590,-1.0250684,9.5561285,-0.9412427
86106961901255,-1.0538087,9.517808,-0.99393314
86106981761399,-1.1088941,9.656719,-1.0849438999999999
86107001618935,-1.1999048,9.7621,-1.1064991000000002
86107021476600,-1.1615845,9.884246000000001,-0.9651929
86107041334135,-1.1232642,9.7740755,-0.8669971
86107061193453,-1.0777588,9.616004,-0.9580079
86107081051246,-1.096919,9.539363,-1.0466236
86107100908909,-1.1256591999999999,9.5489435,-0.9915381
86107120766701,-1.1639795,9.632769,-0.9651929
86107140624366,-1.1711646,9.75252,-0.9412427
86107160484273,-1.1424243,9.77168,-0.9580079
86107180342065,-1.1328443000000001,9.721385,-0.9388476999999998
86107200199730,-1.1232642,9.721385,-0.974773
86107220057523,-1.1232642,9.639954,-1.0346485
86107239915313,-1.1448194,9.687855,-0.99393314
86107259773106,-1.1136841999999998,9.64714,-1.0202783000000002
86107279633646,-1.1831397,9.649534,-1.1184741000000002
86107299491438,-1.1807446000000001,9.704619000000001,-1.0346485
86107319349359,-1.099314,9.6615095,-1.0346485
86107339207150,-1.1807446000000001,9.599238,-1.1041040000000002
86107359052009,-1.223855,9.575289,-1.0729688
86107378909418,-1.1687696,9.663903999999999,-1.0514137
86107398766827,-1.1376343,9.73815,-1.0274634
86107418624236,-1.1328443000000001,9.783655,-1.0753639
86107438481773,-1.1543995,9.759705,-1.094524
86107458339182,-1.1639795,9.592053,-1.0418334999999999
86107478206763,-1.1136841999999998,9.560919,-0.91729254
86107498064428,-1.1567944,9.532178,-1.0322535
86107517922093,-1.1567944,9.604028999999999,-0.98195803
86107537779630,-1.1376343,9.721385,-1.0514137
86107557637295,-1.1783496,9.795630000000001,-1.0370435
86107577494308,-1.2022998,9.726174,-0.98435307
86107597351845,-1.1783496,9.635164,-0.9388476999999998
86107617209510,-1.1663746000000002,9.5633135,-0.9484278
86107637067175,-1.1975098,9.623189,-0.9580079
86107656922798,-1.1591895,9.690249,-0.94603276
86107676780463,-1.1424243,9.635164,-0.9963281999999999
86107696638000,-1.1567944,9.72857,-0.97956306
86107716495537,-1.0921290000000001,9.666299,-0.96040285
86107736353074,-1.1472143999999997,9.663903999999999,-0.91250247
86107756210611,-1.101709,9.649534,-0.83586186
86107776075426,-1.1256591999999999,9.625584,-0.9316626
86107795933091,-1.1112891000000003,9.663903999999999,-0.9244776
86107815790861,-1.1256591999999999,9.606423,-0.9364527
86107835649366,-1.096919,9.613608000000001,-0.9580079
86107855507159,-1.0825489,9.64714,-0.86939216
86107875373215,-1.0154883,9.608819,-0.8813671999999999
86107895231135,-1.1256591999999999,9.671089,-0.8861573
86107915089184,-1.1184741000000002,9.651928999999999,-1.0059083
86107934947103,-1.1639795,9.769285,-0.9532178
86107954810679,-1.1256591999999999,9.73815,-0.91250247
86107974668856,-1.1591895,9.695039999999999,-0.99393314
86107994527031,-1.1663746000000002,9.6686945,-0.96758795
86108014385207,-1.1496094,9.584868,-0.88376224
86108034243384,-1.0921290000000001,9.580078,-0.9627979
86108054101559,-1.0753639,9.572892999999999,-1.0562036
86108073957791,-1.1879296999999998,9.671089,-1.1352394
86108093815968,-1.2166698999999999,9.766891000000001,-1.0130934
86108113674143,-1.1400293,9.812395,-0.9412427
86108133532319,-1.1831397,9.704619000000001,-1.0657837
86108153390368,-1.1735597,9.592053,-1.0059083
86108173242591,-1.1136841999999998,9.524992999999998,-1.0083033000000001
86108193100511,-1.1136841999999998,9.560919,-1.0681788
86108212958560,-1.1687696,9.639954,-1.1328443000000001
86108232816607,-1.1520045,9.721385,-1.1088941
86108252674527,-1.099314,9.718989,-1.0178833
86108272532576,-1.1160791,9.632769,-1.1064991000000002
86108292389400,-1.1232642,9.687855,-1.0921290000000001
86108312247320,-1.1591895,9.7142,-1.0562036
86108332105241,-1.1424243,9.659114,-1.0538087
86108351963288,-1.2070899,9.687855,-1.1448194
86108371822640,-1.1328443000000001,9.637559,-1.0562036
86108391680561,-1.1256591999999999,9.611214,-1.0274634
86108411538480,-1.089734,9.539363,-1.099314
86108431396528,-1.1663746000000002,9.551338000000001,-1.1927198
86108451254449,-1.1687696,9.663903999999999,-1.1400293
86108471106291,-1.1783496,9.74773,-1.1520045
86108490964211,-1.1975098,9.841136,-1.1879296999999998
86108510822004,-1.1879296999999998,9.833950999999999,-1.1424243
86108530679795,-1.1903248,9.632769,-1.0681788
86108550537715,-1.214275,9.527389,-1.0873389
86108570395508,-1.1711646,9.496253,-1.1807446000000001
86108590230436,-1.1687696,9.520203,-1.2382251
86108610087972,-1.1472143999999997,9.5561285,-1.1615845
86108629945381,-1.2046948999999998,9.611214,-1.2166698999999999
86108649802788,-1.1807446000000001,9.745335,-1.2813355
86108669655485,-1.2358301999999999,9.620794,-1.1927198
86108689512766,-1.1400293,9.436378,-1.1041040000000002
86108709370045,-1.0466236,9.374106,-1.0657837
86108729227325,-0.977168,9.352551,-1.099314
86108749084606,-1.0490186000000001,9.489068,-1.0585986
86108768948878,-0.9867481,9.570497999999999,-1.099314
86108788806286,-0.974773,9.64714,-1.1975098
86108808663695,-1.0035132,9.510622999999999,-1.1543995
86108828521102,-1.0729688,9.371711999999999,-1.1711646
86108848378510,-1.0394385,9.3309965,-1.1064991000000002
86108868235919,-1.0083033000000001,9.436378,-1.1136841999999998
86108888090175,-1.094524,9.532178,-1.1304493
86108907947455,-1.1376343,9.587264,-1.1064991000000002
86108927804736,-1.1256591999999999,9.64714,-1.1208692
86108947662143,-1.0585986,9.663903999999999,-1.1472143999999997
86108967516986,-1.0442286,9.558523,-1.1711646
86108987374139,-1.1041040000000002,9.510622999999999,-1.0777588
86109007231418,-1.096919,9.498648,-0.99393314
86109027088570,-1.0657837,9.424402,-1.1304493
86109046945723,-1.1136841999999998,9.357342,-1.1424243
86109066806377,-1.1256591999999999,9.350157000000001,-1.1903248
86109086663657,-1.1543995,9.479486999999999,-1.1041040000000002
86109106520938,-1.1136841999999998,9.558523,-1.0777588
86109126378217,-1.0849438999999999,9.551338000000001,-1.1567944
86109146235497,-1.1041040000000002,9.604028999999999,-1.1999048
86109166092778,-1.1208692,9.611214,-1.1975098
86109185946455,-1.1352394,9.565708,-1.0370435
86109205803607,-1.1208692,9.455538,-1.1328443000000001
86109225660760,-1.1184741000000002,9.359736,-1.2525953
86109245517911,-1.1256591999999999,9.405242,-1.1807446000000001
86109265382769,-1.1184741000000002,9.405242,-1.1567944
86109285240050,-1.096919,9.522598,-1.1711646
86109305097843,-1.0442286,9.505833,-1.3124708
86109324955124,-0.98195803,9.503438000000001,-1.3699511999999998
86109344812405,-1.0585986,9.472302,-1.3220508
86109364669686,-1.0490186000000001,9.474698,-1.22146
86109384529579,-1.0705738,9.515413,-1.2478052
86109404386988,-1.0801538,9.513017999999999,-1.2286451
86109424244269,-0.9316626,9.462723,-1.331631
86109444101550,-0.92208254,9.496253,-1.331631
86109463958959,-0.91250247,9.498648,-1.3244458000000001
86109483825114,-0.91250247,9.390872,-1.2645704
86109503682651,-0.9412427,9.426797,-1.2573853000000002
86109523540188,-0.9987232,9.436378,-1.3124708
86109543397725,-1.0370435,9.503438000000001,-1.331631
86109563257794,-1.0346485,9.529783,-1.2885206
86109583115459,-1.1232642,9.489068,-1.3483961000000002
86109602973124,-1.1424243,9.501043,-1.2813355
86109622830661,-1.0705738,9.417216999999999,-1.2741505
86109642688326,-1.0466236,9.479486999999999,-1.2621753
86109662545991,-1.0921290000000001,9.419611999999999,-1.3100758
86109682408698,-1.0729688,9.405242,-1.2933106
86109702266491,-1.0418334999999999,9.412427000000001,-1.2454101999999998
86109722124156,-1.0562036,9.266331,-1.2885206
86109741981949,-1.1088941,9.297466,-1.3196558
86109761839742,-1.1615845,9.453142,-1.2717555
86109781697943,-1.22625,9.625584,-1.1088941
86109801555736,-1.2358301999999999,9.6758795,-0.8478370000000001
86109821413529,-1.0322535,9.469908,-1.0274634
86109841271319,-0.90771246,9.479486999999999,-1.3436059999999999
86109861131738,-1.1160791,9.558523,-1.2645704
86109880989659,-1.22625,9.424402,-0.9029224
86109900847450,-1.0514137,9.405242,-0.7544312
86109920705370,-0.88376224,9.424402,-1.1855347
86109940563291,-0.77359134,9.333391,-1.4968873
86109960421210,-0.6945557,9.520203,-1.7220191000000002
86109980281830,-0.44786867,9.584868,-1.5423926000000001
86110000139879,-0.43589357,9.584868,-0.76401126
86110019997926,-0.32332766,9.553733,-0.58198977
86110039855974,-0.61073,9.678274,-0.68018556
86110059714022,-1.2286451,9.639954,-0.6658155
86110079570924,-1.5016773,9.457932000000001,-0.4526587
86110099429100,-1.0059083,9.534574000000001,-0.87178713
86110119287148,-0.6706055000000001,9.618399,-0.5292993
86110139145196,-0.36883304,9.608819,-0.1580713
86110159003372,0.033530276,9.283096,-0.60354495
86110178851686,-0.11496094,9.383687,-0.8286768
86110198709478,-0.1460962,9.091495,-0.96040285
86110218567142,-0.22273682,9.110655,-0.91010743
86110238424934,-0.5388794,9.072334,-1.0538087
86110258282599,-1.0274634,9.074729,-0.8382569
86110278142432,-1.1376343,9.594449000000001,-0.19639161
86110298000096,-1.1615845,10.212363,0.38559815
86110317857888,-0.97237796,10.590776,0.6562354
86110337715680,-0.28500733,10.950028999999999,0.4167334
86110357573344,0.40715334,11.244617,0.30177248
86110377432233,0.95561284,11.062595,-0.016765138
86110397290025,1.0825489,11.179952,0.5340894
86110417147818,0.85023195,11.886482,0.84544194
86110437005739,0.0047900393,11.955938,0.18681154
86110456863532,0.17723145,12.147539,0.2562671
86110476721325,1.705254,11.872112,0.5676197
86110496578094,2.311194,11.697275999999999,0.68018556
86110516435887,1.1400293,13.177398,-0.61073
86110536293680,1.2573853000000002,13.936619,-1.8106349
86110556151473,2.5530908,12.030184,-2.8213332
86110576009266,2.5099807000000003,9.263936,-2.5219557
86110595853191,0.7161109,7.3862404999999995,-2.1171973
86110615710728,-0.016765138,10.435101,-1.5615528
86110635568265,-0.98914313,14.458734,1.4441968
86110655425802,-0.68737066,14.5713,-2.7135572
86110675283339,0.13891114,11.948753,-2.2776637
86110695138970,0.68018556,10.389595,-2.0190015
86110714996379,-2.2489235,9.620794,-3.4919385999999997
86110734853788,-3.1566357999999997,7.5083866,-1.0921290000000001
86110754711325,-2.2489235,7.446116,0.68976563
86110774568734,-0.69216067,7.101233000000001,-0.22273682
86110794425691,0.29937744,7.2257743,-0.34009278
86110814283100,1.6813037,6.835386,-0.14130616
86110834140381,1.7244141,5.8270826,-0.80233157
86110853997769,-0.033530276,6.473738,0.043110352000000005
86110873855177,-1.8944606,5.997129,-0.36883304
86110893710337,-2.663262,4.9289502999999995,-0.7041358
86110913567745,-2.8859987,3.796106,0.89573735
86110933425025,-1.6334034,4.026028,3.6979102999999998
86110953282433,0.23950197,6.6270194,5.582791
86110973139713,0.4622388,11.393108,5.719307
86110993000347,-1.0298585,18.3219,2.4668702999999996
86111012857755,-2.7662477,17.433348000000002,5.561235400000001
86111032715163,0.68018556,5.0606766,11.594289999999999
86111052572571,1.9279908,-0.9436377,3.7410207000000004
86111072429851,1.4513819,5.527705,1.2693603999999998
86111092282432,-0.74724615,21.433031,-9.424402
86111112139712,0.855022,29.516221999999996,-1.4202466
86111131996992,0.07903565,8.909473,0.5221143
86111151854400,0.57719976,0.81909674,-1.8896705000000003
86111171711680,-0.117355965,6.3899126,0.58677983
86111191564773,-2.2417382999999997,13.498331,-4.4762917
86111211421925,-0.2562671,15.749649,-7.4509063
86111231279206,2.823728,14.341377,-1.0154883
86111251136357,0.8885523000000001,13.110337,4.1242237
86111270993637,-0.36883304,9.702225,-0.2945874
86111290854861,-1.3004956,8.020921000000001,2.0429518
86111310712141,-2.1507277,8.564589999999999,2.3303542
86111330569421,-1.4729371,7.652087700000001,0.7041358
86111350426702,-0.90052736,7.860454600000001,0.38320315
86111370283983,0.728086,8.310719,0.1820215
86111390145042,1.2094848999999999,8.121511,-0.7831714
86111410002451,-0.96758795,8.547825,-0.28740236
86111429859732,-1.7627343999999998,8.669971,-0.37362307
86111449717141,-1.5232325,8.811277,-0.15328126
86111469574550,-1.7651293999999997,8.935819,1.219065
86111489438137,-0.5245093000000001,9.467513,0.96758795
86111509295546,0.059875492,9.948912,-0.31853762
86111529153083,-0.06945557,11.280542,-0.24668702
86111549010492,-1.0011181999999998,12.039763,0.35685793
86111568867901,-1.705254,11.146421,2.0860621999999998
86111588718982,-1.0346485,10.408755000000001,2.5219557
86111608576263,-0.80233157,10.825489,-0.119750984
86111628433672,-1.6190332,14.801221,-1.8561403000000003
86111648290953,0.732876,15.811919,-1.8633252
86111668148234,4.157754,13.165423,-4.1098537
86111688005605,6.2797413,13.151051999999998,-3.903882
86111707863014,3.5254687999999996,14.386883,-0.21794678
86111727720295,1.1831397,15.316151000000001,3.032095
86111747577576,-0.57719976,14.712604999999998,2.1291726000000004
86111767434857,-0.12693603,12.049344,0.6562354
86111787302258,0.8933423,9.405242,-1.5926881000000002
86111807159774,2.8093581000000003,8.612491,-4.86189
86111827017310,2.8716285,8.018526,-4.893025
86111846874718,2.1219873,7.156318700000001,-3.2452517000000003
86111866728301,-0.44068359999999995,6.7300053,-1.6022681
86111886592138,-2.7830129,7.1299734,-0.85741705
86111906449802,-3.1207106,6.950347,-0.28979737
86111926307466,-3.2428565,6.6844997,0.89573735
86111946165130,-2.9099487999999996,6.1575956,-0.9436377
86111966022922,-2.8979738,6.9551373,-0.19639161
86111985881083,-2.692002,8.351434,0.5604346
86112005738747,-2.5171657000000005,9.678274,1.7315991999999998
86112025596539,-2.2321582,9.692644,3.8511915
86112045454203,-2.1555176,10.209969000000001,5.120552
86112065311995,-0.8310718,12.078084,7.5874224
86112085176352,5.992339,13.266014000000002,11.048225
86112105034272,12.403807,8.820857,3.784131
86112124892192,8.612491,6.1767554,-0.68018556
86112144750112,3.4775686,6.344407,3.1063403999999997
86112164608032,2.7710377999999998,10.044711999999999,-0.5508545
86112184455645,-0.46942386,16.820223000000002,-7.541917
86112204313309,-8.995694,20.879782000000002,-4.1002736
86112224171102,-8.861572,10.269844,13.934223999999999
86112244028767,-1.4873072,0.8909473,-1.8561403000000003
86112263886429,-0.040715333,5.0439115,-5.1684523
86112283746830,-1.6645386000000002,10.641072,-4.5864625
86112303604622,-0.12933107,12.957056,-10.7799835
86112323462286,3.0368847999999997,12.604988,-8.174202000000001
86112343320078,-1.2717555,15.222745000000002,9.383687
86112363177870,-1.1520045,11.934382000000001,6.2917166
86112383036525,0.33530274,6.991061999999999,-1.3220508
86112402894317,-2.4716603999999998,8.167017,2.2537133999999996
86112422752110,-1.5328126,8.547825,1.1232642
86112442609903,-1.3292358999999998,7.7550735,-0.30895755
86112462467696,-1.2454101999999998,7.8676395,0.08861572
86112482318101,-1.8417700000000001,8.629255,-0.4742139
86112502175766,-1.5304176,8.452024,-2.5339308
86112522033303,-1.8896705000000003,8.595725,-2.0669020000000002
86112541890968,-0.8382569,8.868757,-2.1243825000000003
86112561748633,-0.28979737,9.266331,-0.76880133
86112581605528,-0.8933423,10.277028999999999,2.5770411
86112601463193,-0.86939216,10.099798,2.069297
86112621320858,0.5748047,9.604028999999999,-3.05844
86112641178523,0.8598120000000001,11.103311,-2.6536817999999998
86112661036188,0.974773,11.797867,-0.22034179999999998
86112680885331,0.244292,12.18107,0.93405765
86112700742868,0.53169435,12.511582,0.92208254
86112720600277,1.5376027,12.928316,-0.76880133
86112740457686,1.9327808999999998,13.136682500000001,-2.2321582
86112760315223,1.1591895,13.4169,-2.0716919999999996
86112780173680,-0.15088624,11.941567,-3.2141162999999997
86112800031089,-2.0501368,9.546548,-5.4414845000000005
86112819888498,-3.2548318,9.019644,-4.0906934999999995
86112839745886,-3.774551,10.712923,-2.0285816000000003
86112859603294,-4.88584,12.0253935,-0.17723145
86112879459739,-4.402046,12.231365,1.1831397
86112899317019,-2.1052222,11.160791,0.5292993
86112919174427,-2.4261549,9.654325,-0.035925295
86112939031835,-2.1818627999999998,9.235196,-0.57959473
86112958889243,-0.44068359999999995,8.475974,-0.5508545
86112978745676,0.53169435,7.8532696,0.17962648
86112998603084,-0.2083667,6.962322,-0.51492923
86113018460492,-1.1136841999999998,7.364685499999999,1.0011181999999998
86113038317772,-0.44068359999999995,6.713239999999999,1.7411792000000001
86113058175180,-1.1232642,5.1373169999999995,0.89573735
86113078032003,-2.2177882,4.7253737000000005,0.39996827
86113097889411,-2.1124072,5.372029,0.5245093000000001
86113117746819,-2.0309765,6.737190200000001,0.974773
86113137604227,-1.2909156000000002,7.8868,1.7028589
86113157461507,-0.6490503000000001,8.440049,1.8010547
86113177315654,-1.1855347,9.604028999999999,1.839375
86113197172934,-1.7771046000000001,10.842253999999999,2.6704468999999995
86113217030214,-1.3148658000000002,10.475816,4.0667434
86113236887366,0.035925295,9.730965,5.230723
86113256744646,1.1280543,9.635164,2.8931837000000002
86113276603712,1.3867163999999998,10.159674,0.5556446
86113296460864,0.040715333,10.43031,1.1041040000000002
86113316318144,-0.7448511,10.37762,2.8093581000000003
86113336175296,-0.8885523000000001,11.431429,4.1242237
86113356032576,-0.29937744,11.814631,5.1971927
86113375874519,0.5029541000000001,13.191768,2.7351123999999998
86113395731544,-0.9915381,14.307847,-3.5254687999999996
86113415588569,-2.1267774,12.602592999999999,-4.1074586
86113435445466,-2.5195606,9.666299,-2.0501368
86113455302491,-1.5352076000000001,7.094048,-0.9316626
86113475159516,-0.8765772,6.909631699999999,-1.0562036
86113495006177,-1.6166383,9.029224000000001,-0.3305127
86113514862945,-0.86220706,11.366763,-0.7089258
86113534719713,-0.17244141,12.226575,-1.1400293
86113554576481,-0.07424561,10.950028999999999,-0.25387207
86113574433249,-0.17962648,10.142908,-0.30416748
86113594285389,-0.974773,10.049502,0.07185059
86113614142029,-1.4274316999999999,9.584868,-0.23471193
86113633998669,-1.3052857,9.101074,-1.5016773
86113653855309,-0.8598120000000001,9.168135000000001,-1.6813037
86113673711949,-0.8813671999999999,9.742939999999999,-1.0490186000000001
86113693576037,-0.8047266,10.233919,-0.62510014
86113713432805,-1.0035132,10.176438000000001,-0.61073
86113733289573,-1.1975098,9.642349000000001,-0.51013917
86113753146341,-1.4513819,9.582474000000001,-0.19878663
86113773003237,-1.3148658000000002,10.097403,-0.20357667
86113792868681,-0.9867481,10.653048,-0.728086
86113812725705,-0.5460645000000001,10.590776,-1.2741505
86113832582601,-0.55803955,9.932146000000001,-0.8430469
86113852439497,-0.7161109,9.697434,0.028740235
86113872295577,-0.7376661,9.800421,0.46702883
86113892163450,-0.40715334,9.80521,0.0023950195999999997
86113912020474,-0.2802173,9.912986,-1.3148658000000002
86113931877627,-0.366438,10.221944,-1.9950514
86113951734780,-0.51971924,9.977652,-2.1148024
86113971591933,-0.81191164,9.716595,-1.1520045
86113991457134,-0.62031007,9.551338000000001,-0.75203615
86114011314414,-0.14370118,9.644744000000001,-1.0562036
86114031171822,0.026345216,9.999207,-1.710044
86114051029102,-0.42391850000000003,10.106983,-2.1579127000000002
86114070886382,-1.1304493,9.7740755,-2.069297
86114090739243,-1.705254,9.613608000000001,-1.1280543
86114110596395,-1.6813037,9.7740755,-0.44547364
86114130453675,-1.3052857,9.905801,-0.8646021
86114150310827,-1.1711646,9.910591,-1.5399976
86114170168107,-1.2909156000000002,9.750125,-1.81782
86114190032226,-1.4729371,9.611214,-1.5376027
86114209889506,-1.4082716,9.235196,-1.334026
86114229746914,-1.1543995,9.249566,-1.3675561999999999
86114249604194,-1.2765454,9.553733,-1.5519726999999999
86114269461602,-1.094524,9.953702,-1.9375708999999999
86114289336589,-1.1424243,10.162068,-1.7747096000000002
86114309194253,-1.214275,10.090218,-1.4370118
86114329051917,-1.4441968,9.968072,-1.0681788
86114348909581,-1.6741188000000002,9.783655,-1.2406201000000001
86114368767246,-1.8321900000000002,9.687855,-1.2597803
86114388634197,-1.6214283,9.7142,-1.2837305
86114408492118,-1.2334352,9.831555,-1.590293
86114428350036,-1.1136841999999998,9.841136,-1.6669337
86114448208084,-1.2502003000000002,9.81958,-1.6022681
86114468066004,-1.3651612,9.711803999999999,-1.5040723
86114487924344,-1.3531861,9.618399,-1.5112573999999999
86114507782265,-1.3004956,9.671089,-1.5399976
86114527640314,-1.2382251,9.745335,-1.5352076000000001
86114547498363,-1.22146,9.70941,-1.4250367
86114567356284,-1.1735597,9.783655,-1.2813355
86114587211779,-1.0442286,9.872271000000001,-1.214275
86114607069700,-0.98914313,9.922566,-1.2717555
86114626927749,-1.0083033000000001,9.922566,-1.3172607
86114646785798,-1.22146,9.778865,-1.4825171
86114666643847,-1.4441968,9.608819,-1.2837305
86114686499762,-1.3028906999999998,9.5561285,-1.1615845
86114706357811,-1.1208692,9.673484,-1.3962965
86114726215860,-1.2334352,9.7812605,-1.5591576999999999
86114746073909,-1.2741505,9.857901,-1.5399976
86114765931958,-1.1520045,9.798025,-1.4489869
86114785787741,-1.0825489,9.711803999999999,-1.3388159
86114805645917,-1.0154883,9.730965,-1.3867163999999998
86114825503965,-0.9268726,9.663903999999999,-1.453777
86114845362013,-0.9508228000000001,9.570497999999999,-1.4010864
86114865220061,-0.97956306,9.671089,-1.4873072
86114885074464,-0.9580079,9.692644,-1.5974781999999998
86114904932512,-1.0490186000000001,9.716595,-1.5399976
86114924790688,-1.1759547,9.678274,-1.5304176
86114944648864,-1.1783496,9.496253,-1.5423926000000001
86114964506912,-1.1232642,9.431587,-1.5208374
86114984355917,-1.0657837,9.529783,-1.5950831
86115004213709,-1.1160791,9.469908,-1.6405883999999997
86115024071629,-1.1879296999999998,9.479486999999999,-1.5399976
86115043929421,-1.1567944,9.759705,-1.463357
86115063787213,-1.089734,9.848321,-1.4729371
86115083637535,-1.089734,9.632769,-1.4346168
86115103495071,-1.0681788,9.644744000000001,-1.3962965
86115123352735,-1.0633887,9.6615095,-1.3939015
86115143210271,-1.1280543,9.5489435,-1.3531861
86115163067807,-1.1520045,9.469908,-1.3436059999999999
86115182920357,-1.1400293,9.433982,-1.3483961000000002
86115202777765,-1.101709,9.637559,-1.3867163999999998
86115222635174,-1.0035132,9.920172,-1.4178516
86115242492583,-1.0418334999999999,9.867481,-1.3771361999999998
86115262349989,-1.1184741000000002,9.536968,-1.2406201000000001
86115282203703,-1.0202783000000002,9.479486999999999,-1.2166698999999999
86115302060983,-0.9651929,9.589659,-1.3220508
86115321918263,-1.0250684,9.474698,-1.3579761000000001
86115341775543,-1.1184741000000002,9.534574000000001,-1.2669654
86115361632824,-1.1136841999999998,9.750125,-1.1999048
86115381491803,-1.0729688,9.798025,-1.3052857
86115401349084,-1.0705738,9.869876,-1.3675561999999999
86115421206365,-1.1591895,9.6758795,-1.3364209999999999
86115441063646,-1.22146,9.510622999999999,-1.2909156000000002
86115460920927,-1.1496094,9.453142,-1.22625
86115480782426,-1.1041040000000002,9.407638,-1.3483961000000002
86115500639707,-1.1256591999999999,9.584868,-1.4106666
86115520497116,-1.1663746000000002,9.690249,-1.4058765
86115540354525,-1.1328443000000001,9.6758795,-1.3747413
86115560211934,-1.089734,9.7740755,-1.3915064
86115580068355,-1.0130934,9.740545,-1.2813355
86115599925636,-0.9268726,9.656719,-1.3124708
86115619783045,-0.9987232,9.522598,-1.3675561999999999
86115639640454,-1.0633887,9.498648,-1.2837305
86115659497735,-1.0250684,9.529783,-1.2621753
86115679354272,-1.0609937,9.496253,-1.3771361999999998
86115699211425,-1.1136841999999998,9.596844,-1.3531861
86115719068706,-1.0633887,9.74773,-1.3555812
86115738925987,-1.0490186000000001,9.7142,-1.3603711
86115758783140,-1.0849438999999999,9.673484,-1.3004956
86115778643827,-1.0681788,9.651928999999999,-1.2765454
86115798501108,-1.0562036,9.599238,-1.2358301999999999
86115818358367,-1.1136841999999998,9.606423,-1.1975098
86115838215647,-1.1304493,9.592053,-1.2813355
86115858072927,-1.1424243,9.639954,-1.2981006000000002
86115877935752,-1.1184741000000002,9.77647,-1.2813355
86115897793288,-1.0753639,9.716595,-1.2861254999999998
86115917650824,-1.1041040000000002,9.599238,-1.2837305
86115937508360,-1.219065,9.620794,-1.2382251
86115957365896,-1.22625,9.575289,-1.2981006000000002
86115977225815,-1.2645704,9.560919,-1.4058765
86115997083351,-1.2621753,9.613608000000001,-1.4394068000000002
86116016941015,-1.2286451,9.685459,-1.5232325
86116036798679,-1.2837305,9.75731,-1.5615528
86116056656343,-1.2597803,9.613608000000001,-1.5591576999999999
86116076513806,-1.2118799999999998,9.354947,-1.4968873
86116096371470,-1.2166698999999999,9.481883,-1.4418018
86116116229134,-1.1711646,9.853110000000001,-1.4609618999999998
86116136086798,-1.0035132,9.536968,-1.4729371
86116155944462,-1.0154883,9.395662,-1.4681469999999999
86116175803467,-1.1041040000000002,9.625584,-1.3148658000000002
86116195661131,-1.0298585,9.75731,-1.3891114
86116215518795,-1.0154883,9.821976,-1.3723463
86116235376588,-1.0585986,9.695039999999999,-1.3579761000000001
86116255234251,-0.9915381,9.606423,-1.2070899
86116275094481,-0.94603276,9.503438000000001,-1.2094848999999999
86116294952273,-0.9963281999999999,9.513017999999999,-1.2286451
86116314809937,-1.0562036,9.64714,-1.2741505
86116334667729,-0.9963281999999999,9.766891000000001,-1.2406201000000001
86116354525521,-0.94603276,9.778865,-1.3028906999999998
86116374383186,-0.9915381,9.735755000000001,-1.3124708
86116394243293,-1.0130934,9.649534,-1.2310401000000002
86116414101086,-1.0394385,9.625584,-1.2166698999999999
86116433958879,-1.0442286,9.601633999999999,-1.2909156000000002
86116453816672,-1.1448194,9.539363,-1.3507911
86116473674465,-1.214275,9.630374,-1.3819263000000002
86116493521780,-1.1807446000000001,9.733359,-1.4370118
86116513379309,-1.096919,9.697434,-1.3627661
86116533236845,-1.1567944,9.685459,-1.3891114
86116553094381,-1.1400293,9.5633135,-1.3483961000000002
86116572951917,-1.0394385,9.445957,-1.3867163999999998
86116592805430,-0.9699829,9.501043,-1.4130616000000003
86116612662966,-0.9580079,9.613608000000001,-1.4034815
86116632520374,-1.0083033000000001,9.766891000000001,-1.3723463
86116652377910,-1.0657837,9.759705,-1.3603711
86116672235318,-1.094524,9.637559,-1.4226416000000002
86116692087934,-1.0538087,9.599238,-1.3555812
86116711945342,-1.0921290000000001,9.5633135,-1.3196558
86116731802750,-1.1160791,9.534574000000001,-1.2502003000000002
86116751660158,-1.0562036,9.508227999999999,-1.3436059999999999
86116771517438,-0.97956306,9.625584,-1.3076807
86116791376396,-0.8813671999999999,9.735755000000001,-1.1951148999999999
86116811233804,-0.8861573,9.733359,-1.214275
86116831091212,-0.92208254,9.814791,-1.2837305
86116850948620,-0.9436377,9.836346,-1.2837305
86116870806028,-0.9436377,9.642349000000001,-1.3268408999999999
86116890660681,-1.0753639,9.524992999999998,-1.2382251
86116910517961,-1.1543995,9.493857,-1.1759547
86116930375369,-1.0562036,9.429193,-1.1855347
86116950232649,-1.0226734,9.445957,-1.2837305
86116970089929,-1.0633887,9.594449000000001,-1.3771361999999998
86116989947002,-1.1280543,9.807606,-1.4585668999999999
86117009804282,-1.2454101999999998,9.903406,-1.3436059999999999
86117029661562,-1.3124708,9.711803999999999,-1.2406201000000001
86117049518842,-1.2549903,9.596844,-1.1448194
86117069376122,-1.0562036,9.627979,-1.1328443000000001
86117089239662,-0.8861573,9.539363,-1.1639795
86117109097070,-0.8885523000000001,9.414823,-1.223855
86117128954478,-0.94603276,9.515413,-1.22146
86117148811886,-0.8861573,9.831555,-1.2597803
86117168669294,-0.8214916999999999,10.030342,-1.3028906999999998
86117188524002,-0.8646021,9.857901,-1.3028906999999998
86117208381410,-0.95561284,9.582474000000001,-1.1783496
86117228238690,-0.97956306,9.575289,-1.1064991000000002
86117248096098,-0.91250247,9.510622999999999,-1.1208692
86117267953378,-0.8669971,9.374106,-1.1663746000000002
86117287816540,-0.82388675,9.5633135,-1.2166698999999999
86117307674076,-0.75203615,9.841136,-1.2334352
86117327531484,-0.732876,9.896221,-1.1735597
86117347389020,-0.7711963000000001,9.75252,-1.2502003000000002
86117367246428,-0.8765772,9.611214,-1.3172607
86117387101043,-0.9268726,9.73815,-1.1567944
86117406958451,-0.90771246,9.6686945,-1.1400293
86117426815859,-0.98914313,9.455538,-1.2454101999999998
86117446673395,-1.0514137,9.398057000000001,-1.3483961000000002
86117466530803,-1.0298585,9.613608000000001,-1.334026
86117486388057,-0.96040285,9.81958,-1.3244458000000001
86117506245465,-0.97237796,9.764495,-1.331631
86117526102873,-1.0418334999999999,9.608819,-1.4010864
86117545960282,-1.1256591999999999,9.5561285,-1.463357
86117565817691,-1.1400293,9.572892999999999,-1.3076807
86117585674276,-1.0562036,9.465117,-1.2885206
86117605531557,-1.0250684,9.402847,-1.3771361999999998
86117625388966,-1.0130934,9.503438000000001,-1.4082716
86117645246375,-0.98435307,9.73815,-1.3819263000000002
86117665103784,-0.9412427,9.891430999999999,-1.334026
86117684966483,-0.96040285,9.802814999999999,-1.3675561999999999
86117704824020,-1.0466236,9.7142,-1.3579761000000001
86117724681429,-1.0274634,9.6758795,-1.2597803
86117744538966,-1.1543995,9.546548,-1.3962965
86117764396375,-1.2885206,9.520203,-1.3555812
86117784253912,-1.2406201000000001,9.539363,-1.3986914
86117804121146,-1.1543995,9.613608000000001,-1.5112573999999999
86117823978939,-1.1448194,9.74773,-1.4825171
86117843836602,-1.099314,9.73815,-1.4274316999999999
86117863694266,-1.1352394,9.620794,-1.5208374
86117883552345,-1.1855347,9.551338000000001,-1.5016773
86117903409260,-1.219065,9.558523,-1.4250367
86117923266924,-1.2334352,9.575289,-1.4202466
86117943124716,-1.1663746000000002,9.546548,-1.4274316999999999
86117962982380,-1.1543995,9.580078,-1.4609618999999998
86117982840172,-1.1400293,9.651928999999999,-1.5783178999999998
86118002692214,-1.101709,9.685459,-1.5088624
86118022549878,-1.1041040000000002,9.697434,-1.4394068000000002
86118042407542,-1.1088941,9.639954,-1.456172
86118062265206,-1.1112891000000003,9.515413,-1.5112573999999999
86118082122998,-1.1304493,9.498648,-1.5519726999999999
86118101981912,-1.1352394,9.534574000000001,-1.453777
86118121839705,-1.0657837,9.616004,-1.4585668999999999
86118141697368,-1.089734,9.6615095,-1.4753321000000001
86118161555032,-1.1472143999999997,9.750125,-1.4825171
86118181412697,-1.1112891000000003,9.64714,-1.3915064
86118201272327,-1.094524,9.532178,-1.4489869
86118221129991,-1.1136841999999998,9.508227999999999,-1.5112573999999999
86118240987784,-1.1831397,9.539363,-1.463357
86118260845447,-1.1663746000000002,9.742939999999999,-1.3747413
86118280708505,-1.096919,9.726174,-1.3483961000000002
86118300566298,-1.0705738,9.6758795,-1.4441968
86118320424089,-1.1064991000000002,9.592053,-1.465752
86118340281881,-1.1639795,9.524992999999998,-1.4370118
86118360139674,-1.1663746000000002,9.582474000000001,-1.3483961000000002
86118379997465,-1.1759547,9.594449000000001,-1.3627661
86118399853868,-1.1855347,9.534574000000001,-1.4130616000000003
86118419711661,-1.1328443000000001,9.534574000000001,-1.4250367
86118439569454,-1.0106983,9.656719,-1.3747413
86118459427247,-0.96040285,9.7740755,-1.3004956
86118479285040,-0.9627979,9.7740755,-1.2573853000000002
86118499132503,-1.0322535,9.635164,-1.3388159
86118518990040,-1.1064991000000002,9.558523,-1.3028906999999998
86118538847705,-1.0130934,9.529783,-1.1879296999999998
86118558705242,-1.0178833,9.551338000000001,-1.2382251
86118578551503,-1.0226734,9.651928999999999,-1.3579761000000001
86118598408784,-0.96040285,9.79084,-1.3148658000000002
86118618266193,-0.9532178,9.821976,-1.2981006000000002
86118638123474,-0.9651929,9.79084,-1.3364209999999999
86118657980755,-0.98195803,9.630374,-1.3148658000000002
86118677838164,-1.0370435,9.498648,-1.3148658000000002
86118697694677,-1.1280543,9.424402,-1.3483961000000002
86118717551958,-1.0825489,9.424402,-1.3388159
86118737409367,-1.1328443000000001,9.565708,-1.3579761000000001
86118757266648,-1.1496094,9.716595,-1.4058765
86118777124057,-1.0753639,9.841136,-1.3603711
86118796978878,-0.9484278,9.872271000000001,-1.3052857
86118816836031,-0.95561284,9.814791,-1.219065
86118836693312,-1.0777588,9.584868,-1.2645704
86118856550569,-1.1376343,9.508227999999999,-1.2741505
86118876410895,-1.0921290000000001,9.513017999999999,-1.2573853000000002
86118896268176,-0.98914313,9.515413,-1.2525953
86118916125583,-0.9532178,9.608819,-1.3436059999999999
86118935982863,-0.95561284,9.702225,-1.3124708
86118955840272,-0.9915381,9.82437,-1.3004956
86118975697551,-0.974773,9.798025,-1.2430152
86118995557086,-0.98195803,9.651928999999999,-1.2837305
86119015414495,-0.9963281999999999,9.505833,-1.2549903
86119035271774,-0.9963281999999999,9.445957,-1.214275
86119055129054,-0.9580079,9.539363,-1.2094848999999999
86119074986335,-0.9388476999999998,9.659114,-1.3292358999999998
86119094841993,-0.9580079,9.833950999999999,-1.4274316999999999
86119114699273,-0.9627979,9.932146000000001,-1.3962965
86119134556554,-0.91250247,9.766891000000001,-1.2286451
86119154413833,-0.90052736,9.584868,-1.2310401000000002
86119174266097,-0.92926764,9.462723,-1.2909156000000002
86119194123250,-0.99393314,9.433982,-1.2669654
86119213980273,-1.0466236,9.544153,-1.2382251
86119233837425,-0.9963281999999999,9.697434,-1.2669654
86119253694578,-0.9029224,9.74773,-1.3076807
86119273551729,-0.90052736,9.81,-1.3723463
86119293420318,-0.90771246,9.802814999999999,-1.2741505
86119313277727,-0.90052736,9.721385,-1.1112891000000003
86119333135134,-0.99393314,9.589659,-1.1041040000000002
86119352992414,-1.0250684,9.433982,-1.3052857
86119372849823,-0.977168,9.419611999999999,-1.2478052
86119392706166,-1.0059083,9.635164,-1.1711646
86119412563574,-0.95561284,9.814791,-1.1999048
86119432420983,-0.91250247,9.829161000000001,-1.2885206
86119452278392,-0.96758795,9.7812605,-1.2334352
86119472135801,-1.0298585,9.726174,-1.2406201000000001
86119491993210,-1.0825489,9.589659,-1.2310401000000002
86119511857283,-1.1759547,9.515413,-1.2406201000000001
86119531714820,-1.1975098,9.522598,-1.2669654
86119551572357,-1.1160791,9.558523,-1.2166698999999999
86119571429894,-1.0202783000000002,9.656719,-1.2046948999999998
86119591276065,-0.974773,9.726174,-1.334026
86119611133346,-0.9029224,9.671089,-1.2957056999999998
86119630990499,-0.99393314,9.606423,-1.2645704
86119650847780,-1.0418334999999999,9.599238,-1.1663746000000002
86119670704933,-0.98195803,9.64714,-1.0274634
86119690566340,-0.9987232,9.6686945,-1.1951148999999999
86119710423621,-1.0346485,9.580078,-1.2957056999999998
86119730281030,-0.977168,9.642349000000001,-1.2094848999999999
86119750138311,-0.91010743,9.764495,-1.1735597
86119769995575,-0.93405765,9.745335,-1.2861254999999998
86119789852984,-0.9316626,9.635164,-1.3052857
86119809694202,-0.9915381,9.5633135,-1.2573853000000002
86119829551354,-1.0490186000000001,9.596844,-1.2525953
86119849408379,-1.0609937,9.623189,-1.2933106
86119869265402,-1.0729688,9.690249,-1.334026
86119889125361,-1.099314,9.692644,-1.3651612
86119908982770,-1.1160791,9.721385,-1.2933106
86119928840049,-1.1088941,9.697434,-1.2693603999999998
86119948697329,-1.1256591999999999,9.565708,-1.2621753
86119968554610,-1.1352394,9.544153,-1.2981006000000002
86119988422754,-1.0921290000000001,9.575289,-1.3004956
86120008280290,-1.1232642,9.623189,-1.3196558
86120028137955,-1.1376343,9.604028999999999,-1.2597803
86120047995490,-1.0681788,9.6615095,-1.3771361999999998
86120067853026,-0.98195803,9.730965,-1.4298267
86120087710563,-0.95561284,9.659114,-1.4298267
86120107569099,-0.9412427,9.64714,-1.2669654
86120127426635,-0.9580079,9.7142,-1.2406201000000001
86120147284172,-1.0154883,9.632769,-1.3747413
86120167141707,-1.0370435,9.5489435,-1.3507911
86120186999603,-0.9915381,9.565708,-1.2525953
86120206857140,-0.90052736,9.6615095,-1.3076807
86120226714547,-0.8286768,9.673484,-1.3771361999999998
86120246572083,-0.87178713,9.623189,-1.3819263000000002
86120266429492,-0.98195803,9.592053,-1.3172607
86120286294689,-1.0921290000000001,9.620794,-1.3507911
86120306152353,-1.101709,9.642349000000001,-1.3412110000000002
86120326009890,-1.1112891000000003,9.599238,-1.2693603999999998
86120345867553,-1.0729688,9.5633135,-1.2837305
86120365725218,-1.0514137,9.639954,-1.4082716
86120385582755,-1.0011181999999998,9.75731,-1.3723463
86120405442344,-1.0298585,9.735755000000001,-1.4082716
86120425300009,-1.0633887,9.625584,-1.2885206
86120445157674,-1.0466236,9.529783,-1.2573853000000002
86120465015339,-0.977168,9.524992999999998,-1.2454101999999998
86120484869420,-0.9987232,9.546548,-1.3028906999999998
86120504727085,-1.0466236,9.630374,-1.2406201000000001
86120524584622,-1.0178833,9.766891000000001,-1.2573853000000002
86120544442287,-1.0250684,9.922566,-1.2837305
86120564299824,-1.0418334999999999,9.917776,-1.2621753
86120584157489,-1.0394385,9.690249,-1.2046948999999998
86120604016050,-1.089734,9.460327000000001,-1.2094848999999999
86120623873715,-1.0394385,9.383687,-1.1448194
86120643731380,-1.0226734,9.431587,-1.2621753
86120663589045,-1.0538087,9.5561285,-1.2885206
86120683446710,-1.0753639,9.704619000000001,-1.3028906999999998
86120703301321,-1.0705738,9.81958,-1.2909156000000002
86120723158986,-1.0514137,9.857901,-1.2693603999999998
86120743016523,-1.0801538,9.850716,-1.22625
86120762874188,-1.1112891000000003,9.745335,-1.1256591999999999
86120782724003,-1.089734,9.553733,-1.1711646
86120802581540,-1.0705738,9.374106,-1.2358301999999999
86120822438926,-1.0035132,9.441168,-1.1639795
86120842296334,-0.9436377,9.587264,-1.1783496
86120862153743,-0.855022,9.716595,-1.219065
86120882011278,-0.91010743,9.802814999999999,-1.2789403999999998
86120901877634,-0.97237796,9.778865,-1.2549903
86120921735299,-1.0059083,9.82437,-1.1208692
86120941593090,-0.9580079,9.735755000000001,-1.099314
86120961450754,-0.9987232,9.532178,-1.2118799999999998
86120981308419,-1.0106983,9.479486999999999,-1.1064991000000002
86121001160969,-0.9412427,9.529783,-1.0538087
86121021018633,-0.90771246,9.721385,-1.22146
86121040876170,-0.8885523000000001,9.826766000000001,-1.331631
86121060733705,-0.90771246,9.889036,-1.2645704
86121080588176,-0.90771246,9.788445,-1.1424243
86121100445713,-0.9053174,9.635164,-1.089734
86121120303376,-0.9196875,9.524992999999998,-1.101709
86121140160912,-0.98195803,9.453142,-1.1927198
86121160018577,-1.0059083,9.532178,-1.099314
86121179876112,-0.8885523000000001,9.702225,-1.1424243
86121199733051,-0.852627,9.7740755,-1.2861254999999998
86121219590588,-0.82388675,9.829161000000001,-1.2046948999999998
86121239448123,-0.8310718,9.795630000000001,-1.1591895
86121259305659,-0.8909473,9.75252,-1.096919
86121279163196,-0.95561284,9.64714,-1.1208692
86121299024754,-0.95561284,9.520203,-1.099314
86121318882418,-0.9699829,9.501043,-1.1064991000000002
86121338740083,-0.88376224,9.5633135,-1.0849438999999999
86121358597618,-0.79993653,9.685459,-1.1567944
86121378455283,-0.8167017,9.881851,-1.0633887
86121398312948,-0.7592211999999999,9.783655,-1.0490186000000001
86121418154339,-0.7807764,9.726174,-1.1448194
86121438011492,-0.977168,9.611214,-1.2502003000000002
86121457868645,-1.0705738,9.642349000000001,-1.1687696
86121477725798,-1.0633887,9.6615095,-1.0729688
86121497584071,-1.0202783000000002,9.568104,-1.1951148999999999
86121517441224,-1.0609937,9.575289,-1.3148658000000002
86121537298249,-1.0514137,9.730965,-1.22146
86121557155402,-0.91010743,9.754914999999999,-1.1496094
86121577012555,-0.8861573,9.692644,-1.1615845
86121596870080,-0.8861573,9.596844,-1.219065
86121616727233,-0.89573735,9.656719,-1.1376343
86121636584386,-0.8861573,9.704619000000001,-1.0729688
86121656441539,-0.852627,9.6686945,-1.1831397
86121676298692,-0.8885523000000001,9.627979,-1.1975098
86121696155845,-0.9364527,9.642349000000001,-1.1567944
86121716014594,-0.91250247,9.721385,-1.0657837
86121735871747,-0.8861573,9.769285,-1.1041040000000002
86121755728900,-0.9196875,9.687855,-1.1975098
86121775586053,-1.0274634,9.587264,-1.1927198
86121795450824,-1.0801538,9.594449000000001,-1.096919
86121815308105,-1.0466236,9.623189,-1.0705738
86121835165365,-1.0035132,9.678274,-1.1975098
86121855022773,-1.0011181999999998,9.692644,-1.2358301999999999
86121874880054,-1.0226734,9.6758795,-1.1903248
86121894739536,-1.0370435,9.678274,-1.1352394
86121914597072,-0.97956306,9.616004,-1.1567944
86121934454609,-0.96758795,9.541758999999999,-1.1639795
86121954312144,-0.9963281999999999,9.620794,-1.1591895
86121974169680,-0.9987232,9.7621,-1.1639795
86121994027217,-0.90052736,9.788445,-1.1591895
86122013891202,-0.91729254,9.77647,-1.2166698999999999
86122033748994,-1.0514137,9.75731,-1.1304493
86122053606659,-1.1520045,9.568104,-1.1543995
86122073464322,-1.1280543,9.491463000000001,-1.219065
86122093315044,-1.0346485,9.544153,-1.2789403999999998
86122113172581,-1.0394385,9.565708,-1.2621753
86122133030116,-1.1256591999999999,9.64714,-1.2573853000000002
86122152887780,-1.1855347,9.74773,-1.2837305
86122172745317,-1.2022998,9.829161000000001,-1.3148658000000002
86122192607887,-1.1520045,9.795630000000001,-1.2358301999999999
86122212465679,-1.1543995,9.5489435,-1.2430152
86122232323344,-1.1041040000000002,9.4435625,-1.1615845
86122252181007,-1.0418334999999999,9.484278,-1.1975098
86122272038671,-1.0130934,9.539363,-1.2334352
86122291896336,-0.98914313,9.642349000000001,-1.2861254999999998
86122311754706,-0.9268726,9.754914999999999,-1.2645704
86122331612370,-0.8310718,9.802814999999999,-1.2525953
86122351470163,-0.7831714,9.812395,-1.1999048
86122371327826,-0.7831714,9.639954,-1.1711646
86122391183688,-0.87178713,9.505833,-1.2046948999999998
86122411041353,-0.93405765,9.445957,-1.1711646
86122430898888,-0.96040285,9.513017999999999,-1.1376343
86122450756553,-0.9987232,9.666299,-1.214275
86122470614218,-1.0514137,9.678274,-1.3819263000000002
86122490471883,-1.1615845,9.6758795,-1.346001
86122510326610,-1.0849438999999999,9.721385,-1.1615845
86122530184275,-0.9651929,9.742939999999999,-1.1064991000000002
86122550041812,-0.9148975,9.644744000000001,-1.2310401000000002
86122569899477,-0.9915381,9.580078,-1.214275
86122589757142,-1.1064991000000002,9.527389,-1.0346485
86122609605541,-1.0801538,9.620794,-0.9867481
86122629462950,-1.0490186000000001,9.6615095,-1.1280543
86122649320487,-1.0585986,9.718989,-1.2502003000000002
86122669177896,-1.099314,9.872271000000001,-1.22146
86122689029105,-1.101709,9.857901,-1.1711646
86122708886386,-1.1472143999999997,9.735755000000001,-1.1639795
86122728743667,-1.1543995,9.572892999999999,-1.1400293
86122748600948,-1.0705738,9.431587,-1.1400293
86122768458229,-1.0250684,9.436378,-1.1567944
86122788315495,-1.0298585,9.589659,-1.2525953
86122808172501,-1.089734,9.759705,-1.3699511999999998
86122828029782,-1.1496094,9.802814999999999,-1.4010864
86122847887061,-1.1807446000000001,9.75731,-1.3962965
86122867744341,-1.1951148999999999,9.671089,-1.4082716
86122887601622,-1.1711646,9.587264,-1.3843212999999999
86122907464226,-1.1855347,9.493857,-1.3747413
86122927321634,-1.2286451,9.417216999999999,-1.4226416000000002
86122947179043,-1.2454101999999998,9.412427000000001,-1.4178516
86122967036450,-1.1256591999999999,9.599238,-1.3603711
86122986876828,-1.1041040000000002,9.82437,-1.3747413
86123006733853,-1.0585986,9.889036,-1.3962965
86123026590876,-1.0777588,9.707015,-1.2430152
86123046447900,-1.099314,9.580078,-1.2286451
86123066304797,-1.0921290000000001,9.560919,-1.223855
86123086161820,-1.0250684,9.5489435,-1.1975098
86123106015632,-0.9987232,9.582474000000001,-1.2334352
86123125872657,-1.0298585,9.613608000000001,-1.3747413
86123145729552,-1.0657837,9.75731,-1.3867163999999998
86123165586448,-1.0130934,9.905801,-1.2478052
86123185443345,-1.0250684,9.750125,-1.3507911
86123205300161,-1.089734,9.529783,-1.2621753
86123225156930,-1.101709,9.4507475,-1.2478052
86123245013827,-1.0466236,9.513017999999999,-1.223855
86123264870721,-1.0370435,9.592053,-1.2981006000000002
86123284735108,-1.0011181999999998,9.654325,-1.3196558
86123304592133,-1.0394385,9.740545,-1.3771361999999998
86123324449028,-1.0130934,9.82437,-1.2406201000000001
86123344305924,-1.0130934,9.80521,-1.2837305
86123364162949,-1.1088941,9.644744000000001,-1.3244458000000001
86123384019844,-1.1951148999999999,9.489068,-1.2478052
86123403882127,-1.1711646,9.479486999999999,-1.1543995
86123423739152,-1.0777588,9.560919,-1.2382251
86123443596303,-1.0466236,9.558523,-1.2573853000000002
86123463453327,-1.0873389,9.678274,-1.331631
86123483310352,-1.101709,9.75731,-1.2933106
86123503173353,-1.0825489,9.704619000000001,-1.2334352
86123523030505,-1.1064991000000002,9.695039999999999,-1.2022998
86123542887658,-1.1208692,9.616004,-1.2382251
86123562744937,-1.089734,9.608819,-1.1807446000000001
86123582602089,-1.0585986,9.644744000000001,-1.1520045
86123602459242,-1.0250684,9.659114,-1.2454101999999998
86123622318221,-0.9915381,9.690249,-1.219065
86123642175501,-0.9651929,9.663903999999999,-1.214275
86123662032654,-0.98435307,9.608819,-1.2430152
86123681889933,-0.9987232,9.560919,-1.1807446000000001
86123701744714,-1.0418334999999999,9.601633999999999,-1.1424243
86123721601995,-1.0657837,9.656719,-1.1927198
86123741459146,-1.0442286,9.704619000000001,-1.2478052
86123761316298,-1.0442286,9.707015,-1.2286451
86123781173451,-1.0442286,9.721385,-1.214275
86123801038044,-1.0226734,9.695039999999999,-1.1711646
86123820895452,-1.0370435,9.618399,-1.2334352
86123840752733,-1.0585986,9.536968,-1.22146
86123860610140,-1.0538087,9.489068,-1.219065
86123880467548,-1.0418334999999999,9.575289,-1.1448194
86123900324829,-1.0178833,9.649534,-1.2094848999999999
86123920180078,-1.0370435,9.730965,-1.2981006000000002
86123940037486,-1.0418334999999999,9.83874,-1.2502003000000002
86123959894895,-1.0514137,9.857901,-1.1975098
86123979752302,-1.0226734,9.726174,-1.1424243
86123999619317,-0.9915381,9.510622999999999,-1.2022998
86124019476982,-0.9915381,9.381292,-1.2454101999999998
86124039334645,-0.9987232,9.369317,-1.22625
86124059192309,-1.0609937,9.6615095,-1.1759547
86124079049974,-1.0705738,9.833950999999999,-1.2310401000000002
86124098909549,-1.0825489,9.77647,-1.4274316999999999
86124118767341,-1.1567944,9.788445,-1.3579761000000001
86124138625006,-1.1975098,9.745335,-1.2334352
86124158482797,-1.1831397,9.616004,-1.1759547
86124178340461,-1.1088941,9.505833,-1.2525953
86124198198126,-1.099314,9.405242,-1.3675561999999999
86124218051730,-1.096919,9.515413,-1.3244458000000001
86124237909394,-1.0609937,9.711803999999999,-1.2382251
86124257766931,-0.9484278,9.788445,-1.3364209999999999
86124277624594,-0.89573735,9.82437,-1.3220508
86124297486122,-0.92208254,9.73815,-1.2909156000000002
86124317343787,-0.94603276,9.577683,-1.2621753
86124337201578,-0.9699829,9.532178,-1.2454101999999998
86124357059242,-0.98195803,9.474698,-1.2166698999999999
86124376916907,-1.0083033000000001,9.513017999999999,-1.2813355
86124396774698,-0.98435307,9.587264,-1.2957056999999998
86124416637896,-0.9867481,9.75731,-1.3436059999999999
86124436495689,-1.0322535,9.83874,-1.3364209999999999
86124456353480,-1.0274634,9.72378,-1.3028906999999998
86124476211400,-1.0274634,9.589659,-1.2406201000000001
86124496069193,-1.0322535,9.498648,-1.2022998
86124515928208,-1.0633887,9.515413,-1.2454101999999998
86124535786128,-1.0729688,9.604028999999999,-1.2334352
86124555644049,-1.0562036,9.616004,-1.2933106
86124575501968,-1.0585986,9.726174,-1.2717555
86124595345084,-1.0442286,9.853110000000001,-1.1879296999999998
86124615202621,-1.0178833,9.745335,-1.223855
86124635060156,-1.0681788,9.64714,-1.2382251
86124654917692,-1.0873389,9.572892999999999,-1.1615845
86124674775229,-1.0777588,9.486672,-1.2094848999999999
86124694632764,-1.0298585,9.527389,-1.1831397
86124714481847,-0.97237796,9.589659,-1.2046948999999998
86124734339128,-0.9436377,9.673484,-1.2070899
86124754196535,-1.0035132,9.788445,-1.2454101999999998
86124774053815,-1.0633887,9.843531,-1.1496094
86124793911224,-1.099314,9.77168,-1.1951148999999999
86124813760288,-1.2070899,9.592053,-1.2358301999999999
86124833617440,-1.2549903,9.532178,-1.1663746000000002
86124853474593,-1.2046948999999998,9.501043,-1.1328443000000001
86124873331744,-1.096919,9.541758999999999,-1.2166698999999999
86124893184573,-1.0633887,9.72857,-1.3364209999999999
86124913041598,-1.1280543,9.807606,-1.3412110000000002
86124932898749,-1.1328443000000001,9.745335,-1.3028906999999998
86124952755773,-1.1041040000000002,9.64714,-1.2334352
86124972612926,-1.1112891000000003,9.565708,-1.2549903
86124992470077,-1.1615845,9.489068,-1.219065
86125012332745,-1.2286451,9.532178,-1.1687696
86125032189898,-1.2478052,9.599238,-1.1088941
86125052047177,-1.223855,9.6758795,-1.2046948999999998
86125071904329,-1.1615845,9.769285,-1.2789403999999998
86125091761482,-1.1304493,9.721385,-1.3675561999999999
86125111619232,-1.1759547,9.678274,-1.2717555
86125131476512,-1.2286451,9.649534,-1.1472143999999997
86125151333665,-1.1999048,9.599238,-1.1615845
86125171190944,-1.1615845,9.508227999999999,-1.1615845
86125191048096,-1.1256591999999999,9.501043,-1.1232642
86125210905377,-1.0849438999999999,9.606423,-1.1041040000000002
86125230762528,-1.0346485,9.711803999999999,-1.1280543
86125250619680,-1.0059083,9.783655,-1.1088941
86125270476833,-0.9963281999999999,9.673484,-1.1855347
86125290333984,-1.0370435,9.620794,-1.2046948999999998
86125310182511,-1.1064991000000002,9.663903999999999,-1.0921290000000001
86125330039408,-1.1879296999999998,9.656719,-1.0178833
86125349896431,-1.2597803,9.606423,-1.0681788
86125369753327,-1.2478052,9.5489435,-1.1400293
86125389610352,-1.1927198,9.580078,-1.1663746000000002
86125409467424,-1.1328443000000001,9.654325,-1.1328443000000001
86125429324320,-1.0609937,9.740545,-1.094524
86125449181345,-1.0274634,9.716595,-1.1160791
86125469038240,-1.0274634,9.671089,-1.1041040000000002
86125488895136,-0.98914313,9.608819,-1.0801538
86125508752161,-0.98195803,9.596844,-1.0538087
86125528610360,-0.9867481,9.663903999999999,-1.0490186000000001
86125548467256,-1.0202783000000002,9.70941,-1.0609937
86125568324153,-1.0825489,9.79084,-1.0801538
86125588181048,-1.0585986,9.72857,-1.0202783000000002
86125608044746,-1.0250684,9.625584,-1.1232642
86125627901899,-1.089734,9.522598,-1.1352394
86125647758922,-1.1376343,9.558523,-1.0801538
86125667615946,-1.1304493,9.64714,-1.0442286
86125687472971,-1.1567944,9.70941,-1.1136841999999998
86125707333005,-1.1041040000000002,9.745335,-1.1783496
86125727190029,-1.0705738,9.766891000000001,-1.2046948999999998
86125747047182,-1.1184741000000002,9.6758795,-1.1136841999999998
86125766904333,-1.1783496,9.596844,-1.0777588
86125786761485,-1.1855347,9.587264,-1.0609937
86125806618510,-1.1759547,9.582474000000001,-1.1328443000000001
86125826471455,-1.1567944,9.584868,-1.1879296999999998
86125846328479,-1.1376343,9.671089,-1.1927198
86125866185504,-1.1208692,9.7812605,-1.1400293
86125886042527,-1.1112891000000003,9.807606,-1.2046948999999998
86125905908330,-1.1328443000000001,9.72378,-1.1304493
86125925765611,-1.0729688,9.5561285,-1.1424243
86125945624837,-1.0585986,9.503438000000001,-1.1951148999999999
86125965481989,-1.096919,9.503438000000001,-1.1807446000000001
86125985339270,-1.1400293,9.651928999999999,-1.1783496
86126005210384,-1.0490186000000001,9.70941,-1.1543995
86126025068048,-0.9412427,9.742939999999999,-1.2286451
86126044925585,-0.9627979,9.821976,-1.1975098
86126064783248,-0.9699829,9.754914999999999,-1.1136841999999998
86126084640784,-0.9627979,9.616004,-1.0538087
86126104498321,-0.9963281999999999,9.441168,-1.1328443000000001
86126124360306,-1.0178833,9.436378,-1.1783496
86126144218098,-0.9580079,9.613608000000001,-1.1232642
86126164075763,-0.9532178,9.692644,-1.2022998
86126183933554,-1.0011181999999998,9.79084,-1.2358301999999999
86126203791449,-1.0130934,9.81958,-1.2382251
86126223649242,-1.0298585,9.81958,-1.1352394
86126243507033,-1.0538087,9.793235000000001,-1.1615845
86126263364697,-1.1088941,9.592053,-1.1304493
86126283222490,-1.1064991000000002,9.295072,-1.1615845
86126303076714,-1.1160791,9.364527,-1.1376343
86126322934378,-1.0681788,9.527389,-1.0322535
86126342792171,-0.98435307,9.671089,-1.3244458000000001
86126362649834,-1.0059083,9.754914999999999,-1.2789403999999998
86126382507498,-1.0490186000000001,9.963282000000001,-1.1639795
86126402365163,-0.9963281999999999,9.936936,-1.1088941
86126422218559,-1.0011181999999998,9.704619000000001,-1.089734
86126442076095,-1.1184741000000002,9.484278,-1.1424243
86126461933760,-1.1711646,9.424402,-1.1064991000000002
86126481791295,-1.1400293,9.445957,-1.1160791
86126501644875,-1.2046948999999998,9.553733,-1.3220508
86126521502412,-1.2454101999999998,9.740545,-1.3675561999999999
86126541359819,-1.1208692,9.77168,-1.2382251
86126561217355,-1.0753639,9.7621,-1.3244458000000001
86126581074764,-1.1112891000000003,9.7621,-1.2717555
86126600932299,-1.101709,9.637559,-1.2525953
86126620792267,-1.0921290000000001,9.491463000000001,-1.22146
86126640649804,-1.1136841999999998,9.402847,-1.2573853000000002
86126660507467,-1.0466236,9.505833,-1.3100758
86126680365003,-1.0083033000000001,9.711803999999999,-1.346001
86126700222540,-1.0562036,9.7812605,-1.3436059999999999
86126720075351,-1.1064991000000002,9.654325,-1.2933106
86126739932759,-1.0777588,9.656719,-1.2957056999999998
86126759790296,-1.0777588,9.711803999999999,-1.2933106
86126779647831,-1.0921290000000001,9.6758795,-1.2837305
86126799497467,-1.0777588,9.577683,-1.22625
86126819354876,-1.089734,9.493857,-1.3148658000000002
86126839212283,-1.0418334999999999,9.613608000000001,-1.3148658000000002
86126859069563,-1.0490186000000001,9.795630000000001,-1.3531861
86126878926972,-1.0753639,9.764495,-1.3172607
86126898784379,-1.0657837,9.596844,-1.2693603999999998
86126918629181,-1.0585986,9.541758999999999,-1.3436059999999999
86126938486206,-1.1448194,9.575289,-1.3627661
86126958343357,-1.2597803,9.582474000000001,-1.2597803
86126978200381,-1.2669654,9.651928999999999,-1.2406201000000001
86126998057406,-1.2765454,9.632769,-1.3196558
86127017917972,-1.2573853000000002,9.6758795,-1.3172607
86127037775124,-1.1663746000000002,9.718989,-1.2909156000000002
86127057632149,-1.1112891000000003,9.704619000000001,-1.1735597
86127077489172,-1.101709,9.644744000000001,-1.2358301999999999
86127097341502,-1.094524,9.611214,-1.2406201000000001
86127117198527,-1.0609937,9.5489435,-1.2645704
86127137055422,-1.0322535,9.604028999999999,-1.2070899
86127156912446,-1.0346485,9.6758795,-1.2933106
86127176769343,-1.0801538,9.678274,-1.2717555
86127196626366,-1.096919,9.64714,-1.2430152
86127216486133,-1.1136841999999998,9.6758795,-1.2597803
86127236343030,-1.1543995,9.656719,-1.2406201000000001
86127256200053,-1.1112891000000003,9.584868,-1.2286451
86127276057077,-1.1041040000000002,9.570497999999999,-1.1975098
86127295914102,-1.1064991000000002,9.587264,-1.2334352
86127315768516,-1.089734,9.618399,-1.2597803
86127335625412,-1.1064991000000002,9.707015,-1.2286451
86127355482309,-1.101709,9.70941,-1.1400293
86127375339332,-1.1304493,9.68067,-1.2286451
86127395197288,-1.1448194,9.6686945,-1.1831397
86127415054185,-1.1424243,9.623189,-1.1711646
86127434910952,-1.1136841999999998,9.5633135,-1.1184741000000002
86127454767848,-1.0753639,9.608819,-1.1855347
86127474624745,-1.099314,9.697434,-1.2118799999999998
86127494481512,-1.0705738,9.754914999999999,-1.1855347
86127514347100,-1.0514137,9.683064,-1.1759547
86127534204125,-1.1136841999999998,9.611214,-1.2310401000000002
86127554061148,-1.1160791,9.594449000000001,-1.1496094
86127573918044,-1.0849438999999999,9.596844,-1.096919
86127593775069,-1.0753639,9.613608000000001,-1.1112891000000003
86127613638571,-1.0657837,9.632769,-1.2070899
86127633495723,-1.0753639,9.697434,-1.1999048
86127653352876,-1.101709,9.764495,-1.1280543
86127673210155,-1.1136841999999998,9.718989,-1.0274634
86127693077364,-1.1041040000000002,9.654325,-1.099314
86127712934773,-1.1424243,9.565708,-1.0873389
86127732792180,-1.1160791,9.517808,-1.0370435
86127752649588,-1.1184741000000002,9.568104,-1.0250684
86127772507125,-1.1160791,9.639954,-1.0346485
86127792364532,-1.101709,9.795630000000001,-1.0801538
86127812225896,-1.1112891000000003,9.910591,-1.0921290000000001
86127832083433,-1.1064991000000002,9.80521,-1.1448194
86127851940968,-1.0490186000000001,9.608819,-1.0298585
86127871798504,-1.0442286,9.541758999999999,-1.0059083
86127891656041,-1.1088941,9.481883,-1.0681788
86127911516159,-1.223855,9.498648,-1.1687696
86127931371135,-1.2597803,9.623189,-1.0562036
86127951228800,-1.1256591999999999,9.740545,-1.0442286
86127971086335,-1.0585986,9.750125,-1.1975098
86127990943999,-1.099314,9.850716,-1.099314
86128010801664,-1.0825489,9.833950999999999,-1.0346485
86128030662423,-1.0657837,9.695039999999999,-0.9053174
86128050520087,-1.0681788,9.517808,-1.0178833
86128070377752,-1.0777588,9.419611999999999,-1.0514137
86128090235543,-1.1280543,9.522598,-1.0083033000000001
86128110097805,-1.096919,9.73815,-0.96040285
86128129955726,-1.0106983,9.826766000000001,-1.1088941
86128149813517,-1.0106983,9.78605,-1.1472143999999997
86128169671437,-1.0130934,9.798025,-1.1376343
86128189529230,-1.0178833,9.6758795,-1.0801538
86128209390006,-1.0873389,9.508227999999999,-1.0394385
86128229248054,-1.1663746000000002,9.438772,-0.93405765
86128249105975,-1.1759547,9.491463000000001,-1.0490186000000001
86128268964022,-1.1136841999999998,9.613608000000001,-1.1136841999999998
86128288821942,-1.0538087,9.7740755,-1.2070899
86128308679991,-1.0825489,9.857901,-1.1879296999999998
86128328528388,-1.0466236,9.778865,-1.0873389
86128348386308,-1.0298585,9.726174,-1.0657837
86128368244101,-1.0681788,9.613608000000001,-1.0657837
86128388101892,-1.096919,9.489068,-1.0011181999999998
86128407963609,-1.1256591999999999,9.553733,-0.9484278
86128427821530,-1.1064991000000002,9.630374,-1.0825489
86128447679323,-1.0849438999999999,9.726174,-1.101709
86128467537241,-1.0274634,9.81,-1.1208692
86128487395162,-1.0011181999999998,9.75252,-1.0801538
86128507241268,-1.0490186000000001,9.7740755,-1.0705738
86128527098932,-1.089734,9.75731,-1.0538087
86128546956469,-1.0585986,9.584868,-0.98914313
86128566814132,-1.0585986,9.513017999999999,-1.0298585
86128586671669,-1.0250684,9.534574000000001,-1.1448194
86128606529334,-1.0250684,9.678274,-1.2286451
86128626385035,-1.0442286,9.78605,-1.2046948999999998
86128646242572,-1.0298585,9.733359,-1.1304493
86128666100237,-1.0657837,9.702225,-1.2118799999999998
86128685957774,-1.1112891000000003,9.616004,-1.219065
86128705810719,-1.099314,9.589659,-1.1112891000000003
86128725668256,-1.0466236,9.601633999999999,-1.096919
86128745525665,-1.0083033000000001,9.5489435,-1.1376343
86128765383074,-1.0059083,9.627979,-1.1903248
86128785240611,-0.9915381,9.81958,-1.1280543
86128805098010,-0.90771246,9.862691,-1.0178833
86128824945807,-0.85741705,9.733359,-0.96040285
86128844803088,-0.87897223,9.604028999999999,-1.0825489
86128864660367,-0.9412427,9.587264,-1.096919
86128884517647,-0.9532178,9.654325,-0.9915381
86128904374800,-0.9651929,9.656719,-1.0418334999999999
86128924230354,-1.0011181999999998,9.627979,-1.1687696
86128944087506,-1.0274634,9.750125,-1.1520045
86128963944659,-0.977168,9.764495,-1.1136841999999998
86128983801810,-0.9148975,9.671089,-1.0657837
86129003658363,-0.8981324,9.654325,-1.0562036
86129023515388,-0.9532178,9.6758795,-1.0705738
86129043372539,-0.98195803,9.690249,-1.0370435
86129063229691,-0.92926764,9.64714,-1.0274634
86129083086716,-0.9412427,9.644744000000001,-1.089734
86129102943867,-0.98435307,9.663903999999999,-1.0538087
86129122802671,-0.9987232,9.685459,-1.0538087
86129142659824,-1.0226734,9.716595,-1.0322535
86129162516975,-1.0346485,9.623189,-1.1136841999999998
86129182374127,-1.0873389,9.707015,-1.0825489
86129202231280,-1.1184741000000002,9.73815,-1.0106983
86129222084262,-1.1232642,9.702225,-1.0729688
86129241941287,-1.0753639,9.663903999999999,-1.096919
86129261798312,-1.0394385,9.651928999999999,-1.089734
86129281655334,-1.0609937,9.683064,-1.0322535
86129301515253,-1.0346485,9.6615095,-0.9963281999999999
86129321372278,-1.0442286,9.642349000000001,-1.096919
86129341229429,-1.096919,9.558523,-1.0849438999999999
86129361086453,-1.0274634,9.606423,-1.0130934
86129380943606,-0.96758795,9.769285,-0.9867481
86129400800629,-0.9651929,9.80521,-1.101709
86129420662115,-0.9915381,9.845925,-1.1376343
86129440519268,-1.0059083,9.730965,-0.96040285
86129460376419,-1.0011181999999998,9.642349000000001,-0.9412427
86129480233571,-0.9580079,9.635164,-0.9388476999999998
86129500090724,-0.94603276,9.560919,-1.0250684
86129519954427,-1.0346485,9.529783,-0.974773
86129539811707,-1.0849438999999999,9.627979,-0.9651929
86129559668988,-1.0083033000000001,9.843531,-0.92926764
86129579526267,-0.9364527,9.860296,-1.0083033000000001
86129599381785,-0.9699829,9.807606,-1.0178833
86129619238938,-1.0490186000000001,9.649534,-0.9627979
86129639096217,-1.0538087,9.630374,-0.8909473
86129658953498,-1.0801538,9.604028999999999,-0.8382569
86129678810779,-1.0490186000000001,9.539363,-0.98435307
86129698668057,-1.0562036,9.551338000000001,-0.9412427
86129718532293,-1.0346485,9.75731,-0.8933423
86129738389702,-0.9627979,9.865086,-1.0729688
86129758247109,-1.0322535,9.826766000000001,-1.1232642
86129778104517,-1.0538087,9.7812605,-0.9053174
86129797961926,-1.0681788,9.606423,-0.9436377
86129817817279,-1.0657837,9.503438000000001,-0.8909473
86129837674687,-1.0921290000000001,9.508227999999999,-0.93405765
86129857532096,-1.1496094,9.599238,-0.9029224
86129877389631,-1.1376343,9.78605,-0.92208254
86129897242535,-1.096919,9.860296,-1.0035132
86129917099816,-1.0609937,9.841136,-1.0538087
86129936957095,-1.0490186000000001,9.702225,-0.9699829
86129956814897,-1.094524,9.637559,-0.8669971
86129976672178,-1.1855347,9.553733,-0.8646021
86129996529457,-1.2861254999999998,9.539363,-0.8669971
86130016396069,-1.2645704,9.575289,-0.81191164
86130036253734,-1.1663746000000002,9.663903999999999,-0.9244776
86130056111269,-1.1328443000000001,9.77647,-0.96758795
86130075968805,-1.0753639,9.821976,-0.90052736
86130095826470,-1.0705738,9.812395,-0.89573735
86130115683847,-1.096919,9.616004,-0.90052736
86130135541383,-1.1496094,9.465117,-0.94603276
86130155399048,-1.1615845,9.489068,-0.8143066999999999
86130175256583,-1.1064991000000002,9.536968,-0.76880133
86130195114119,-1.0202783000000002,9.678274,-0.81191164
86130214971656,-0.96758795,9.73815,-0.9484278
86130234827370,-1.0059083,9.81,-1.0178833
86130254684906,-0.9699829,9.831555,-0.85741705
86130274542443,-0.98195803,9.683064,-0.89573735
86130294399850,-1.099314,9.520203,-0.8286768
86130314254680,-1.1543995,9.536968,-0.8214916999999999
86130334112217,-1.1496094,9.608819,-0.79754156
86130353969624,-1.1160791,9.613608000000001,-0.94603276
86130373827160,-1.0873389,9.541758999999999,-0.98435307
86130393684697,-1.0466236,9.601633999999999,-1.0298585
86130413542790,-1.0514137,9.845925,-0.95561284
86130433400198,-1.0154883,10.063872,-0.96040285
86130453257607,-1.0298585,9.826766000000001,-0.9580079
86130473115142,-1.096919,9.527389,-0.9436377
86130492972550,-1.0921290000000001,9.491463000000001,-0.92926764
86130512829959,-1.0202783000000002,9.572892999999999,-0.8981324
86130532691854,-0.99393314,9.587264,-0.82388675
86130552549391,-1.0035132,9.697434,-0.96758795
86130572407056,-1.0011181999999998,9.778865,-1.0394385
86130592264588,-1.0154883,9.783655,-1.0035132
86130612117589,-1.0106983,9.750125,-0.97237796
86130631975126,-0.99393314,9.654325,-0.9963281999999999
86130651832533,-1.094524,9.553733,-0.9196875
86130671690069,-1.1879296999999998,9.651928999999999,-0.7664063
86130691547478,-1.1639795,9.716595,-0.974773
86130711395864,-1.1520045,9.716595,-1.1328443000000001
86130731253144,-1.1304493,9.7812605,-0.9699829
86130751110425,-1.0466236,9.807606,-1.0059083
86130770967832,-1.0226734,9.616004,-1.0825489
86130790825112,-1.089734,9.477093,-1.1136841999999998
86130810682393,-1.1807446000000001,9.606423,-1.1735597
86130830531579,-1.2813355,9.75252,-1.0585986
86130850388731,-1.2430152,9.77168,-1.0753639
86130870245756,-1.214275,9.718989,-1.1615845
86130890102907,-1.1735597,9.7142,-1.0849438999999999
86130909958601,-1.1208692,9.649534,-1.1591895
86130929815626,-1.1543995,9.635164,-1.2765454
86130949672649,-1.2358301999999999,9.570497999999999,-1.3244458000000001
86130969529673,-1.2310401000000002,9.601633999999999,-1.1975098
86130989386698,-1.1711646,9.594449000000001,-1.214275
86131009243721,-1.2022998,9.627979,-1.2837305
86131029100501,-1.1903248,9.70941,-1.2358301999999999
86131048957526,-1.1376343,9.673484,-1.2502003000000002
86131068814549,-1.094524,9.568104,-1.2478052
86131088671573,-1.096919,9.534574000000001,-1.3483961000000002
86131108528598,-1.096919,9.513017999999999,-1.3962965
86131128386925,-1.1639795,9.560919,-1.2118799999999998
86131148244077,-1.1831397,9.575289,-1.0226734
86131168101102,-1.1831397,9.651928999999999,-1.1711646
86131187958253,-1.2022998,9.632769,-1.22625
86131207816905,-1.1424243,9.594449000000001,-1.22146
86131227673930,-1.0633887,9.570497999999999,-1.1591895
86131247531081,-0.9029224,9.539363,-1.1903248
86131267388105,-0.9508228000000001,9.522598,-1.3172607
86131287245130,-1.0370435,9.412427000000001,-1.2597803
86131307102153,-0.9867481,9.362132,-1.2957056999999998
86131326957793,-0.9053174,9.469908,-1.1903248
86131346814818,-0.8334668,9.584868,-1.1567944
86131366671841,-0.82388675,9.687855,-1.1543995
86131386528993,-0.91010743,9.618399,-1.1520045
86131406386018,-1.0298585,9.534574000000001,-1.0466236
86131426245613,-1.0801538,9.587264,-0.96758795
86131446102637,-1.0825489,9.568104,-1.0154883
86131465959790,-1.2525953,9.510622999999999,-1.1496094
86131485816813,-1.4106666,9.508227999999999,-1.1208692
86131505676080,-1.3867163999999998,9.570497999999999,-1.1064991000000002
86131525533105,-1.3579761000000001,9.580078,-1.2118799999999998
86131545390128,-1.3771361999999998,9.484278,-1.1639795
86131565247280,-1.3436059999999999,9.481883,-1.0633887
86131585104305,-1.2981006000000002,9.484278,-1.0753639
86131604961328,-1.2933106,9.433982,-1.0705738
86131624816652,-1.2454101999999998,9.493857,-0.99393314
86131644673677,-1.1807446000000001,9.582474000000001,-1.0370435
86131664530700,-1.1735597,9.604028999999999,-1.0729688
86131684387724,-1.1999048,9.651928999999999,-1.0753639
86131704244877,-1.22625,9.70941,-1.1136841999999998
86131724097016,-1.2741505,9.683064,-1.0657837
86131743954040,-1.3124708,9.412427000000001,-0.9627979
86131763810937,-1.3412110000000002,9.228010000000001,-1.0178833
86131783667960,-1.2885206,9.3309965,-0.8646021
86131803520013,-1.2310401000000002,9.608819,-0.84544194
86131823376782,-1.2310401000000002,9.730965,-0.98914313
86131843233677,-1.2645704,9.716595,-1.0849438999999999
86131863090573,-1.2334352,9.635164,-1.0322535
86131882947470,-1.214275,9.632769,-0.9412427
86131902804365,-1.2669654,9.472302,-0.90771246
86131922666771,-1.3052857,9.314231,-0.8598120000000001
86131942523668,-1.2717555,9.371711999999999,-0.8167017
86131962380691,-1.2454101999999998,9.534574000000001,-0.87897223
86131982238654,-1.2861254999999998,9.604028999999999,-0.88376224
86132002095551,-1.2549903,9.604028999999999,-0.85741705
86132021962759,-1.214275,9.577683,-0.85023195
86132041820039,-1.22146,9.620794,-0.7376661
86132061677192,-1.2525953,9.606423,-0.7759864000000001
86132081534343,-1.3436059999999999,9.5633135,-0.7185059
86132101386052,-1.4705421,9.5561285,-0.5676197
86132121243205,-1.4609618999999998,9.577683,-0.58198977
86132141100356,-1.4106666,9.582474000000001,-0.5340894
86132160957508,-1.3962965,9.541758999999999,-0.5604346
86132180814661,-1.4849122,9.625584,-0.60354495
86132200671812,-1.5304176,9.829161000000001,-0.44307864
86132220537412,-1.4370118,9.800421,-0.27303225
86132240394821,-1.4010864,9.64714,-0.13651612
86132260252100,-1.4082716,9.599238,-0.122146
86132280109380,-1.3939015,9.606423,-0.06227051
86132299966789,-1.2597803,9.6686945,-0.0071850587
86132319823617,-1.2070899,9.881851,0.011975098
86132339680897,-1.4920973,10.4494705,0.6586304000000001
86132359538178,-1.3268408999999999,10.763218,0.89573735
86132379395457,-1.1280543,10.708133,0.21315674
86132399252737,-0.77359134,10.415939999999999,-0.5891748
86132419110018,-0.46463382,10.257869,-0.098195806
86132438974288,-0.8909473,10.516531,0.85023195
86132458831696,-0.7879615,10.015972,0.2802173
86132478688976,-0.24189699,9.354947,-0.82388675
86132498546384,-0.2802173,9.560919,0.10538086
86132518403792,-0.84544194,9.192085,1.5088624
86132538263980,-1.1136841999999998,9.134604,1.6836988000000002
86132558121388,-0.8478370000000001,9.371711999999999,1.3579761000000001
86132577978796,-0.45505372,9.975257000000001,1.7315991999999998
86132597836332,0.5292993,9.7812605,1.5615528
86132617693740,0.14370118,9.898616,2.3878345000000003
86132637535409,0.040715333,9.687855,2.703977
86132657392689,-0.12933107,9.263936,2.5459058
86132677249841,-0.61073,8.928633,3.05844
86132697106993,-0.62749517,8.133486999999999,3.535049
86132716964145,-0.488584,7.783814,3.7218603999999997
86132736826112,-0.6442603,8.066426,3.5805542
86132756683264,-0.49097902,8.222102,3.7482057
86132776540544,-0.34009278,8.301138,3.781736
86132796397824,-0.6322852,8.145462,3.9757326
86132816254976,-0.8095166,7.7335186,4.7541139999999995
86132836107276,-0.8143066999999999,7.7383084,4.5888577
86132855964428,-0.8095166,7.783814,4.3086405
86132875821580,-0.61552006,7.95865,4.6678934000000005
86132895678860,-0.5748047,8.265213000000001,4.768484
86132915536012,-0.89573735,8.308323,4.739743700000001
86132935389842,-1.0370435,8.6077,5.0439115
86132955246995,-1.0011181999999998,8.47837,5.3480787
86132975104020,-1.3004956,8.394544,6.2270513
86132994961170,-2.074087,8.679551,6.9934573
86133014818194,-2.8165430000000002,8.516689999999999,7.311995
86133034680806,-2.3495142,8.303533,7.391031
86133054537958,-2.299219,8.801697,7.290439599999999
86133074395238,-2.2537133999999996,9.529783,5.50136
86133094252518,-2.189048,11.335628,3.642825
86133114109670,-0.7209009,12.1307745,4.184099
86133133966066,-0.102985844,10.078242,2.5291407
86133153823346,-1.9471509999999999,8.032896000000001,-1.7244141
86133173680626,-2.1627028,7.3766603,-2.0046315
86133193537906,-2.4237599999999997,8.957374,-0.21076173
86133213395186,-1.6286133999999999,9.7142,0.3161426
86133233254581,-0.9651929,8.641231,-1.2334352
86133253111861,-0.6442603,8.943004,-2.8093581000000003
86133272969141,1.0106983,10.066267999999999,-2.9674294
86133292826421,2.6057813,11.481724,-1.7459692999999998
86133312683701,2.5411158,12.056529,1.8417700000000001
86133332545583,-0.19639161,10.4638405,2.2896388
86133352402864,-1.2669654,7.422166000000001,0.8143066999999999
86133372260271,-0.5748047,7.3096,-0.16286133
86133392117551,-0.14130616,9.045989,-0.8334668
86133411974831,0.17244141,9.932146000000001,0.10538086
86133431827564,0.05269043,9.419611999999999,0.7544312
86133451684716,-0.10777588,8.796907000000001,1.0514137
86133471541868,-0.55324954,9.045989,1.6573536
86133491399020,-1.3004956,8.988508,1.1735597
86133511256173,-0.7089258,9.271121,-0.35925296
86133531123676,0.77359134,9.632769,-0.2802173
86133550981085,1.3699511999999998,9.936936,0.60354495
86133570838494,0.6825806,11.539205,2.1842580000000003
86133590695903,-0.4143384,12.79659,2.799778
86133610553312,-0.031135255,12.7918,1.3196558
86133630412731,0.98435307,12.121195,0.13891114
86133650270140,1.1711646,10.803933,-0.99393314
86133670127677,-1.1951148999999999,12.078084,0.43349856
86133689985086,-2.0237916,14.049185000000001,-1.2765454
86133709842623,0.25147706,14.707815,-3.2596216
86133729698502,2.8261232000000005,13.273198999999998,-4.6942387000000005
86133749555911,2.42855,13.773757999999999,-3.3458424
86133769413320,1.2502003000000002,15.764019000000001,0.31135255
86133789270601,1.3100758,15.119759,3.796106
86133809128010,0.081430666,12.106824000000001,2.3878345000000003
86133828988426,1.3100758,9.524992999999998,-1.9734962
86133848845834,2.6560767000000003,8.320298,-3.2380664
86133868703370,2.6656568,7.537127000000001,-3.7482057
86133888560778,4.7062135000000005,7.34313,-4.936135299999999
86133908418314,4.361331,7.539521700000001,-3.6452197999999996
86133928278860,2.090852,6.6940800000000005,-3.0153298
86133948136396,0.37362307,5.592371,-3.7146754
86133967993932,-3.4679885,5.5564456,-1.4968873
86133987851468,-3.9517824999999998,5.7719974999999994,0.8909473
86134007710415,-2.9722195,6.967111999999999,0.60833496
86134027579516,-2.926714,8.083191000000001,-0.42870852
86134047437436,-3.1111305000000002,8.3250885,-0.32332766
86134067295356,-3.9972877999999996,8.969349000000001,1.3076807
86134087153148,-4.2439747,9.769285,3.0033545
86134107011068,-2.3614892999999997,10.825489,3.6859352999999997
86134126871700,-0.17962648,13.165423,8.892708
86134146729748,3.051255,13.44085,13.701907
86134166587796,7.350314999999999,7.94907,3.4272730000000005
86134186445844,8.665181,6.926397,-6.6509695
86134206303893,3.903882,9.474698,-9.256751
86134226154128,1.2621753,14.911392000000001,-6.246211
86134246011918,-10.818304,20.415148000000002,2.0309765
86134265869710,-6.832991000000001,9.381292,12.406201
86134285727502,0.5292993,5.295388,-4.9576907
86134305585294,1.951941,9.671089,-9.915381
86134325440750,-0.15328126,12.557088,-6.6581545
86134345298542,-3.4895437000000005,13.316309,-1.8824854
86134365156335,-1.1999048,12.861256,3.65959
86134385014256,0.8047266,9.965676,2.7063723
86134404872049,-1.1448194,8.059241,1.1472143999999997
86134424726336,-2.8500732999999996,8.643626,-0.6562354
86134444584001,-2.2225783,8.856783,-0.54366946
86134464441666,-1.949546,8.598121,-0.29698244
86134484299459,-2.3758595000000002,8.732242,-0.09580079
86134504157124,-2.0405567,8.756192,0.117355965
86134524007443,0.5460645000000001,8.646021000000001,-1.0514137
86134543864980,1.6046631000000002,8.804092,-2.2848487
86134563722517,1.2070899,9.062755000000001,0.8669971
86134583580054,-0.47181886,10.490186,1.9375708999999999
86134603437463,-0.9651929,10.933264999999999,0.62989014
86134623290178,-1.5040723,11.529625,1.5304176
86134643147587,-0.8310718,11.144027000000001,0.52690434
86134663004996,-0.05508545,11.817027000000001,-2.4692652
86134682862405,-0.011975098,14.267132,-3.0225147999999997
86134702719814,1.219065,14.125826000000002,-1.5495777
86134722567855,0.98195803,10.839858999999999,-2.9746144
86134742425136,0.009580079,11.218272,-2.4572902
86134762282289,0.6514453,13.491145000000001,1.0921290000000001
86134782139442,1.5256275,14.384488000000001,3.0009596000000003
86134801996595,2.8764186,13.752203,1.0154883
86134821853854,2.7422974,11.931988,-1.0298585
86134841705107,0.364043,11.417059,-1.3603711
86134861562130,-0.035925295,9.560919,-3.1853762000000003
86134881419154,1.0250684,8.080796000000001,-3.2859669
86134901276178,0.9148975,7.676038,-2.1315675
86134921133202,-2.6273365,7.568262,-0.11256592
86134940995543,-3.9972877999999996,6.8042507,0.67539555
86134960852695,-2.4022048,5.245093,-1.8848804
86134980709847,-3.3003370000000003,5.1684523,-0.25147706
86135000566999,-3.4775686,5.149292,1.2621753
86135020424151,-1.9639161,5.724097,1.9279908
86135040275793,-1.089734,7.699988,2.2752686
86135060132817,-1.3196558,9.941727,3.2883620000000002
86135079989841,-1.8441651000000001,10.384805,2.8812087
86135099846865,-2.318379,10.480606,2.914739
86135119703761,-1.585503,10.856624,5.597161
86135139558542,0.732876,10.801538,11.649376
86135159415566,5.592371,9.692644,12.2433405
86135179272462,8.677156,8.406519,3.0344898999999996
86135199129487,4.593647499999999,9.048384,-2.567461
86135218986512,1.3747413,12.410992,2.4357349999999998
86135238848002,2.3016137999999997,16.798668,0.49337405
86135258705026,-1.4944923,18.714684,-6.2845316
86135278562050,-8.380174,13.409715,-3.3697927000000005
86135298419074,-9.6758795,3.8200562000000007,7.0581226
86135318276098,-3.7074904,1.3507911,0.68737066
86135338133358,-3.2524366000000002,5.415139,-2.189048
86135357990383,-3.1063403999999997,10.3393,-3.6380348
86135377847408,-2.3734642999999997,12.408597,-5.324128599999999
86135397704433,0.4023633,11.563155,-4.744534
86135417561458,2.926714,11.364367999999999,-1.590293
86135437422157,1.7292042,11.524835000000001,7.137158400000001
86135457279182,-1.7531544,9.831555,3.2308814999999997
86135477136207,-2.2225783,8.246053,-0.035925295
86135496993360,-0.88376224,7.764653699999999,-0.5843848
86135516850385,-0.38559815,8.394544,-2.5578809
86135536713662,-1.1112891000000003,9.812395,-0.6346801999999999
86135556570815,-1.7890796999999998,10.123747999999999,1.331631
86135576427968,-1.7220191000000002,8.722662,0.2682422
86135596285121,-1.6453785,8.686736,0.7831714
86135616142274,-1.7627343999999998,9.309442,2.311194
86135635998815,-1.5783178999999998,8.863968,-0.2083667
86135655855968,-0.8334668,8.480764,-2.3854396
86135675713121,-1.1352394,8.662786500000001,-1.1160791
86135695570402,-1.5256275,8.830438000000001,0.14130616
86135715427555,-1.2358301999999999,8.902288,-0.364043
86135735282142,-0.22992188,9.534574000000001,-1.4968873
86135755139295,0.40954837,10.461446,-1.0921290000000001
86135774996576,0.43589357,11.038646,0.117355965
86135794853729,0.07185059,11.105706,1.1280543
86135814710861,0.34248779999999995,10.909314,0.2682422
86135834573754,1.3172607,12.564273,-1.705254
86135854431034,1.7842896000000001,14.662310999999999,-2.411785
86135874288314,1.5447876,13.718673,-0.9364527
86135894145722,-0.61073,10.98835,-0.38320315
86135914003002,-2.8141482000000004,9.113049499999999,-0.45744875
86135933866030,-3.5781593000000003,8.298743,-1.5471827
86135953723438,-4.5792775,8.167017,-2.907554
86135973580974,-6.205496,9.802814999999999,-2.069297
86135993438382,-4.7708793,11.498489,-0.53169435
86136013292855,-2.064507,11.936778,-0.28261232
86136033160759,-1.8250049,11.953543,-0.76401126
86136053018423,-2.0070264,11.103311,-1.2693603999999998
86136072876087,-2.074087,9.707015,-0.75203615
86136092733751,-2.9865894,9.457932000000001,0.38799320000000004
86136112591415,-2.3806496,9.196876,1.1927198
86136132444593,-2.0980372000000003,8.717872,0.09340577
86136152302129,-2.0070264,7.9035649999999995,-0.19878663
86136172159794,-2.579436,7.3670800000000005,-0.53169435
86136192017459,-3.168611,6.9024467000000005,-0.8478370000000001
86136211874993,-3.1949563,6.8425713,-0.7376661
86136231731944,-2.2632935,8.590936,-0.8214916999999999
86136251589480,-1.7292042,10.305769999999999,2.3351439999999997
86136271447144,-1.3172607,12.264895,7.206614
86136291304808,-0.96758795,12.056529,4.533772
86136311162345,-0.70174074,8.983719,-0.17483643
86136331019372,-1.1975098,7.7526784,-0.84544194
86136350876909,-1.4897022,8.198153,-2.3662794
86136370734446,-0.76401126,9.908196,-4.402046
86136390592111,-1.094524,11.908037,-2.6584717999999996
86136410449648,-1.2741505,12.319981,1.7244141
86136430307499,-1.3651612,11.62782,4.734954
86136450165036,-2.2632935,10.346485000000001,4.4858720000000005
86136470022701,-1.463357,8.964559,0.81909674
86136489880238,-0.5939649,8.406519,-3.2021412999999996
86136509737775,-1.5663428,9.17053,-2.6009912
86136529591520,-1.3962965,9.817185,-3.0871804
86136549449185,-0.7568262,10.336905,-1.1567944
86136569306722,-1.3412110000000002,10.782378,1.3507911
86136589164259,-0.9053174,10.358459,1.2885206
86136609021796,-0.84065187,10.186019,0.32093263
86136628870469,-0.728086,9.735755000000001,-1.0490186000000001
86136648727878,-0.7927515,9.328602,-1.5591576999999999
86136668585287,-1.0130934,9.460327000000001,-1.1615845
86136688442568,-1.0777588,9.79084,-0.5724097
86136708299977,-1.3076807,10.066267999999999,-0.050295413
86136728153280,-1.5256275,10.073453,0.100590825
86136748010561,-1.5232325,10.001602,-0.119750984
86136767867692,-1.1975098,9.975257000000001,-0.55803955
86136787724973,-0.7783814,9.860296,-0.81191164
86136807582126,-0.6179150999999999,9.908196,-0.9627979
86136827433481,-0.90771246,9.850716,-0.8669971
86136847290631,-1.3004956,9.7740755,-0.5125342
86136867147655,-1.3891114,9.869876,-0.32332766
86136887004807,-1.3412110000000002,9.929751,-0.35925296
86136906861959,-1.1663746000000002,9.924961,-0.6322852
86136926719111,-1.1472143999999997,9.855506,-0.8143066999999999
86136946577275,-1.2597803,9.7740755,-0.7496411000000001
86136966434299,-1.1975098,9.721385,-0.6945557
86136986291451,-1.1112891000000003,9.740545,-0.6706055000000001
86137006148603,-1.089734,9.74773,-0.7424561
86137026005627,-1.0705738,9.860296,-0.7664063
86137045865016,-1.1424243,9.994417,-0.75203615
86137065722168,-1.2837305,9.891430999999999,-0.6514453
86137085579320,-1.3148658000000002,9.845925,-0.6394701999999999
86137105436472,-1.2957056999999998,9.903406,-0.6322852
86137125293624,-1.2549903,9.857901,-0.62749517
86137145135922,-1.0921290000000001,9.750125,-0.70174074
86137164992818,-0.9508228000000001,9.7740755,-0.68018556
86137184849714,-0.9699829,9.659114,-0.59156984
86137204706610,-0.91729254,9.673484,-0.56522465
86137224563506,-0.8310718,9.6686945,-0.48139894
86137244422956,-0.8813671999999999,9.683064,-0.5005590999999999
86137264279852,-0.9699829,9.836346,-0.5125342
86137284136749,-1.0059083,10.075847999999999,-0.5364844
86137303993644,-1.2430152,9.960887,-0.39757326
86137323850412,-1.3915064,9.817185,-0.33290774
86137343707442,-1.4370118,9.716595,-0.37122804
86137363564210,-1.3483961000000002,9.656719,-0.48379397
86137383420978,-1.1208692,9.651928999999999,-0.7089258
86137403277746,-1.0370435,9.6615095,-0.82388675
86137423134643,-1.0394385,9.699829,-0.79035646
86137442996494,-0.9987232,9.683064,-0.7232959
86137462853391,-1.0370435,9.6686945,-0.69695073
86137482710160,-1.0370435,9.541758999999999,-0.6993457
86137502567057,-1.0921290000000001,9.6758795,-0.8047266
86137522423954,-1.1975098,9.697434,-0.8143066999999999
86137542285093,-1.3052857,9.788445,-0.8143066999999999
86137562142118,-1.3052857,9.783655,-0.7041358
86137581999015,-1.1735597,9.687855,-0.6514453
86137601856040,-1.0921290000000001,9.671089,-0.72569096
86137621712937,-1.0538087,9.678274,-0.85023195
86137641577264,-1.0011181999999998,9.644744000000001,-0.91010743
86137661434417,-1.094524,9.666299,-0.9316626
86137681291570,-1.2741505,9.83874,-0.9268726
86137701148723,-1.3148658000000002,9.695039999999999,-0.8262818000000001
86137721005876,-1.2621753,9.568104,-0.85741705
86137740867339,-1.22146,9.522598,-0.91010743
86137760724620,-1.2310401000000002,9.570497999999999,-0.9699829
86137780581773,-1.2094848999999999,9.692644,-0.9508228000000001
86137800439054,-1.223855,9.611214,-0.9388476999999998
86137820296207,-1.2597803,9.611214,-0.98435307
86137840153400,-1.2022998,9.666299,-0.9436377
86137860010680,-1.1328443000000001,9.807606,-0.9364527
86137879867832,-1.1088941,9.72378,-0.8861573
86137899725112,-1.1424243,9.596844,-0.8981324
86137919582392,-1.1400293,9.608819,-0.8861573
86137939446773,-1.1328443000000001,9.560919,-0.84065187
86137959304181,-1.096919,9.580078,-0.84544194
86137979161589,-1.1472143999999997,9.632769,-0.855022
86137999019125,-1.1903248,9.75731,-0.89573735
86138018873626,-1.1591895,9.862691,-0.8861573
86138038741207,-1.1975098,9.7812605,-0.86939216
86138058598999,-1.2358301999999999,9.656719,-0.8167017
86138078456663,-1.2358301999999999,9.656719,-0.74724615
86138098314327,-1.2454101999999998,9.587264,-0.68737066
86138118172119,-1.1975098,9.587264,-0.7089258
86138138026638,-1.1496094,9.608819,-0.81909674
86138157884430,-1.1831397,9.783655,-0.8143066999999999
86138177742094,-1.1543995,9.948912,-0.76401126
86138197599758,-1.1232642,9.831555,-0.6849755999999999
86138217457422,-1.1184741000000002,9.764495,-0.6993457
86138237318019,-1.1256591999999999,9.721385,-0.73527104
86138257175684,-1.1543995,9.606423,-0.75203615
86138277033477,-1.1687696,9.489068,-0.7448511
86138296891139,-1.1663746000000002,9.469908,-0.7592211999999999
86138316748932,-1.0849438999999999,9.699829,-0.8047266
86138336600553,-1.0130934,9.920172,-0.81909674
86138356458217,-0.9963281999999999,9.922566,-0.8334668
86138376315881,-1.0538087,9.79084,-0.7664063
86138396173545,-1.0609937,9.683064,-0.77359134
86138416031210,-1.0202783000000002,9.587264,-0.7376661
86138435883323,-1.0130934,9.501043,-0.7041358
86138455740732,-1.0753639,9.508227999999999,-0.69695073
86138475598269,-1.1376343,9.587264,-0.7209009
86138495455806,-1.2070899,9.78605,-0.6849755999999999
86138515313343,-1.22625,9.994417,-0.68018556
86138535171614,-1.2310401000000002,9.939331,-0.6442603
86138555029151,-1.2310401000000002,9.740545,-0.68737066
86138574886816,-1.2478052,9.596844,-0.68018556
86138594744353,-1.2669654,9.546548,-0.6466553
86138614601890,-1.2741505,9.536968,-0.6442603
86138634451911,-1.2741505,9.565708,-0.59156984
86138654309320,-1.2837305,9.6686945,-0.6227050999999999
86138674166729,-1.2166698999999999,9.869876,-0.65384036
86138694024266,-1.1184741000000002,9.946517,-0.70174074
86138713881675,-1.1256591999999999,9.872271000000001,-0.68976563
86138733727666,-1.1520045,9.671089,-0.5604346
86138753584691,-1.089734,9.616004,-0.5340894
86138773441844,-1.0657837,9.575289,-0.5556446
86138793298869,-1.0657837,9.5489435,-0.6466553
86138813156004,-1.0777588,9.596844,-0.6849755999999999
86138833008945,-1.0777588,9.70941,-0.613125
86138852865969,-1.0562036,9.75731,-0.5676197
86138872722993,-1.096919,9.817185,-0.5963599
86138892580017,-1.1783496,9.764495,-0.5843848
86138912436913,-1.1879296999999998,9.692644,-0.5340894
86138932296735,-1.2118799999999998,9.671089,-0.52690434
86138952153759,-1.2166698999999999,9.625584,-0.5412744
86138972010783,-1.2549903,9.654325,-0.5891748
86138991867807,-1.2358301999999999,9.711803999999999,-0.60354495
86139011724831,-1.1567944,9.74773,-0.65384036
86139031582678,-1.1831397,9.7142,-0.62989014
86139051439702,-1.2046948999999998,9.72378,-0.6682104999999999
86139071296726,-1.1567944,9.721385,-0.62510014
86139091153750,-1.1112891000000003,9.594449000000001,-0.6059399999999999
86139111010774,-1.1088941,9.601633999999999,-0.63707525
86139130866757,-1.1328443000000001,9.685459,-0.6993457
86139150723781,-1.089734,9.70941,-0.7089258
86139170580805,-1.099314,9.673484,-0.68976563
86139190437702,-1.1472143999999997,9.711803999999999,-0.68737066
86139210294725,-1.1615845,9.75252,-0.6658155
86139230149622,-1.1424243,9.685459,-0.64186525
86139250006518,-1.1951148999999999,9.616004,-0.65384036
86139269863542,-1.2358301999999999,9.625584,-0.6490503000000001
86139289720438,-1.2166698999999999,9.793235000000001,-0.6011499
86139309577334,-1.1663746000000002,9.793235000000001,-0.58677983
86139329439263,-1.1687696,9.654325,-0.5891748
86139349296288,-1.1999048,9.671089,-0.6227050999999999
86139369153313,-1.1424243,9.754914999999999,-0.6011499
86139389010338,-1.1088941,9.637559,-0.56522465
86139408867363,-1.1520045,9.570497999999999,-0.6586304000000001
86139428726752,-1.1903248,9.623189,-0.68018556
86139448583777,-1.1711646,9.802814999999999,-0.73527104
86139468440802,-1.1304493,9.922566,-0.6993457
86139488297827,-1.1064991000000002,9.7812605,-0.60833496
86139508154852,-1.0442286,9.654325,-0.6059399999999999
86139528021645,-1.0298585,9.68067,-0.62510014
86139547878926,-1.0202783000000002,9.541758999999999,-0.6322852
86139567736079,-1.0394385,9.551338000000001,-0.7041358
86139587593360,-1.0490186000000001,9.642349000000001,-0.6730005
86139607450641,-1.0035132,9.81958,-0.63707525
86139627307794,-0.9987232,9.951306,-0.6562354
86139647164971,-0.9987232,9.845925,-0.6514453
86139667022252,-0.94603276,9.70941,-0.71371585
86139686879533,-0.9867481,9.671089,-0.63707525
86139706736814,-0.9627979,9.5489435,-0.61552006
86139726594095,-0.9987232,9.386082,-0.7089258
86139746459702,-1.0777588,9.455538,-0.7568262
86139766317239,-1.0059083,9.750125,-0.76401126
86139786174626,-0.93405765,10.037527,-0.8262818000000001
86139806032035,-1.0681788,9.994417,-0.76880133
86139825889570,-1.1520045,9.81958,-0.78556645
86139845747624,-1.0873389,9.7142,-0.6849755999999999
86139865605288,-0.98435307,9.625584,-0.5628295999999999
86139885462824,-1.0562036,9.457932000000001,-0.7783814
86139905320360,-1.1352394,9.417216999999999,-0.9699829
86139925177896,-1.0466236,9.637559,-0.7831714
86139945041960,-0.9867481,9.833950999999999,-0.6849755999999999
86139964899624,-1.0106983,9.898616,-0.79754156
86139984757288,-1.0370435,9.891430999999999,-0.9316626
86140004615080,-1.0753639,9.802814999999999,-0.90052736
86140024472744,-1.0873389,9.692644,-0.7759864000000001
86140044335156,-1.1424243,9.522598,-0.7161109
86140064192948,-1.1711646,9.477093,-0.8286768
86140084050740,-1.1831397,9.5633135,-0.8933423
86140103908404,-1.0873389,9.726174,-0.83586186
86140123766196,-1.0178833,9.843531,-0.8310718
86140143628066,-0.9915381,9.860296,-0.83586186
86140163485986,-0.9412427,9.81,-0.9268726
86140183343906,-0.9580079,9.730965,-0.9436377
86140203201826,-1.0585986,9.589659,-0.9053174
86140223059747,-1.1807446000000001,9.453142,-0.8214916999999999
86140242916632,-1.214275,9.527389,-0.88376224
86140262774550,-1.1424243,9.671089,-0.9268726
86140282632342,-1.1112891000000003,9.78605,-0.98435307
86140302490262,-1.1496094,9.81958,-0.96040285
86140322348182,-1.096919,9.874666,-0.97237796
86140342198147,-1.0514137,9.74773,-0.8885523000000001
86140362055940,-1.0585986,9.642349000000001,-0.8646021
86140381913733,-1.1543995,9.467513,-0.852627
86140401771398,-1.214275,9.417216999999999,-0.8382569
86140421629191,-1.2382251,9.618399,-0.89573735
86140441486824,-1.1831397,9.862691,-0.9148975
86140461344617,-1.089734,9.910591,-0.93405765
86140481202282,-1.1064991000000002,9.81958,-0.9148975
86140501060075,-1.1328443000000001,9.73815,-0.87418216
86140520917740,-1.1591895,9.666299,-0.7759864000000001
86140540773795,-1.1807446000000001,9.625584,-0.7807764
86140560631460,-1.1903248,9.481883,-0.8334668
86140580489253,-1.1687696,9.544153,-0.91250247
86140600346918,-1.1639795,9.702225,-0.9651929
86140620204583,-1.0801538,9.7812605,-0.9915381
86140640047484,-1.0657837,9.7740755,-0.9436377
86140659904893,-1.0849438999999999,9.807606,-0.8334668
86140679762302,-1.1041040000000002,9.826766000000001,-0.83586186
86140699619711,-1.1352394,9.656719,-0.8430469
86140719477248,-1.1232642,9.534574000000001,-0.92208254
86140739329463,-1.1280543,9.481883,-0.8765772
86140759186744,-1.1136841999999998,9.671089,-0.852627
86140779044025,-1.0562036,9.759705,-0.8885523000000001
86140798901434,-1.0394385,9.788445,-0.95561284
86140818758694,-1.0681788,9.754914999999999,-0.8933423
86140838603505,-1.0178833,9.704619000000001,-0.80712163
86140858460529,-0.98195803,9.671089,-0.88376224
86140878317553,-1.0585986,9.613608000000001,-0.86220706
86140898174577,-1.1352394,9.659114,-0.8933423
86140918031473,-1.1591895,9.716595,-0.84065187
86140937885114,-1.1400293,9.695039999999999,-0.8262818000000001
86140957742010,-1.1041040000000002,9.73815,-0.8598120000000001
86140977598906,-1.0538087,9.697434,-0.80233157
86140997455803,-1.0346485,9.711803999999999,-0.8310718
86141017312698,-1.0274634,9.620794,-0.8382569
86141037170862,-1.101709,9.678274,-0.9436377
86141057027631,-1.1400293,9.721385,-0.8909473
86141076884526,-1.1424243,9.759705,-0.84544194
86141096741422,-1.1280543,9.702225,-0.7568262
86141116598319,-1.1064991000000002,9.630374,-0.7376661
86141136459067,-1.0825489,9.673484,-0.8286768
86141156316091,-1.096919,9.697434,-0.8286768
86141176172988,-1.0849438999999999,9.642349000000001,-0.83586186
86141196030011,-1.1448194,9.592053,-0.78556645
86141215881968,-1.1927198,9.695039999999999,-0.79754156
86141235738737,-1.1759547,9.807606,-0.7448511
86141255595504,-1.1855347,9.793235000000001,-0.728086
86141275452272,-1.2118799999999998,9.70941,-0.73527104
86141295309041,-1.2454101999999998,9.6686945,-0.7424561
86141315165808,-1.214275,9.683064,-0.7113208000000001
86141335027190,-1.1951148999999999,9.685459,-0.6586304000000001
86141354884087,-1.1687696,9.587264,-0.65384036
86141374740982,-1.1520045,9.608819,-0.71371585
86141394597878,-1.1472143999999997,9.74773,-0.7592211999999999
86141414454647,-1.0538087,9.826766000000001,-0.76880133
86141434307665,-1.0729688,9.735755000000001,-0.7161109
86141454164305,-1.099314,9.616004,-0.6777906
86141474021074,-1.1639795,9.575289,-0.6562354
86141493877713,-1.1615845,9.524992999999998,-0.6586304000000001
86141513743714,-1.1639795,9.632769,-0.6706055000000001
86141533600611,-1.1855347,9.683064,-0.6610254
86141553457506,-1.1136841999999998,9.81,-0.6586304000000001
86141573314402,-1.1064991000000002,9.922566,-0.69695073
86141593171427,-1.1136841999999998,9.77168,-0.5843848
86141613028322,-1.1304493,9.625584,-0.6466553
86141632886827,-1.1280543,9.601633999999999,-0.51013917
86141652743852,-1.1041040000000002,9.544153,-0.5891748
86141672600747,-1.1448194,9.584868,-0.5891748
86141692457771,-1.1472143999999997,9.608819,-0.7041358
86141712314796,-1.1807446000000001,9.721385,-0.68737066
86141732181620,-1.1160791,9.855506,-0.62749517
86141752038900,-1.096919,9.901011,-0.5676197
86141771896053,-1.1136841999999998,9.81958,-0.5221143
86141791753332,-1.1160791,9.6686945,-0.55803955
86141811617292,-1.1352394,9.553733,-0.58677983
86141831474701,-1.1663746000000002,9.510622999999999,-0.6227050999999999
86141851332108,-1.1951148999999999,9.541758999999999,-0.6179150999999999
86141871189516,-1.1711646,9.704619000000001,-0.61552006
86141891046925,-1.1376343,9.860296,-0.59156984
86141910904332,-1.1112891000000003,9.910591,-0.61073
86141930765958,-1.0873389,9.934542,-0.5987549
86141950623495,-1.0609937,9.745335,-0.62749517
86141970481030,-1.0801538,9.5561285,-0.60833496
86141990338438,-1.1951148999999999,9.429193,-0.60833496
86142010195975,-1.2693603999999998,9.486672,-0.58198977
86142030061562,-1.2286451,9.683064,-0.5987549
86142049919226,-1.1160791,9.853110000000001,-0.64186525
86142069777019,-1.0418334999999999,9.891430999999999,-0.7113208000000001
86142089633477,-1.0274634,9.872271000000001,-0.6993457
86142109491141,-1.0083033000000001,9.82437,-0.7089258
86142129348934,-1.0394385,9.711803999999999,-0.62031007
86142149208109,-1.1041040000000002,9.522598,-0.5748047
86142169066029,-1.1448194,9.496253,-0.5724097
86142188923822,-1.1520045,9.572892999999999,-0.5676197
86142208781741,-1.0849438999999999,9.75731,-0.68737066
86142228631513,-0.9580079,9.77168,-0.7592211999999999
86142248489178,-0.92208254,9.793235000000001,-0.75203615
86142268346843,-0.9699829,9.845925,-0.7185059
86142288204505,-1.0178833,9.795630000000001,-0.6658155
86142308062170,-1.0753639,9.699829,-0.6777906
86142327925348,-1.1088941,9.520203,-0.6586304000000001
86142347783140,-1.101709,9.501043,-0.7089258
86142367640933,-1.1112891000000003,9.651928999999999,-0.7783814
86142387498724,-1.0562036,9.795630000000001,-0.74724615
86142407356388,-1.0394385,9.848321,-0.73527104
86142427214181,-1.0202783000000002,9.81,-0.73527104
86142447074860,-1.0202783000000002,9.72378,-0.84065187
86142466932652,-1.0657837,9.685459,-0.7544312
86142486790445,-1.0490186000000001,9.584868,-0.7113208000000001
86142506648236,-1.1041040000000002,9.565708,-0.6586304000000001
86142526497248,-1.0633887,9.6758795,-0.74724615
86142546354913,-1.0298585,9.798025,-0.79993653
86142566212576,-0.9987232,9.72857,-0.8143066999999999
86142586070240,-0.9508228000000001,9.702225,-0.7807764
86142605927777,-0.8981324,9.707015,-0.68737066
86142625780529,-0.90052736,9.716595,-0.7424561
86142645638065,-0.9627979,9.75252,-0.81909674
86142665495602,-1.0298585,9.630374,-0.74724615
86142685353137,-1.0059083,9.620794,-0.7113208000000001
86142705210673,-1.0274634,9.716595,-0.6777906
86142725068210,-1.0059083,9.72378,-0.7568262
86142744920480,-1.0106983,9.733359,-0.7807764
86142764778016,-1.0514137,9.707015,-0.74724615
86142784635425,-1.0562036,9.656719,-0.7711963000000001
86142804492832,-1.0921290000000001,9.68067,-0.76401126
86142824335148,-1.1064991000000002,9.72378,-0.76161623
86142844192301,-1.1448194,9.730965,-0.67539555
86142864049452,-1.1615845,9.711803999999999,-0.72569096
86142883906604,-1.2358301999999999,9.690249,-0.7424561
86142903763757,-1.2573853000000002,9.77168,-0.74006104
86142923618750,-1.219065,9.7621,-0.6945557
86142943475774,-1.1759547,9.606423,-0.77359134
86142963332927,-1.1639795,9.558523,-0.91010743
86142983189950,-1.1975098,9.656719,-0.8981324
86143003047102,-1.2286451,9.800421,-0.852627
86143022904127,-1.2502003000000002,9.73815,-0.7544312
86143042727632,-1.2070899,9.654325,-0.7759864000000001
86143062584016,-1.1424243,9.697434,-0.82388675
86143082440401,-1.0418334999999999,9.704619000000001,-0.855022
86143102296656,-1.0562036,9.654325,-0.8167017
86143122159233,-1.1448194,9.623189,-0.76880133
86143142015746,-1.1855347,9.673484,-0.7831714
86143161872129,-1.1448194,9.800421,-0.7951465
86143181728513,-1.0514137,9.79084,-0.8167017
86143201585026,-0.977168,9.740545,-0.6993457
86143221441409,-0.9268726,9.702225,-0.6514453
86143241306412,-0.91250247,9.702225,-0.6945557
86143261162925,-0.9364527,9.6686945,-0.7424561
86143281019310,-0.9316626,9.606423,-0.6777906
86143300875823,-0.9651929,9.611214,-0.6658155
86143320732336,-1.0226734,9.730965,-0.6777906
86143340598673,-1.0106983,9.881851,-0.72569096
86143360455314,-1.0657837,9.939331,-0.7065308000000001
86143380312083,-1.0777588,9.726174,-0.68018556
86143400168724,-1.0729688,9.656719,-0.6993457
86143420031905,-1.0705738,9.565708,-0.7185059
86143439888674,-1.0538087,9.513017999999999,-0.72569096
86143459745443,-1.1136841999999998,9.5633135,-0.7424561
86143479602212,-1.101709,9.68067,-0.6586304000000001
86143499458981,-1.0681788,9.881851,-0.68018556
86143519315750,-1.0562036,9.968072,-0.6825806
86143539182831,-1.0106983,9.857901,-0.6658155
86143559039856,-1.0394385,9.72378,-0.5963599
86143578896881,-1.0370435,9.606423,-0.54366946
86143598753778,-1.0346485,9.539363,-0.6059399999999999
86143618610803,-1.0538087,9.5561285,-0.6682104999999999
86143638473410,-1.0490186000000001,9.623189,-0.6706055000000001
86143658330435,-1.0609937,9.77168,-0.6777906
86143678187588,-1.0250684,9.944121,-0.6346801999999999
86143698044720,-1.0825489,9.912986,-0.62749517
86143717911321,-1.1280543,9.77168,-0.6849755999999999
86143737768602,-1.089734,9.651928999999999,-0.61552006
86143757626011,-1.096919,9.522598,-0.5987549
86143777483292,-1.1807446000000001,9.508227999999999,-0.5748047
86143797340573,-1.1352394,9.551338000000001,-0.5221143
86143817197854,-1.0274634,9.733359,-0.5676197
86143837050770,-1.0442286,9.941727,-0.60833496
86143856907923,-1.0562036,9.908196,-0.7376661
86143876765202,-1.096919,9.764495,-0.6849755999999999
86143896622354,-1.1328443000000001,9.683064,-0.51013917
86143916479635,-1.1328443000000001,9.582474000000001,-0.38799320000000004
86143936340845,-1.1376343,9.536968,-0.5125342
86143956198125,-1.1639795,9.558523,-0.5676197
86143976055534,-1.0609937,9.616004,-0.62031007
86143995912941,-0.9867481,9.795630000000001,-0.5748047
86144015770349,-0.98195803,9.862691,-0.51971924
86144035627758,-1.0370435,9.857901,-0.5724097
86144055494576,-1.1591895,9.75731,-0.58677983
86144075354438,-1.2525953,9.64714,-0.51013917
86144095212103,-1.2430152,9.572892999999999,-0.45744875
86144115069894,-1.1903248,9.560919,-0.5388794
86144134932445,-1.1520045,9.6615095,-0.6825806
86144154790238,-1.1208692,9.72378,-0.6562354
