UPTIMENANO,Ax,Ay,Az
86090301262142,0.31608105,0.35560057,9.4420395
86090321120446,0.34204555,0.04215179,9.1749735
86090340978751,0.10158632,0.391657,10.143894
86090360837773,-0.25824034,0.8360635,11.189386
86090380696077,-1.0931326,-0.4545983,10.21412
86090400554510,-0.25549966,-0.3698631,7.7836914
86090420412813,1.5920928,1.1038325,9.580633
86090440264051,-1.2140313,1.1090506,12.803147
86090460122100,-2.4787915,-0.544784,11.302617
86090479980275,-1.3104906,-1.1393948,9.8546505
86090499838451,0.28196082,-0.37174118,10.181442
86090519696628,1.0692178,0.80261004,10.634629
86090539554675,0.10568285,0.94744927,9.528384
86090559413284,-1.8483574,0.79784966,10.367693
86090579271333,-2.837295,2.0622272,12.784579
86090599129508,-0.622813,2.7821884,12.2024765
86090618987684,0.43389362,1.6160173,9.905826
86090638845861,-0.91482115,-0.23022792,9.367529
86090658702902,-1.899296,-1.2648125,8.831182
86090678561078,-1.5800679,-0.42859027,9.1750145
86090698419255,-1.8686287,-0.37596834,8.93769
86090718277430,-1.6030988,0.32421115,9.11428
86090738129992,-1.3794681,1.26536,9.618109
86090757988041,-0.83529234,1.1334636,9.081634
86090777846088,0.6749689,-0.83549106,7.970228
86090797704136,0.9157806,-1.2134235,8.523234
86090817562313,-0.017929401,0.6846986,9.176702
86090837420360,-0.24611306,1.0673767,9.396101
86090857276421,0.42350858,0.9529643,10.196455
86090877134470,-0.32596296,0.74982905,9.65567
86090896992517,-0.101215556,-0.36393902,8.9492445
86090916850693,-0.31283134,-0.8250722,9.133396
86090936708742,-0.121162154,0.7487505,10.043349
86090956562208,-0.092327826,1.9436924,10.322949
86090976420128,-1.0526924,0.91036415,10.303911
86090996278049,-3.975205,-0.32276732,9.714579
86091016136096,-0.8939762,-1.1017911,9.02586
86091035994016,0.7733429,-1.6001046,8.553485
86091055852065,1.055085,0.38741207,8.161598
86091075697844,3.5761833,1.2910786,8.765698
86091095555636,2.073093,-0.7148124,10.357504
86091115413301,0.3262879,0.9684558,12.255157
86091135270964,1.3291413,1.3430445,11.364915
86091155128215,0.3389913,0.7138535,11.00121
86091174986008,0.62656164,0.7011156,10.719657
86091194846215,2.1696398,0.7690519,8.453806
86091214703879,1.7392881,0.43772334,8.807126
86091234561672,0.4319413,0.62363297,9.653327
86091254418610,-1.2501396,0.75200367,10.17037
86091274276274,-2.5862045,1.8341575,12.155093
86091294133939,-2.9419727,1.7091389,11.357043
86091313991474,-3.1730087,-0.3298099,9.390965
86091333849138,-5.786467,0.13625005,9.236328
86091353706803,-3.324291,1.4394158,9.124643
86091373567745,-2.4151738,-0.35825434,6.7687387
86091393425409,-2.1704414,-0.3398066,6.7590356
86091413283074,-3.5161507,-1.9276512,8.012482
86091433140737,3.996473,-1.9207885,11.748583
86091452998022,3.90254,-1.2647588,14.775125
86091472855687,-4.8565607,1.0652083,9.476723
86091492713222,-2.7153838,1.3857255,10.106668
86091512570886,-0.81308365,1.1717498,11.908713
86091532428423,-1.1013981,0.3899397,9.985823
86091552279182,-0.8838831,-1.2481335,8.974816
86091572136462,-0.39877883,-0.576839,7.164294
86091591993871,-1.0416358,-4.1947007,4.9824786
86091611851278,-1.2820915,-5.8552985,3.175514
86091631708686,-0.9769716,-3.8149364,2.5988348
86091651565967,-1.8733042,-1.8288283,2.3081954
86091671426519,-5.9712796,6.3805456,12.974739
86091691283927,2.434453,11.465628,20.600925
86091711141336,2.7079108,1.8432187,9.311084
86091730998743,-1.079124,-3.205923,2.1158829
86091750863458,-1.4005257,2.072836,3.7697787
86091770721123,-3.5770485,4.2864313,7.616455
86091790578786,-2.5632937,4.434511,13.969595
86091810436322,-1.2661542,2.8237429,17.41823
86091830293987,1.6290737,2.730325,16.92809
86091850151522,2.1395555,0.6287244,16.684942
86091870010906,2.6102724,-0.92106867,15.542455
86091889868571,3.6389062,-1.873764,11.765402
86091909726362,3.265577,-3.2034216,9.001117
86091929584026,3.2543945,-2.9205055,2.2940364
86091949441691,0.45520347,0.19927816,-13.499574
86091969299293,0.834746,2.9255726,17.065948
86091989156957,0.3472997,3.5446603,22.501713
86092009014750,-0.82783186,3.859677,12.733013
86092028872541,-2.6029365,0.4097485,10.141313
86092048727950,-4.1797705,-2.3488748,2.7551618
86092068585615,-6.815098,-1.3324496,4.7049217
86092088443278,-2.8359907,-1.6085169,9.834072
86092108300942,-2.426438,-0.029761799,7.187696
86092128158735,-2.2937737,1.3589814,3.5064201
86092148016398,-4.9765444,1.0386505,8.947513
86092167884180,-4.085969,4.79082,2.3275895
86092187742100,-4.627673,6.505908,1.6861155
86092207600020,-2.290704,6.832521,4.957309
86092227457940,-1.3367245,5.4377475,6.008611
86092247315988,-0.7547659,4.074043,5.40838
86092267182283,-0.019029692,5.5746365,5.9513674
86092287040459,1.6926318,7.226105,8.62898
86092306898507,2.892866,6.140966,11.060997
86092326756683,2.652375,4.777433,14.359174
86092346614731,3.1400409,4.3735785,14.880903
86092366466105,1.9229165,3.591121,12.605971
86092386324153,0.7705347,2.7581756,13.86695
86092406182073,1.2863466,1.0651718,16.914644
86092426040121,3.4179313,-0.8015307,19.381338
86092445898041,4.4588804,-2.5335698,20.746304
86092465752310,4.909082,-3.9761658,21.762697
86092485610230,0.6763068,-5.9955287,20.055683
86092505468150,2.044369,-8.130539,17.286266
86092525326070,6.1917934,-9.75779,15.575248
86092545183990,-5.767118,-3.493519,12.188386
86092565034772,-9.554953,-0.4908017,9.557847
86092584892564,-1.8648882,-0.8838892,9.553062
86092604750356,0.86405754,-2.4855988,11.42217
86092624608148,-2.8236907,-2.0217462,7.5027113
86092644465940,-2.512763,-1.083295,6.335133
86092664320049,1.9037912,-3.1415012,8.097067
86092684177713,-1.1902508,-3.7505424,4.5154085
86092704035377,1.4023247,-2.469494,4.6284256
86092723892913,1.7773236,-2.5847309,7.546322
86092743750577,2.6432304,-4.2966723,9.076738
86092763610612,5.3764195,-4.068285,6.733194
86092783468276,0.6544612,-3.879458,6.9628406
86092803325940,0.7980322,-0.11369989,6.8082547
86092823183604,2.2862272,-1.4227557,6.0985327
86092843041268,1.2117094,-2.6620767,8.730869
86092862896908,-0.7208405,-1.2242504,11.185635
86092882754444,-3.03525,0.6890202,9.4902
86092902612108,-2.2046702,1.8434113,8.830655
86092922469772,-1.8991824,1.9097561,8.597565
86092942327436,2.8124254,-1.2164626,11.902093
86092962184277,5.9726458,0.84954524,15.1783
86092982041941,2.1376066,3.9411838,10.694642
86093001899605,0.70859873,2.8862798,10.02964
86093021757269,-1.2568439,2.2247703,11.459694
86093041614933,-2.3592396,2.4110005,8.659068
86093061476181,-1.9318857,-0.9172451,8.71259
86093081333845,0.9851273,-0.09634522,10.578015
86093101191509,-0.11047713,-1.3685327,11.604698
86093121049301,-1.3839996,-1.9353522,9.6144085
86093140906965,-0.016014196,-1.9895235,11.4802065
86093160762366,4.266927,1.7353396,11.80447
86093180620030,0.8887099,-0.6213983,14.686954
86093200479221,-1.7731515,-1.4724629,12.254951
86093220336885,0.5433258,-0.22727543,13.180755
86093240194549,2.0462427,0.3406932,15.511531
86093260061801,1.0971644,1.8925018,11.222511
86093279919721,-0.79690325,-0.778944,9.764098
86093299777513,3.4488125,-2.0352938,6.2835765
86093319635305,0.47987944,0.86648184,4.7915854
86093339493097,-1.7016498,0.81405914,1.8549019
86093359353833,0.031148886,-0.48064578,5.263084
86093379211753,1.2367293,-2.2731385,7.316709
86093399069673,3.3491,-2.6363058,8.317754
86093418927593,3.1023798,-1.4499097,9.337553
86093438785513,3.4513235,-1.1411453,10.412617
86093458644974,2.1896358,-0.554413,11.227307
86093478502894,-1.5532367,1.3342172,11.434167
86093498360942,-0.044379048,3.506779,13.747704
86093518218862,-0.6133931,3.6634715,12.03547
86093538076782,-0.7278274,1.4982225,9.359981
86093557931240,0.07101845,0.44382504,7.792891
86093577789160,0.36000362,2.0981963,7.5102324
86093597646952,-1.4829018,4.6625233,8.565546
86093617504872,-2.4176495,3.6169524,9.115944
86093637362664,-3.3915071,2.9206128,7.070041
86093657215860,-4.052221,3.0089478,10.319834
86093677073524,-1.2967998,1.2981592,12.4998865
86093696931188,-0.8582843,0.80786055,11.201013
86093716788980,-0.2704695,1.0427816,11.021486
86093736646644,0.2724614,1.2841961,12.020088
86093756514474,-1.3035129,1.8870872,14.608586
86093776372394,-4.57113,3.2040107,16.299404
86093796230442,0.5296927,-0.15170276,12.07947
86093816088362,1.8918825,-0.78764147,10.187652
86093835946282,0.5156243,0.8387185,10.64032
86093855807675,0.49389347,0.9379874,10.462078
86093875665851,0.9412335,-0.31304607,10.286909
86093895524027,3.2585232,-2.2676785,9.162253
86093915382203,1.5009431,0.48550946,10.043712
86093935240379,0.7239227,-1.1293603,9.555419
86093955093959,2.4206781,-1.4617386,8.077936
86093974952007,4.464408,-3.030439,8.466044
86093994810055,7.2422585,-5.124204,8.202738
86094014668103,4.4686813,-3.187284,5.3082004
86094034526151,0.39989147,-0.7759468,3.450519
86094054391178,-4.0052223,2.702662,3.9769742
86094074249354,-22.805395,11.201639,11.16157
86094094107530,-9.626,8.766479,12.580318
86094113965706,4.9041734,1.0297078,9.674589
86094133823882,1.8611969,-6.6104264,11.315825
86094153678571,-1.3576705,-11.074072,5.116574
86094173536619,-3.8187432,6.6078577,16.410242
86094193394667,4.6531067,6.689746,11.343318
86094213252843,3.3426197,2.6796556,7.8053517
86094233110891,-0.2751797,2.0562878,12.729921
86094252971491,-0.2855455,-1.1057671,13.431716
86094272829667,-1.5526139,-0.4329755,10.648804
86094292687843,-1.4659295,-0.50529194,9.98884
86094312545891,0.7002424,0.1412686,10.798444
86094332404067,3.1054678,-0.6032809,10.094582
86094352261736,3.4883182,-5.1160603,6.505652
86094372119912,3.1923144,-0.26593015,6.798504
86094391978088,-0.53851134,2.699547,8.563293
86094411836264,-1.0158336,-1.845377,7.910709
86094431694440,-2.3832645,-2.4695745,8.694791
86094451543374,-1.1793227,0.8259973,10.186982
86094471401294,-0.2471446,3.7938826,10.380068
86094491259342,-1.222587,4.0484753,11.293468
86094511117262,0.13832046,0.4432701,11.108866
86094530975182,0.8875733,0.64369667,10.2109
86094550825671,1.0455605,0.30180612,9.503245
86094570683463,1.4943293,-0.5107243,9.283294
86094590541255,0.38989532,-0.39120477,10.164916
86094610399047,0.24906485,0.2700654,10.561014
86094630256839,0.08911674,1.5350785,10.5846195
86094650113398,-1.3787433,1.4428005,11.419038
86094669971190,-1.309699,-0.4229285,11.124124
86094689828854,-1.1242851,0.75807905,10.279633
86094709686646,-1.3434904,1.1625541,7.7565765
86094729544310,0.32364178,-3.7605808,7.0705585
86094749401440,1.5652766,-3.6170802,10.051921
86094769259104,-1.2720677,6.2214074,14.7561865
86094789116768,0.42316374,2.3810833,9.849957
86094808974432,2.6432765,2.8762264,9.099299
86094828832096,-0.85995775,-1.0144933,11.028296
86094848690325,-0.6748826,-1.1612226,8.784671
86094868547990,0.55287313,-0.29706907,5.520728
86094888405783,2.819507,-1.8569506,5.499788
86094908263576,4.0146766,-4.325829,7.630222
86094928121237,3.8741512,-0.67611474,12.852737
86094947981552,1.0920289,3.2683625,11.25307
86094967839344,1.0333915,-1.6764138,7.7304482
86094987697136,1.6595259,2.6380138,8.670102
86095007554928,-0.14229006,3.726593,10.709565
86095027412720,-1.8094904,1.7142552,10.3227215
86095047269469,-1.3185117,0.5168975,8.581306
86095067127261,0.963193,0.17057806,5.2195964
86095086985053,3.3089116,2.912278,7.2442546
86095106842845,4.8125067,1.9760514,11.220217
86095126700637,2.1949673,-1.1419239,12.985329
86095146559488,-4.910889,-5.854426,14.191329
86095166417280,-8.622992,-4.772577,11.59684
86095186273031,-2.7557046,0.17666392,9.73351
86095206130823,0.46990505,2.9534214,10.059249
86095225988487,-0.22713757,3.2601337,9.7348175
86095245845626,-0.94640386,1.9793576,9.621299
86095265703418,-1.2897769,0.88287675,9.773945
86095285561082,-0.71943843,0.06282692,9.643516
86095305418746,-0.18320324,-0.19409646,9.8168335
86095325276410,0.12382326,-0.27569476,9.8191185
86095345133987,0.51137954,0.112278305,9.778841
86095364991651,0.66149884,0.4777569,9.749913
86095384849443,0.48965836,0.42906284,9.642218
86095404707107,0.27296868,7.496038E-4,9.509871
86095424564899,0.21921322,-0.16784082,9.576199
86095444418887,0.45235127,-0.17309806,9.861432
86095464276423,0.76901096,-0.19122875,9.918879
86095484134087,0.9191497,-0.37986055,9.911921
86095503991752,0.73176605,-0.40212157,9.815842
86095523849417,0.44096932,-0.28969318,9.545881
86095543706954,0.60635144,-0.28537646,9.539771
86095563564031,0.6932968,-0.42071152,9.710576
86095583421568,0.6398359,-0.45758843,9.7602215
86095603279233,0.68483406,-0.28740942,9.744675
86095623136770,0.79702204,-0.17915992,9.671479
86095642994307,0.75198233,-0.09845226,9.707309
86095662860126,0.6429189,-0.123322524,9.709
86095682717919,0.5261559,-0.18176703,9.714203
86095702575712,0.5561407,0.044042226,9.785974
86095722433505,0.49545616,0.061984733,9.724824
86095742291298,0.4626364,0.028078623,9.704389
86095762149937,0.51990485,-0.007432985,9.802422
86095782007858,0.59787583,0.028984006,9.759648
86095801865651,0.63146245,0.024370002,9.798976
86095821723430,0.49086112,-0.05246465,9.848642
86095841581350,0.43981776,0.035657123,9.775959
86095861444499,0.27052563,0.09663425,9.753539
86095881302547,0.25652665,0.071058325,9.763543
86095901160467,0.2378423,-0.15283221,9.818007
86095921018515,0.28197262,-0.1874352,9.87874
86095940876435,0.3832555,3.4469727E-4,9.758935
86095960733616,0.15204859,0.11051868,9.704606
86095980591664,0.05351346,0.05773956,9.661219
86096000449712,0.1180005,0.06292593,9.756161
86096020307632,0.18161222,0.085150614,9.8904915
86096040165680,0.1669262,0.06799837,9.918081
86096060029256,0.049084578,0.13395874,9.922877
86096079887304,-0.07470395,0.23585074,9.864828
86096099745352,-0.098791964,0.15783235,9.748941
86096119603400,0.07736414,0.07031542,9.596706
86096139461576,0.2464721,0.04359852,9.67746
86096159321751,0.45473865,0.07698723,9.852354
86096179179799,0.4651903,-0.02913807,9.883321
86096199037847,0.3794358,0.012625403,9.70371
86096218896024,0.16594487,-0.031406313,9.651339
86096238754071,0.2239387,-0.021585876,9.814883
86096258614179,0.30879712,-0.017628206,9.963781
86096278472355,0.30903158,-0.013170517,9.817436
86096298330531,0.29131866,-0.060983013,9.723535
86096318188707,0.33920297,-0.036348484,9.659681
86096338046884,0.5265407,-0.024015706,9.725889
86096357906279,0.5088748,-0.0892248,9.70251
86096377764584,0.41630244,-0.05414971,9.831164
86096397622761,0.31712487,0.05403964,9.867851
86096417480938,0.21408363,0.08946489,9.868986
86096437339115,0.2192571,0.044849444,9.775325
86096457187454,0.09543599,0.028306596,9.830382
86096477045503,0.0880063,-0.020911936,9.691368
86096496903552,0.20233142,-0.070982605,9.655575
86096516761473,0.31199545,0.056524836,9.703599
86096536619522,0.38320848,0.14647372,9.707311
86096556475759,0.38575423,0.09516188,9.7660675
86096576333808,0.2803251,-0.061807267,9.854676
86096596191857,0.23806836,-0.13016164,9.804429
86096616049778,0.2650739,-0.09949935,9.798112
86096635907827,0.3454263,-0.0034763995,9.714184
86096655761298,0.37042007,0.048463043,9.725365
86096675619219,0.367818,-0.018283658,9.828855
86096695477140,0.31568402,-0.018528333,9.849057
86096715334933,0.2338327,-0.04487411,9.759893
86096735192854,0.27668917,-0.049380902,9.78866
86096755056913,0.41017017,-0.027597573,9.70408
86096774914962,0.37993708,0.0010805791,9.596884
86096794772988,0.25179994,0.0066408445,9.61637
86096814631037,0.26187363,0.0637397,9.794955
86096834489084,0.28072613,0.008946201,10.0609255
86096854345237,0.23053715,-0.012170634,10.071312
86096874203285,0.21587677,0.11101749,9.836455
86096894061333,0.108603954,0.0835043,9.691621
86096913919381,0.075113505,0.08344736,9.629821
86096933777301,0.16401324,0.084968306,9.619914
86096953635349,0.21122858,0.12316924,9.755501
86096973493903,0.27228963,0.14942798,9.819945
86096993351823,0.27566126,0.10263386,9.903506
86097013209871,0.22218283,0.004329302,9.846103
86097033067919,0.1498596,0.062811024,9.711536
86097052925839,0.113675095,0.07581846,9.725249
86097072781286,0.21331474,0.058327187,9.865786
86097092639206,0.2803041,0.09631927,9.827764
86097112497126,0.21061343,0.006830666,9.808462
86097132355046,0.1631998,0.097409025,9.662269
86097152212966,0.19244154,0.02333039,9.775553
86097172067226,0.28212273,0.0011213148,9.820714
86097191923765,0.19455922,0.17024145,9.95645
86097211781686,0.1483824,0.12601633,9.812862
86097231639479,0.16216832,0.17911947,9.636633
86097251497272,0.1934475,0.21532582,9.624211
86097271356527,0.19785891,0.35709202,9.704967
86097291214448,0.21303977,0.24571227,9.766269
86097311072241,0.1924859,0.1452426,9.753687
86097330930162,0.12736489,0.23282897,9.808055
86097350787955,0.070363835,0.31572396,9.805011
86097370642886,0.10101889,0.34115973,9.874604
86097390500679,0.18353553,0.2073335,9.804995
86097410358472,0.20801595,0.17145994,9.752842
86097430216265,0.22409415,0.22016221,9.726559
86097450074058,0.2549176,0.30288234,9.743741
86097469936477,0.29067582,0.22765888,9.71658
86097489794270,0.28366777,0.16349372,9.796364
86097509652191,0.3777939,0.11305841,9.8392725
86097529509984,0.36267704,0.1476109,9.778164
86097549367905,0.28942156,0.09074833,9.844483
86097569223034,0.21014765,0.17245865,9.822999
86097589080827,0.19639762,0.09381213,9.757245
86097608938620,0.23207985,0.03030307,9.786663
86097628796413,0.28216287,0.04958219,9.71684
86097648654078,0.32978588,0.013407391,9.775187
86097668512367,0.2989118,0.22507785,9.801363
86097688370288,0.25592098,0.2461271,9.726328
86097708228081,0.12767944,0.23349921,9.760714
86097728085874,0.1369416,0.20241521,9.772831
86097747943667,0.22628163,0.04669764,9.715036
86097767788142,0.24513055,-0.0032736314,9.775992
86097787645679,0.22530565,0.12305802,9.834027
86097807503337,0.21588221,0.16406226,9.831882
86097827360873,0.25516105,0.15287809,9.6429405
86097847218537,0.18824014,0.20874645,9.50669
86097867083107,0.11444777,0.17778261,9.702655
86097886940771,0.15678711,0.16448946,9.90898
86097906798563,0.1874032,0.13577786,9.980511
86097926656355,0.17338692,0.03577863,9.835515
86097946514019,0.088959746,0.15850362,9.661331
86097966378961,0.16412604,0.21684892,9.683495
86097986236881,0.29749763,0.16738,9.64801
86098006094801,0.3743728,0.05995265,9.86458
86098025952721,0.344056,0.071161956,9.8139715
86098045810641,0.20286207,0.1976176,9.809525
86098065660229,0.16018756,0.18585931,9.7758875
86098085518022,0.18138017,0.21496469,9.776216
86098105375687,0.29846978,0.06637322,9.730354
86098125233349,0.2430844,0.10194175,9.663164
86098145091013,0.081979305,0.17816465,9.7414465
86098164956479,-1.6233778E-6,0.23327173,9.762936
86098184814271,0.06747973,0.116802424,9.832132
86098204672063,0.061492223,0.088884085,9.838774
86098224529855,0.03363285,0.111011475,9.807354
86098244387775,0.067161694,0.021171639,9.84625
86098264247226,0.0940378,0.009489539,9.759127
86098284105019,0.18481688,0.04041881,9.700091
86098303962812,0.24784324,0.09634905,9.716708
86098323820605,0.31439337,0.12179927,9.777674
86098343678526,0.27075833,0.0948035,9.873175
86098363540499,0.15294147,0.052674465,9.87777
86098383398420,0.09830547,0.07620038,9.673741
86098403256341,0.08978273,0.08365123,9.702045
86098423114262,0.15792833,0.14361079,9.834458
86098442972183,0.2920155,0.1121489,9.865688
86098462822540,0.3625621,-0.0055136145,9.879196
86098482680333,0.31553924,0.055708513,9.760356
86098502537998,0.19587468,0.23314075,9.751993
86098522395791,0.19774655,0.21116933,9.750842
86098542253584,0.14083375,0.12707646,9.589049
86098562106743,-0.043175004,0.0026243455,9.637132
86098581964408,-0.04678197,0.07396527,9.844248
86098601822201,0.056786653,0.25850266,9.973584
86098621679866,0.2013887,0.13147645,9.897554
86098641537531,0.1352029,0.045507703,9.666788
86098661389674,0.095182605,0.044483554,9.651155
86098681247211,0.22223073,0.07020952,9.780325
86098701104876,0.3205255,0.11636857,9.861408
86098720962391,0.29073045,0.19137351,9.876265
86098740820056,0.24129921,0.2554233,9.888902
86098760677721,0.2722657,0.2647117,9.806811
86098780538724,0.3178936,0.22713345,9.880704
86098800396261,0.3451832,0.29412702,9.672878
86098820253926,0.3724862,0.29315025,9.666159
86098840111586,0.5787873,0.083346486,9.657613
86098859969250,0.6532156,0.29907072,9.717298
86098879827481,0.6125289,0.31050384,9.763053
86098899685145,0.46755928,0.24597909,9.809282
86098919542809,0.42929915,0.11560516,9.8411255
86098939400473,0.41433385,0.09714996,9.88093
86098959258137,0.3836709,0.1540512,9.844003
86098979115600,0.30384138,0.26778084,9.72403
86098998973264,0.22457103,0.25120142,9.639038
86099018830800,0.26855373,0.13582808,9.700503
86099038688464,0.3267997,0.10566913,9.64313
86099058546128,0.19793853,0.11329064,9.732399
86099078412612,0.11214889,0.12703268,9.759861
86099098270532,0.04753215,0.19249265,9.80514
86099118128324,-0.010301822,0.08471749,9.927502
86099137986244,-0.094609134,0.10819028,9.906371
86099157844036,-0.05479792,0.06465356,10.00045
86099177703328,0.07927707,-0.006722873,10.006434
86099197561248,0.21102278,0.09402082,9.616934
86099217419168,0.051871512,0.16039792,9.456441
86099237277088,0.019410947,0.17026831,9.656589
86099257134880,0.23002885,0.06747191,9.894722
86099276984419,0.3447212,0.044971988,10.029018
86099296842211,0.33228096,0.21290083,9.8700905
86099316699875,0.16476129,0.105013914,9.792339
86099336557667,0.12633024,0.0150588555,9.642005
86099356415459,0.23233208,0.17231557,9.625757
86099376265953,0.28160378,-0.040132906,9.733185
86099396123362,0.26736072,-0.040837836,9.84214
86099415980771,0.23804983,0.07992308,9.858885
86099435838308,0.11912818,0.050378814,9.762388
86099455695717,0.036160156,0.08475283,9.726546
86099475555314,0.08387242,0.119975954,9.630035
86099495412851,0.14712417,0.0807036,9.641682
86099515270388,0.10870391,-0.027620716,9.944574
86099535127925,0.13692306,-0.040188845,9.888322
86099554985462,0.2178957,-0.07352257,9.839517
86099574848411,0.279293,-0.053674933,9.720266
86099594706076,0.3698705,0.049298063,9.703133
86099614563741,0.4040065,-0.05554865,9.631104
86099634421406,0.43306464,-0.10638857,9.666321
86099654279071,0.36481333,-0.06541234,9.655559
86099674138812,0.30718735,-0.017003177,9.872191
86099693996477,0.31141162,-0.08316094,9.764074
86099713854142,0.37527674,0.07701361,9.699754
86099733711679,0.40092033,0.09784642,9.765679
86099753569344,0.38462207,-0.053273674,9.847965
86099773440259,0.41341427,-0.075453326,9.839424
86099793298308,0.4610099,-0.059950586,9.721868
86099813156229,0.38144907,0.18124637,9.780311
86099833014278,0.3259664,0.13607247,9.845577
86099852872177,0.240974,-0.031660493,9.872147
86099872729373,0.23879603,-0.017937263,9.91726
86099892587421,0.34146073,0.09745898,9.750566
86099912445469,0.3982871,0.21870571,9.762934
86099932303517,0.31985343,0.2095111,9.725136
86099952161565,0.21747315,0.25354543,9.680719
86099972028762,0.16425137,0.08573205,9.812797
86099991887066,0.17578453,0.20078953,9.755076
86100011745242,0.27748856,0.3512742,9.661628
86100031603546,0.17564155,0.26886424,9.722326
86100051461850,0.07262046,0.3274435,9.777639
86100071315796,0.099334344,0.29435268,9.798332
86100091173972,0.15863866,0.26901802,9.814994
86100111032148,0.097893156,0.2768516,9.818217
86100130890324,-0.036509674,0.19625846,9.798092
86100150748500,-0.1236651,0.14195324,9.671972
86100170601038,-0.1756613,0.19990304,9.638204
86100190459086,-0.049066395,0.13089368,9.679109
86100210317134,-0.061453756,0.059020787,9.939222
86100230175183,0.12897867,0.32404366,9.954019
86100250033232,0.2504869,0.38910672,9.8229885
86100269888199,0.2474893,0.12936284,9.663785
86100289746244,0.2648541,0.24807397,9.507768
86100309604164,0.23740363,0.21140014,9.706194
86100329462085,0.18671302,0.09173853,9.915889
86100349320004,0.17207186,0.18533535,10.021289
86100369174673,0.08554212,0.118954755,9.9027405
86100389032594,0.09945669,0.20273702,9.639555
86100408890513,0.12445858,0.31177667,9.712246
86100428748434,0.11111139,0.12565026,9.801138
86100448606355,0.07878791,0.1335771,9.755449
86100468463490,0.09685107,0.06069743,9.819543
86100488321283,0.02068134,0.0889172,9.814924
86100508179204,-0.066589855,0.25115475,9.724274
86100528037125,0.17535526,0.28347856,9.679866
86100547884950,0.13565874,-0.22896858,9.821554
86100567742615,-0.22602196,-0.013722363,9.951567
86100587600280,-0.088002875,0.0673626,9.897118
86100607457945,0.20695098,0.049146246,9.796142
86100627315610,0.21539666,0.14507715,9.70273
86100647173275,0.17910366,0.2454326,9.740796
86100667036382,0.0414379,0.18979745,9.794641
86100686894175,0.1574929,0.13493356,9.943695
86100706751968,0.26600525,0.3808944,9.90533
86100726609761,0.14948004,0.3112021,9.9680195
86100746467682,0.04876424,0.21643314,9.724775
86100766331593,-0.028010368,0.008049863,9.788513
86100786189514,0.004506672,-0.05539034,9.869378
86100806047435,0.29672164,0.13787238,9.8737
86100825905356,0.44338796,0.19551148,9.672465
86100845763387,0.16352837,0.4036508,9.305062
86100865621308,0.013771825,0.5774816,9.314744
86100885478721,-0.005530276,0.03576485,10.1617985
86100905336513,0.04757984,-0.04949346,10.273407
86100925194433,-0.32367024,0.28677955,10.119343
86100945052225,-0.07498352,0.37100872,9.694707
86100964910145,0.015833547,0.36756808,9.361543
86100984769851,-0.0093751345,0.44404796,9.57048
86101004627771,0.14468195,0.39031255,9.719516
86101024485691,0.12945591,0.24906811,9.929661
86101044343483,0.094465755,0.28349754,9.959897
86101064201403,0.07330173,0.5256219,9.947223
86101084055916,0.23089321,0.2734421,9.6804695
86101103913708,0.14596188,0.1470762,9.487016
86101123771372,0.15004018,0.17937323,9.665614
86101143629164,0.009237609,0.53282434,9.778316
86101163486956,-0.121501595,0.59455395,9.89248
86101183341597,0.028383315,0.4499346,9.943426
86101203199389,0.16755706,0.6875322,9.659105
86101223057053,0.31520453,0.51207066,9.734956
86101242914717,0.13531125,-0.3837318,9.962536
86101262772509,-0.2702234,-0.3673396,9.928728
86101282630673,0.04271729,0.38129005,9.804656
86101302488466,0.5410303,0.5272079,9.632594
86101322346131,0.402569,0.6194938,9.586091
86101342203924,0.12908983,0.5478118,9.711428
86101362061589,0.24734986,0.32401246,9.742113
86101381918180,0.3388146,0.25405315,9.820395
86101401775973,0.15448332,0.24015279,9.825063
86101421633766,-0.073034495,0.07040181,9.835286
86101441491431,-0.29256153,-0.20922442,9.970264
86101461349224,-0.27514172,-0.15558,9.750033
86101481210781,-0.002290737,-0.099957444,9.566821
86101501068564,0.12259127,0.020788526,9.624721
86101520926356,0.039289493,0.2562036,9.721304
86101540784148,0.12680614,0.290097,9.849313
86101560641940,0.26811677,0.3836497,9.917754
86101580501065,0.4843851,0.17993619,10.019992
86101600358986,0.4191959,0.064918675,9.932227
86101620216779,0.12369699,0.24043928,9.804245
86101640074700,0.056429587,0.22775276,9.745087
86101659932621,-0.027626652,0.10837775,9.59254
86101679788274,-0.079231635,0.07663991,9.463517
86101699646195,0.015329883,0.17279932,9.607838
86101719503988,0.21771638,0.28781155,9.809448
86101739361909,0.14820717,0.40644243,9.947888
86101759219702,0.079121,-0.089403115,10.093802
86101779085175,-0.13248831,-0.14431725,9.954853
86101798938041,-0.11831343,0.20282722,9.745761
86101818796089,0.19263823,0.2066044,9.606631
86101838654009,0.25006872,0.249772,9.554713
86101858512057,0.10027995,0.38199446,9.623947
86101878370059,0.08908365,0.1714357,9.853233
86101898228107,0.12177398,0.12831354,9.781625
86101918086027,0.05951987,0.20151012,9.683252
86101937944075,0.10971842,0.22068498,9.810207
86101957802123,0.18083462,0.15178971,10.006055
86101977661191,0.13529089,0.114344195,10.0491085
86101997519239,0.025054486,0.17790419,9.781989
86102017377287,0.05646584,0.11560522,9.595291
86102037235207,0.16447125,0.1472394,9.491635
86102057093255,0.22178414,0.2323578,9.604707
86102076952173,0.20651038,0.29618654,9.778705
86102096810221,0.124270186,0.33485883,9.905686
86102116668269,0.14984126,0.1941291,9.934961
86102136526317,0.04902349,0.068164244,9.881199
86102156384365,0.11785577,0.10615134,9.729854
86102176238928,0.2146839,0.12733339,9.682177
86102196096849,0.21253298,0.22326879,9.645957
86102215954767,0.061387006,0.23384784,9.662032
86102235812559,0.120473295,0.2614344,9.728793
86102255670479,0.1328111,0.2796129,9.829805
86102275526773,0.20582804,0.22924551,9.910473
86102295384693,0.17346676,0.20298539,9.870992
86102315242485,0.06344908,0.22067122,9.816922
86102335100406,-0.047865495,0.14276686,9.728866
86102354958199,-0.0066723432,0.051939543,9.734219
86102374819396,0.091233276,0.06789366,9.795865
86102394677317,0.07026438,0.13166383,9.834809
86102414535362,0.007065597,0.20703162,9.849627
86102434393282,0.021232871,0.24987262,9.813316
86102454251202,0.01498417,0.30501986,9.648471
86102474101108,0.025880137,0.17892426,9.696759
86102493958900,-0.027167989,0.20508264,9.748366
86102513816820,-0.030778527,0.18411182,9.84895
86102533674612,0.043927066,0.14553308,9.9265785
86102553532532,0.040031303,0.26328117,9.851312
86102573381600,0.028510738,0.34356093,9.781058
86102593239264,0.05575746,0.3295617,9.632974
86102613097056,0.09975031,0.23633127,9.615054
86102632954720,0.026163237,0.2262598,9.706619
86102652812384,-0.02338129,0.34550416,9.808352
86102672661685,-0.020681743,0.2639477,9.934307
86102692519221,0.035524204,0.22370574,9.818789
86102712376757,0.069559306,0.2730776,9.687422
86102732234293,0.067724705,0.20370625,9.651133
86102752091829,0.03289908,0.1620208,9.79162
86102771947024,-0.03422247,0.24773817,9.867969
86102791804432,0.019404665,0.14749315,9.920469
86102811661968,-0.005339887,0.12860234,9.835319
86102831519376,-0.10254602,0.14974236,9.834749
86102851376784,-0.08561839,0.13863023,9.762585
86102871228804,0.0032383818,0.08719154,9.823307
86102891086084,0.06422475,0.12053136,9.75611
86102910943364,0.10854703,0.20304194,9.798319
86102930800644,0.15075801,0.23991725,9.821016
86102950658052,0.116803795,0.2927568,9.757701
86102970518465,0.142303,0.28064892,9.770445
86102990375745,0.24101552,0.3159454,9.706768
86103010233025,0.29691622,0.3015503,9.678656
86103030090305,0.26348162,0.2624319,9.776884
86103049947585,0.22437544,0.35180706,9.86777
86103069806966,0.28937072,0.36535096,9.9225645
86103089664374,0.323686,0.2840699,9.80299
86103109521654,0.29308635,0.08751891,9.813741
86103129379062,0.25258812,-0.032917388,9.786061
86103149236342,0.11563285,0.04105765,9.52625
86103169093605,-0.07395546,0.11293371,9.584323
86103188950885,0.024075398,0.17748773,9.684794
86103208808165,0.40566447,0.27500632,9.7967415
86103228665445,0.43413326,0.31384957,9.918299
86103248522725,0.13890702,0.4831849,9.905084
86103268384802,0.064799875,0.39446464,9.89001
86103288242082,0.1160609,0.11796086,9.836951
86103308099362,0.12810685,-0.054401077,9.650456
86103327956642,0.07566628,-0.03460207,9.705855
86103347813922,0.10691898,0.005105497,9.856918
86103367673985,0.21320142,0.084850915,9.82583
86103387530435,0.17060299,0.17363079,9.878436
86103407387844,0.10543167,0.1801917,9.7353945
86103427245253,0.06779099,0.2087231,9.730555
86103447102662,0.1537647,0.15538879,9.728838
86103466961635,0.17380168,0.0736389,9.810477
86103486819044,0.074997954,0.0851448,9.844351
86103506676453,0.053312577,0.122247875,9.790849
86103526533862,0.07275629,0.103344396,9.701243
86103546391271,0.06562794,0.1065398,9.639233
86103566247910,0.06722636,0.14888129,9.763796
86103586105447,0.1165339,0.21156873,9.86126
86103605962856,0.124910004,0.21404426,9.939886
86103625820265,0.075726196,0.1658525,9.8226185
86103645677802,0.038723834,0.15550108,9.741235
86103665543037,0.09903008,0.13097121,9.640815
86103685400702,0.12390397,0.09390993,9.785899
86103705258367,0.15038125,0.18076244,9.760135
86103725115904,0.120484136,0.25120243,9.840186
86103744973569,0.06758101,0.2129261,9.749851
86103764843754,0.0704398,0.1660705,9.77495
86103784701675,0.19129838,0.091803834,9.708019
86103804559596,0.21047536,0.12328051,9.643702
86103824417517,0.16198522,0.14271414,9.769143
86103844275418,0.2494776,0.19658817,9.910399
86103864130699,0.25587854,0.18025905,9.891771
86103883988619,0.15084113,0.1343318,9.813406
86103903846539,0.20458339,0.06496257,9.699954
86103923704459,0.32548237,0.07475109,9.682071
86103943562379,0.32127127,-0.010288624,9.659282
86103963429337,0.121255495,0.036082298,9.669517
86103983287513,0.053765595,0.06879664,9.765996
86104003145689,0.23004492,0.09221322,9.866148
86104023003865,0.25378767,0.15846485,9.930559
86104042862041,0.20392247,0.106785186,9.966129
86104062720904,0.22157095,0.04919797,9.86047
86104082579208,0.15488054,0.056762304,9.642272
86104102437384,0.055639844,0.11004211,9.547986
86104122295560,0.028171035,0.19936803,9.642192
86104142153864,0.14544852,0.22145021,9.770289
86104162012271,0.24859528,0.14347725,9.890849
86104181870447,0.185658,0.15511073,9.908095
86104201728751,0.11598794,0.17461959,9.842914
86104221586927,0.08278631,0.14902933,9.791657
86104241445104,0.09514005,0.10299854,9.697731
86104261303281,0.12297697,0.055531,9.749326
86104281164842,0.24664223,0.021376928,9.832371
86104301023146,0.23689674,0.1377203,9.844512
86104320881322,0.17637153,0.20476,9.756539
86104340739498,0.21737342,0.14200129,9.655508
86104360597802,0.32548195,0.03343049,9.584719
86104380452552,0.27303088,0.06880888,9.711954
86104400310729,0.23317884,0.20918202,9.83079
86104420168906,0.15306176,0.16707431,9.90637
86104440027083,0.13019124,0.051410764,9.902538
86104459885260,0.16953385,0.08908616,9.81041
86104479738163,0.12380279,0.20284502,9.646506
86104499596206,0.15475646,0.082091056,9.744051
86104519454126,0.2444668,0.070707254,9.73488
86104539312174,0.22666171,0.10471036,9.826844
86104559170222,0.16268128,0.11649997,9.773343
86104579021016,0.07859352,0.24001971,9.710313
86104598878936,0.21888335,0.08983671,9.456293
86104618736856,0.13666874,0.0058571263,9.757519
86104638594904,0.22461297,0.065291435,9.965017
86104658452824,0.30061227,-0.071501955,10.150511
86104678305550,0.14546159,0.08217872,9.947946
86104698163342,0.083888344,0.19542553,9.7667885
86104718021262,0.19625396,1.6073145E-4,9.70136
86104737879054,0.23484,-0.19900237,9.720539
86104757736846,0.26077443,-0.011948206,9.654436
86104777592875,0.2622829,0.13700014,9.702768
86104797450667,0.23022856,-0.0975935,9.878656
86104817308459,0.24320291,-0.042064894,9.909551
86104837166251,0.16981363,0.0712983,9.795067
86104857024043,0.1352193,-0.09836995,9.804835
86104876875063,0.19619879,-0.1705768,9.741543
86104896732727,0.21977548,-0.0840008,9.673051
86104916590391,0.17313747,-0.03816255,9.688231
86104936448055,0.16891953,-0.10400608,9.768267
86104956305847,0.19371663,-0.18829958,9.833621
86104976158312,0.12089336,-0.15948097,9.889267
86104996015976,0.13928097,-0.13823432,9.83352
86105015873512,0.14862953,-0.09025823,9.724341
86105035731048,0.1386136,-0.15848912,9.7351465
86105055588584,0.21746604,-0.20741579,9.725459
86105075438941,0.19512701,-0.18078837,9.773742
86105095296350,0.18460351,-0.19239932,9.78668
86105115153631,0.22114104,-0.15481682,9.794266
86105135011040,0.18046202,-0.106054336,9.807598
86105154868444,0.14723693,-0.12616143,9.636267
86105174722774,0.112141296,-0.18807991,9.694627
86105194580054,0.16178875,-0.18051992,9.833692
86105214437206,0.22941485,-0.18949485,9.914782
86105234294486,0.21545209,-0.15899433,9.929202
86105254151638,0.20277831,-0.14362966,9.825633
86105273992217,0.21473315,-0.089660175,9.742568
86105293849113,0.12740523,-0.17041124,9.6784725
86105313705881,0.08702137,-0.2150008,9.739118
86105333562777,0.18715575,-0.11139607,9.78268
86105353419673,0.19949843,-0.17189917,9.886374
86105373277604,0.23321366,-0.15954243,9.784455
86105393134500,0.23100689,-0.118041225,9.778595
86105412991397,0.26094663,-0.130054,9.643609
86105432848292,0.089771554,-0.2165033,9.695519
86105452712714,0.16256726,-0.19159123,9.74985
86105472569611,0.19517724,-0.061369132,9.8167095
86105492426506,0.17371348,-0.029782843,9.890014
86105512283402,0.17848788,-0.1481397,9.88698
86105532140427,0.14102887,-0.20505984,9.925861
86105551997322,0.15436925,-0.22739482,9.734583
86105571857375,0.12444144,-0.17121816,9.64347
86105591714272,0.1966211,-0.09529617,9.66038
86105611571295,0.16327995,-0.15761197,9.794617
86105631428319,0.12176037,-0.1717753,9.889748
86105651285216,0.122069605,-0.11986112,9.880428
86105671147373,0.121728994,-0.15592231,9.865419
86105691004395,0.1021926,-0.18064025,9.805459
86105710861548,0.087499574,-0.18941113,9.609579
86105730718571,0.16027246,-0.1434613,9.596694
86105750565648,0.15083225,-0.17980574,9.732923
86105770422545,0.16111608,-0.114968844,9.871289
86105790279440,0.016898867,-0.18099284,10.001237
86105810131636,0.09081792,-0.16791977,9.941011
86105829988533,0.18541503,-0.12559082,9.808599
86105849845428,0.09616128,-0.19084793,9.734285
86105869714726,0.087654494,-0.21363302,9.65091
86105889572007,0.11430472,-0.13704503,9.665788
86105909429158,0.096248746,-0.16563402,9.7852955
86105929286310,0.14834136,-0.20972985,9.94893
86105949143591,0.099402346,-0.24233332,9.885784
86105969009556,0.06321365,-0.20290919,9.781452
86105988866836,0.09158515,-0.18499625,9.646683
86106008724245,0.078623824,-0.28188062,9.671027
86106028581652,0.038603652,-0.32267094,9.79852
86106048442912,0.02278337,-0.25263008,9.949823
86106068300449,0.11901724,-0.16336848,9.875907
86106088157984,0.06760756,-0.13279858,9.860327
86106108015520,0.051734097,-0.19799304,9.684075
86106127872929,0.08675808,-0.28828385,9.740443
86106147730464,0.1448258,-0.22571976,9.657733
86106167594813,0.11472485,-0.19439703,9.672869
86106187452478,0.08956482,-0.12617078,9.691289
86106207310141,0.040451456,-0.20188966,9.803978
86106227167677,0.045316502,-0.2777753,9.7523775
86106247025342,0.004565245,-0.2805144,9.800942
86106266891849,0.0732746,-0.25448352,9.765917
86106286749641,0.025928706,-0.26435816,9.830735
86106306607434,0.15258063,-0.26603332,9.754092
86106326465225,0.13888057,-0.17517942,9.818914
86106346330965,0.055977706,-0.17884456,9.839293
86106366189014,-0.05086241,-0.27719572,9.754188
86106386047061,0.006478003,-0.2380333,9.719638
86106405905109,0.1256974,-0.11667922,9.6609955
86106425763158,0.121617,-0.1799488,9.76036
86106445621205,0.06940287,-0.326923,9.818376
86106465473907,0.049976997,-0.31363806,9.817417
86106485331828,0.02670631,-0.1717077,9.951939
86106505189875,0.1232216,-0.16776367,9.820649
86106525047795,0.21938056,-0.1554942,9.688157
86106544905716,0.16494513,-0.054662876,9.652881
86106564758198,0.063710436,-0.11929623,9.679218
86106584616119,0.09029119,-0.17069575,9.745472
86106604474040,0.07293014,-0.12511359,9.76122
86106624331958,0.19573033,-0.059397887,9.796353
86106644189878,0.18486835,-0.0788021,9.834775
86106664047799,0.073842004,-0.16613819,9.796886
86106683900785,0.15607464,-0.16200486,9.785022
86106703758577,0.20429216,-0.14301547,9.788463
86106723616498,0.23316427,-0.14168382,9.77064
86106743474289,0.20004064,-0.102446355,9.76857
86106763332629,0.11735514,-0.09219612,9.706087
86106783190422,0.19552371,-0.041605547,9.666401
86106803048341,0.2050056,-0.088152625,9.65291
86106822906261,0.18610068,-0.1341545,9.771615
86106842764182,0.15396266,-0.15389399,9.990416
86106862613190,0.1550029,-0.12862976,10.053241
86106882470854,0.15798813,-0.075036936,9.961535
86106902328391,0.23074643,-0.02150449,9.6879225
86106922186054,0.21750739,-0.06704483,9.597008
86106942043590,0.20073448,-0.16095194,9.653502
86106961901255,0.22056106,-0.09907,9.624377
86106981761399,0.25653595,-0.01291779,9.777167
86107001618935,0.21099442,0.049349945,9.895241
86107021476600,0.13912639,-0.094608925,9.997545
86107041334135,0.093551114,-0.17418157,9.8745575
86107061193453,0.18745579,-0.12203304,9.72095
86107081051246,0.23601139,-0.03521907,9.656148
86107100908909,0.17555548,-0.060040366,9.664271
86107120766701,0.13365501,-0.06276373,9.749608
86107140624366,0.11524623,-0.09393616,9.866462
86107160484273,0.15821564,-0.091212496,9.883079
86107180342065,0.16036329,-0.10389565,9.830238
86107200199730,0.18796632,-0.07907829,9.832377
86107220057523,0.21563844,-0.01675113,9.757773
86107239915313,0.17834556,-0.046519395,9.804033
86107259773106,0.21624848,-0.034915384,9.7622
86107279633646,0.21600716,0.069003806,9.783296
86107299491438,0.17120527,-0.004975902,9.82929
86107319349359,0.23547848,-0.043677792,9.775806
86107339207150,0.10552397,0.21380833,9.7314825
86107359052009,0.06674638,0.17545687,9.710819
86107378909418,0.13809457,0.16114658,9.788642
86107398766827,0.18460886,0.14009896,9.855341
86107418624236,0.18618558,0.1849346,9.90408
86107438481773,0.15766664,0.2003025,9.885217
86107458339182,0.1336724,0.15736924,9.716231
86107478206763,0.20357694,0.049250387,9.666904
86107498064428,0.13340569,0.15337494,9.655301
86107517922093,0.15501703,0.09994359,9.721408
86107537779630,0.1770033,0.16445321,9.84107
86107557637295,0.152132,0.1368178,9.918492
86107577494308,0.12937427,0.084572926,9.848303
86107597351845,0.14804219,0.051273048,9.75099
86107617209510,0.14653693,0.067732945,9.679404
86107637067175,0.12367864,0.0664238,9.7436075
86107656922798,0.17351191,0.059069585,9.8033695
86107676780463,0.17066826,0.11516688,9.751504
86107696638000,0.1746858,0.08983869,9.843994
86107716495537,0.23156075,0.089399375,9.771943
86107736353074,0.18805589,0.030735152,9.77259
86107756210611,0.24586415,-0.03287559,9.744969
86107776075426,0.19895066,0.056546617,9.733663
86107795933091,0.22023067,0.050344445,9.768809
86107815790861,0.19770281,0.046192206,9.715257
86107835649366,0.22734658,0.055187434,9.720482
86107855507159,0.2522714,-0.034509435,9.743216
86107875373215,0.30831808,-0.05273656,9.697402
86107895231135,0.207162,-0.05625589,9.774267
86107915089184,0.21883991,0.06437053,9.765785
86107934947103,0.1838482,-0.0026247853,9.882742
86107954810679,0.21490319,-0.043909542,9.842928
86107974668856,0.17972039,0.042514037,9.812815
86107994527031,0.16441412,0.034231983,9.785301
86108014385207,0.17688918,-0.04751568,9.692203
86108034243384,0.22691426,0.036434017,9.687353
86108054101559,0.22463965,0.14343807,9.687168
86108073957791,0.11781886,0.18998903,9.807137
86108093815968,0.12258487,0.057889402,9.893452
86108113674143,0.21521465,-0.0048326696,9.920803
86108133532319,0.13721927,0.10953196,9.83283
86108153390368,0.14031066,0.060983684,9.714587
86108173242591,0.19502744,0.06365545,9.640561
86108193100511,0.19136441,0.11972034,9.682022
86108212958560,0.13966204,0.16805507,9.773963
86108232816607,0.17332631,0.13314798,9.8495865
86108252674527,0.23824249,0.05027279,9.83077
86108272532576,0.19483525,0.14119151,9.757167
86108292389400,0.20327924,0.105420925,9.811043
86108312247320,0.18019968,0.05505424,9.838162
86108332105241,0.1886054,0.05992655,9.781357
86108351963288,0.12346053,0.11905965,9.828163
86108371822640,0.20139751,0.038381677,9.7590685
86108391680561,0.20791444,0.013294577,9.729071
86108411538480,0.22064108,0.097294204,9.661124
86108431396528,0.12380768,0.17647658,9.693534
86108451254449,0.15078759,0.11646189,9.799003
86108471106291,0.15151758,0.111063704,9.884261
86108490964211,0.14040314,0.12780471,9.982842
86108510822004,0.15817104,0.08633439,9.969475
86108530679795,0.14303385,0.017842751,9.763572
86108550537715,0.09909146,0.03795113,9.66523
86108570395508,0.11150422,0.14146695,9.639095
86108590230436,0.09636523,0.1918929,9.668886
86108610087972,0.13805279,0.12357088,9.692815
86108629945381,0.07662376,0.15437119,9.76101
86108649802788,0.07724158,0.21823512,9.897168
86108669655485,0.04217004,0.11753391,9.7720995
86108689512766,0.13121983,0.08128283,9.567658
86108709370045,0.21760243,0.0747286,9.489587
86108729227325,0.26972803,0.108017616,9.463041
86108749084606,0.23363566,0.03935093,9.602466
86108768948878,0.2952564,0.0895968,9.678916
86108788806286,0.28502595,0.18904044,9.763943
86108808663695,0.24819407,0.14880764,9.628494
86108828521102,0.15776561,0.14598164,9.502929
86108848378510,0.20180377,0.08834809,9.451122
86108868235919,0.24646546,0.09486975,9.551567
86108888090175,0.17768839,0.07158568,9.659276
86108907947455,0.1509152,0.02942401,9.716508
86108927804736,0.1681003,0.041979715,9.7755165
86108947662143,0.22572376,0.08203088,9.786219
86108967516986,0.21690857,0.11261065,9.683372
86108987374139,0.18089071,0.008706359,9.633264
86109007231418,0.21165656,-0.07512645,9.610671
86109027088570,0.1865357,0.06800847,9.5495405
86109046945723,0.12703547,0.06864383,9.491281
86109066806377,0.09555402,0.10603292,9.491525
86109086663657,0.11596799,0.0026900354,9.612435
86109106520938,0.17513672,-0.0144143365,9.681754
86109126378217,0.17787926,0.063069165,9.680275
86109146235497,0.16025274,0.07217549,9.739882
86109166092778,0.1464226,0.064017944,9.74886
86109185946455,0.1745192,-0.08879235,9.68652
86109205803607,0.14113478,0.009403879,9.58785
86109225660760,0.09125539,0.13038677,9.507855
86109245517911,0.11343989,0.04613522,9.544886
86109265382769,0.12711298,0.022293665,9.541021
86109285240050,0.16203557,0.033893928,9.655431
86109305097843,0.13206081,0.12620088,9.65093
86109324955124,0.1715879,0.20114838,9.648131
86109344812405,0.11020726,0.13308622,9.620972
86109364669686,0.15152688,0.041591775,9.609246
86109384529579,0.12954085,0.05590597,9.655378
86109404386988,0.12629674,0.034904312,9.651768
86109424244269,0.22423723,0.18516535,9.596863
86109444101550,0.23856887,0.18568283,9.62865
86109463958959,0.25018954,0.18193543,9.628884
86109483825114,0.2519355,0.13428892,9.515185
86109503682651,0.23312818,0.11509128,9.553211
86109523540188,0.16343884,0.1469135,9.576896
86109543397725,0.1322985,0.14678651,9.650128
86109563257794,0.15247037,0.10498362,9.670226
86109583115459,0.04409504,0.13494067,9.648945
86109602973124,0.04943478,0.06459987,9.654541
86109622830661,0.10540951,0.08849209,9.562145
86109642688326,0.1415876,0.08025662,9.618872
86109662545991,0.07422923,0.11486435,9.571804
86109682408698,0.09515816,0.10664894,9.553119
86109702266491,0.14063494,0.07145601,9.55015
86109722124156,0.09006,0.118824296,9.413739
86109741981949,0.035920177,0.12802355,9.454964
86109761839742,0.026891634,0.05303617,9.60859
86109781697943,-0.0035318234,-0.18726021,9.764737
86109801555736,0.07257223,-0.44165218,9.781023
86109821413529,0.17951138,-0.18995522,9.577685
86109841271319,0.2046474,0.14710222,9.613863
86109861131738,0.043734632,-0.0035351044,9.706091
86109880989659,0.026489934,-0.36804417,9.539505
86109900847450,0.21242876,-0.4475358,9.480917
86109920705370,0.23839474,0.01868261,9.536704
86109940563291,0.23870626,0.3555849,9.474593
86109960421210,0.26883185,0.5955498,9.677557
86109980281830,0.5476129,0.50706744,9.689804
86110000139879,0.7597735,-0.23555402,9.59222
86110019997926,0.893408,-0.34240484,9.528989
86110039855974,0.61067826,-0.3141261,9.697063
86110059714022,0.014530705,-0.5023255,9.727747
86110079570924,-0.22054322,-0.76906896,9.553655
86110099429100,0.13108553,-0.2344252,9.623296
86110119287148,0.552305,-0.48066574,9.628467
86110139145196,0.94401735,-0.7556919,9.54087
86110159003372,1.1474674,-0.19577105,9.229642
86110178851686,0.9438599,-0.049211346,9.37338
86110198709478,0.828874,0.060253438,9.105403
86110218567142,0.761112,-0.0934022,9.12655
86110238424934,0.40190637,-0.124761865,9.139533
86110258282599,-0.051846642,-0.40545174,9.161986
86110278142432,0.04887583,-1.41892,9.558793
86110298000096,0.10451261,-2.0871594,10.070907
86110317857888,0.36415586,-2.217502,10.415892
86110337715680,1.0657344,-2.0918894,10.707299
86110357573344,1.8074993,-2.0519311,10.918827
86110377432233,2.3094704,-1.7243489,10.723221
86110397290025,-1.7307296,2.8985116,10.726215
86110417147818,-1.7515303,2.695396,11.506221
86110437005739,-2.7307587,2.2630157,11.419331
86110456863532,-2.635394,2.4203675,11.612766
86110476721325,-1.5693393,3.5634117,11.35854
86110496578094,-1.139908,4.008683,11.192034
86110516435887,-3.1496267,3.8491452,12.271121
86110536293680,-4.2866635,4.6340656,12.618983
86110556151473,-4.051376,5.8425508,10.423747
86110576009266,-3.1514137,5.129882,7.888834
86110595853191,-3.2223902,3.014263,6.3310604
86110615710728,-3.845342,2.7238345,9.440559
86110635568265,-2.756922,1.3253782,14.239448
86110655425802,-6.138674,3.4602659,13.057639
86110675283339,-4.738993,3.474864,10.651152
86110695138970,-3.883119,3.527486,9.217426
86110714996379,-6.350709,1.4719731,8.204437
86110734853788,-4.2578073,-0.8024028,6.982851
86110754711325,-2.3046584,-0.8137459,7.4164987
86110774568734,-2.2382329,0.8851016,6.7203517
86110794425691,-1.8886595,1.8282747,6.745924
86110814283100,-0.96007514,2.8711767,6.356403
86110834140381,-1.251993,3.00533,5.193529
86110853997769,0.03806512,1.9679142,6.167506
86110873855177,-1.9693133,2.015588,5.634696
86110893710337,-2.7902772,1.9048826,4.524279
86110913567745,-2.692414,0.066259906,4.0358734
86110933425025,-1.0043058,-2.2742712,5.135223
86110953282433,1.2516847,-3.0404918,8.020661
86110973139713,1.9566488,-1.8265787,12.472458
86110993000347,0.438873,2.4368804,18.349579
86111012857755,0.121678546,-1.7432033,18.4241
86111032715163,4.963975,-9.179148,7.183514
86111052572571,3.4696481,-2.5404727,-0.33223638
86111072429851,1.9190873,1.3561208,5.3620286
86111092282432,-6.533918,13.627,17.898752
86111112139712,-1.2251747,10.19974,27.720383
86111131996992,-0.08576358,2.249123,8.636647
86111151854400,-0.71290827,2.015666,0.061524406
86111171711680,-0.20161146,1.8117687,6.1535277
86111191564773,-4.5228477,7.582181,11.371981
86111211421925,-3.1391234,12.0482855,12.190889
86111231279206,2.4221706,7.368667,12.4304285
86111251136357,3.8142223,1.1993676,13.17926
86111270993637,1.2015338,3.3699932,9.030806
86111290854861,1.1440836,0.10237893,8.299439
86111310712141,0.861635,-0.4803357,9.079386
86111330569421,1.362222,0.19904709,7.7022424
86111350426702,1.2133315,0.86682457,7.779524
86111370283983,1.4566365,2.5507007,7.8104687
86111390145042,0.61264426,3.2073097,7.5744963
86111410002451,0.6436532,1.1348168,8.507764
86111429859732,0.39292172,0.43893206,8.83562
86111449717141,0.67958575,0.6395316,8.894465
86111469574550,1.962675,0.08799777,8.97724
86111489438137,2.0786333,1.4394603,9.189798
86111509295546,1.0390127,2.4297836,9.597005
86111529153083,1.2566168,2.596644,10.908469
86111549010492,1.7242519,1.7418569,11.835472
86111568867901,3.1079545,0.43022797,11.02986
86111588718982,3.584396,0.77746135,10.115366
86111608576263,1.1484092,1.7713851,10.648599
86111628433672,-0.18143874,2.3676128,14.815673
86111648290953,0.49121708,4.8094296,15.187297
86111668148234,-1.2353371,7.9921484,11.920811
86111688005605,-0.54774046,9.927219,11.347948
86111707863014,2.5321288,6.6784368,12.9786625
86111727720295,5.2462525,3.85782,14.239802
86111747577576,3.888028,2.2991893,14.174777
86111767434857,2.216308,2.4873934,11.598893
86111787302258,-0.06867949,3.414666,8.95146
86111807159774,-2.8816392,5.871582,7.932601
86111827017310,-6.1842575,4.544764,6.1306434
86111846874718,-3.8165288,3.4994287,6.279769
86111866728301,-2.9481757,0.48485634,6.2552066
86111886592138,-2.9878695,-2.048926,6.7964253
86111906449802,-2.380869,-2.7061987,6.718488
86111926307466,-0.47533178,-3.2334845,6.731988
86111946165130,-1.1559635,-3.5642467,5.764905
86111966022922,-0.47875452,-3.3630793,6.728391
86111985881083,0.019855924,-2.9505541,8.282585
86112005738747,1.0557047,-2.1991382,9.851541
86112025596539,2.6310027,-0.631326,10.317017
86112045454203,3.540929,0.4682895,11.0612955
86112065311995,4.3734884,3.064245,13.252275
86112085176352,2.368024,10.831651,14.526745
86112105034272,-7.2260237,11.002348,8.52728
86112124892192,-7.3602304,5.162968,5.653382
86112144750112,-1.2276593,3.9871304,6.677573
86112164608032,-3.605211,0.48926416,9.779643
86112184455645,-6.9089947,-7.896099,15.163714
86112204313309,0.7890974,-12.214923,19.592678
86112224171102,15.046547,1.2295558,12.257626
86112244028767,-0.45418298,-2.4454308,0.5145022
86112263886429,-3.1547801,-5.2848296,3.7780344
86112283746830,-2.3103778,-6.5272784,9.439044
86112303604622,-6.884763,-11.408695,10.322392
86112323462286,-8.458794,-7.370394,10.442799
86112343320078,2.8118188,5.8802643,16.700869
86112363177870,1.3558698,3.891194,12.89816
86112383036525,-2.1607125,-1.9383461,6.504563
86112402894317,1.8866696,2.4637682,8.261889
86112422752110,0.7463506,1.5175687,8.591652
86112442609903,0.40873578,0.07653062,7.863241
86112462467696,0.37645185,0.4894437,7.9421263
86112482318101,0.7903879,-0.09752018,8.800387
86112502175766,0.18137835,-2.0952168,8.704991
86112522033303,0.5914924,-1.6775532,8.86371
86112541890968,-0.4794025,-1.5570773,9.012003
86112561748633,-0.8487894,-0.109007135,9.263239
86112581605528,0.15747455,3.1755068,10.146323
86112601463193,0.07377144,2.665203,9.996749
86112621320858,-2.0931666,-2.2124548,9.625254
86112641178523,-2.4733632,-1.6588695,11.054203
86112661036188,-2.2808082,0.80942386,11.590131
86112680885331,-1.4247686,1.8673787,11.991394
86112700742868,-1.744877,1.9231107,12.285344
86112720600277,-3.0427694,0.4370057,12.674667
86112740457686,-3.6827538,-0.9313778,12.917446
86112760315223,-2.9288936,-0.8675597,13.278469
86112780173680,-1.6607224,-2.29952,12.037796
86112800031089,0.11627558,-4.957777,10.017799
86112819888498,1.5680407,-3.84487,9.562421
86112839745886,1.8914574,-2.66179,11.066453
86112859603294,3.3136697,-1.1419965,12.499135
86112879459739,3.0209737,-0.4049625,12.692276
86112899317019,0.63343704,-1.12879,11.296017
86112919174427,0.8340249,-2.2035165,9.671733
86112939031835,0.72925645,-2.9664392,9.002984
86112958889243,-0.6367123,-2.36564,8.144821
86112978745676,-1.2525839,-1.4407502,7.63833
86112998603084,-0.11242354,-2.2764003,6.60211
86113018460492,1.0079119,-1.2339531,7.3445625
86113038317772,0.5795666,-0.31530353,6.9179626
86113058175180,1.2277309,-0.75216347,5.136441
86113078032003,2.2791064,-1.2787195,4.5363274
86113097889411,2.2198756,-1.3322493,5.1858788
86113117746819,2.204604,-1.2393016,6.638421
86113137604227,1.5652325,-0.6281733,7.9952006
86113157461507,0.908694,-0.42746666,8.59599
86113177315654,1.4105074,-0.44825765,9.738363
86113197172934,1.9046371,0.43399882,11.136781
86113217030214,1.0037793,2.212998,11.0501175
86113236887366,-1.0900842,3.3528552,10.470124
86113256744646,-1.8288271,0.8395067,9.921191
86113276603712,-1.5949686,-1.5318605,10.027968
86113296460864,-0.43559062,-0.6294807,10.460692
86113316318144,-0.11727013,1.3019553,10.697358
86113336175296,-0.34999225,2.5473845,11.910696
86113356032576,-1.1397818,3.513569,12.371002
86113375874519,-1.0872467,1.0550678,13.396316
86113395731544,1.7555779,-4.808659,13.853567
86113415588569,2.9903648,-4.931129,12.122766
86113435445466,2.9165833,-2.5207055,9.44077
86113455302491,1.7076409,-1.3637601,6.983874
86113475159516,1.0927517,-1.6084753,6.770942
86113495006177,1.6765596,-0.94434714,8.974799
86113514862945,1.0231088,-1.7384722,11.241897
86113534719713,0.58395404,-2.3742144,12.034976
86113554576481,0.09243272,-1.3876426,10.864577
86113574433249,0.18266197,-1.2670623,10.067997
86113594285389,0.73368996,-0.5081684,10.0574
86113614142029,1.2923048,-0.43801606,9.596898
86113633998669,1.7638305,-1.524835,9.019543
86113653855309,1.4739914,-1.703996,9.085401
86113673711949,1.1217748,-1.0574001,9.717288
86113693576037,0.74970454,-0.65186685,10.236428
86113713432805,0.8659702,-0.48114225,10.196007
86113733289573,0.92826974,-0.18551353,9.68365
86113753146341,0.8682006,0.32099712,9.649508
86113773003237,0.6726286,0.3037777,10.157912
86113792868681,0.66146666,-0.27118796,10.699538
86113812725705,0.6290462,-0.9124507,10.623461
86113832582601,0.33547106,-0.55393493,9.962445
86113852439497,-0.07394805,0.2670835,9.719932
86113872295577,-0.3425103,0.6762417,9.809989
86113892163450,-0.396334,0.2004995,9.803604
86113912020474,0.08130382,-0.945453,9.958625
86113931877627,0.47053468,-1.4885854,10.303658
86113951734780,0.6827317,-1.5163221,10.076243
86113971591933,0.47421545,-0.5384432,9.792025
86113991457134,-0.00984036,-0.0859225,9.600569
86114011314414,-0.26845235,-0.5653704,9.683264
86114031171822,-0.053715426,-1.1548058,10.078325
86114051029102,0.504402,-1.1964804,10.26165
86114070886382,1.0193174,-0.66627705,9.980457
86114090739243,0.9085761,0.39950094,9.778381
86114110596395,0.486446,0.9375204,9.871283
86114130453675,0.39227623,0.38067338,10.013862
86114150310827,0.60253227,-0.27267238,10.075994
86114170168107,0.8369942,-0.45171365,9.95647
86114190032226,0.8686821,-0.087240785,9.805455
86114209889506,0.7448117,0.09055509,9.406845
86114229746914,0.5320342,-0.056409325,9.405907
86114249604194,0.67121524,-0.13695481,9.738723
86114269461602,0.5982625,-0.54860616,10.167076
86114289336589,0.53085697,-0.33381742,10.359977
86114309194253,0.4456073,0.021005107,10.254411
86114329051917,0.4950744,0.47227305,10.105495
86114348909581,0.7877116,0.44238222,9.962206
86114368767246,0.9486061,0.48982024,9.882244
86114388634197,0.769013,0.3746165,9.894998
86114408492118,0.5462709,-0.06466204,10.020344
86114428350036,0.46452424,-0.16631916,10.031126
86114448208084,0.5550654,-0.027750857,10.012273
86114468066004,0.61383885,0.10582044,9.902376
86114487924344,0.6118241,0.121453516,9.810176
86114507782265,0.57835674,0.07044106,9.861714
86114527640314,0.5149265,0.042218328,9.929486
86114547498363,0.4433056,0.11954248,9.878489
86114567356284,0.31190586,0.21217069,9.929586
86114587211779,0.15663315,0.19600958,9.998184
86114607069700,0.13803065,0.120193325,10.050852
86114626927749,0.17957227,0.09454814,10.058231
86114646785798,0.46650827,0.077012084,9.95452
86114666643847,0.55632824,0.35826567,9.778815
86114686499762,0.37961394,0.3715591,9.699704
86114706357811,0.35063365,0.08197182,9.831207
86114726215860,0.5197476,0.022101743,9.967687
86114746073909,0.530923,0.065816455,10.044255
86114765931958,0.3885245,0.0646838,9.963576
86114785787741,0.23218228,0.053258296,9.860363
86114805645917,0.18993212,-0.017435936,9.879752
86114825503965,0.14733525,-0.11756423,9.814687
86114845362013,0.15813401,-0.061045714,9.717655
86114865220061,0.2109087,-0.11296842,9.830786
86114885074464,0.24064258,-0.21540038,9.864722
86114904932512,0.2888087,-0.11706883,9.888737
86114924790688,0.40002063,-0.04988632,9.860604
86114944648864,0.4344162,-0.0713741,9.682589
86114964506912,0.3876863,-0.08242071,9.611056
86114984355917,0.359301,-0.17214383,9.712787
86115004213709,0.4282106,-0.20511948,9.6638975
86115024071629,0.44801703,-0.077673614,9.6662655
86115043929421,0.34910807,-0.0035579803,9.930234
86115063787213,0.28313857,-0.035611153,10.013245
86115083637535,0.2942668,-0.015422529,9.795359
86115103495071,0.2565184,0.008920719,9.800299
86115123352735,0.24959087,0.009744624,9.816114
86115143210271,0.30163145,0.068871364,9.705163
86115163067807,0.32919434,0.079904296,9.627917
86115182920357,0.3278468,0.06318498,9.591997
86115202777765,0.28372335,0.029903466,9.794789
86115222635174,0.17485574,-0.026083471,10.069551
86115242492583,0.19542345,0.024494646,10.015504
86115262349989,0.24108359,0.15739201,9.67786
86115282203703,0.15779988,0.118671566,9.609524
86115302060983,0.14460003,0.011996428,9.727277
86115321918263,0.22787565,0.0038655302,9.623556
86115341775543,0.25615233,0.09596421,9.679331
86115361632824,0.19422176,0.17062236,9.883226
86115381491803,0.19630408,0.06213075,9.940519
86115401349084,0.21104322,0.010903476,10.019287
86115421206365,0.30315503,0.06260345,9.831407
86115441063646,0.36170286,0.11784139,9.667763
86115460920927,0.2776029,0.13975775,9.596383
86115480782426,0.2951369,0.0069095255,9.563143
86115500639707,0.31709838,-0.025636697,9.748106
86115520497116,0.3372716,0.004687351,9.855154
86115540354525,0.29593837,0.016738672,9.834023
86115560211934,0.2513028,-0.00956522,9.929406
86115580068355,0.14028145,0.05284826,9.87542
86115599925636,0.087743,-0.019352596,9.789065
86115619783045,0.19357128,-0.04755485,9.669942
86115639640454,0.21887699,0.054002892,9.641174
86115659497735,0.17121515,0.05890604,9.665807
86115679354272,0.25690016,-0.030858662,9.6505995
86115699211425,0.28025624,0.021500796,9.751502
86115719068706,0.21596591,0.008997615,9.89646
86115738925987,0.20967448,-0.0041955933,9.862695
86115758783140,0.22175068,0.062011484,9.817925
86115778643827,0.19944446,0.07442736,9.792088
86115798501108,0.17846616,0.10153865,9.733758
86115818358367,0.2125613,0.16161937,9.740964
86115838215647,0.26327547,0.07353479,9.739224
86115858072927,0.2711567,0.07724013,9.78976
86115877935752,0.22296314,0.09014733,9.920399
86115897793288,0.1926651,0.073166706,9.858006
86115917650824,0.2309116,0.08915121,9.744286
86115937508360,0.29783383,0.19403547,9.769988
86115957365896,0.34287035,0.14862409,9.733205
86115977225815,0.4366658,0.07658124,9.736029
86115997083351,0.44630077,0.059194274,9.792025
86116016941015,0.45662612,-0.028733274,9.870593
86116036798679,0.5163729,-0.023595262,9.951096
86116056656343,0.5195523,-0.039783753,9.806527
86116076513806,0.48768857,-0.030445542,9.538637
86116096371470,0.44914007,0.028136991,9.657259
86116116229134,0.37039408,0.013049144,10.022596
86116136086798,0.28027675,-0.10624525,9.697449
86116155944462,0.30585837,-0.11567082,9.558149
86116175803467,0.27681774,0.07518653,9.773306
86116195661131,0.23154601,-0.017439155,9.906636
86116215518795,0.20237835,-0.0071027675,9.967183
86116235376588,0.24983159,0.018282646,9.843565
86116255234251,0.1248485,0.1154983,9.731119
86116275094481,0.10270437,0.08416292,9.625774
86116294952273,0.15053657,0.10131962,9.641932
86116314809937,0.21038046,0.1017878,9.78528
86116334667729,0.12679541,0.10168243,9.894318
86116354525521,0.12901907,0.031156918,9.909647
86116374383186,0.1773051,0.04772008,9.872028
86116394243293,0.16009712,0.12151985,9.77829
86116414101086,0.1764696,0.14727093,9.754987
86116433958879,0.22636348,0.08873126,9.741106
86116453816672,0.3506617,0.09584035,9.695492
86116473674465,0.41168305,0.11627795,9.795166
86116493521780,0.40173358,0.057680875,9.90115
86116513379309,0.29801175,0.06979704,9.84921
86116533236845,0.36379245,0.08597585,9.845618
86116553094381,0.34539774,0.105352215,9.71825
86116572951917,0.30640465,0.008239111,9.598728
86116592805430,0.2592784,-0.05316312,9.650772
86116612662966,0.22730957,-0.047986824,9.759869
86116632520374,0.22724059,0.0143214455,9.911625
86116652377910,0.26825276,0.056434833,9.907734
86116672235318,0.34547022,0.013883429,9.797187
86116692087934,0.2807953,0.04199861,9.7474575
86116711945342,0.29597983,0.090596616,9.710583
86116731802750,0.2810096,0.15585832,9.675406
86116751660158,0.29115304,0.037559982,9.656141
86116771517438,0.19287592,0.029305117,9.761319
86116791376396,0.041110422,0.06647001,9.848042
86116811233804,0.060744055,0.04245584,9.848478
86116831091212,0.11426027,-0.0027837534,9.940586
86116850948620,0.13416582,0.015668916,9.963628
86116870806028,0.18621144,-0.037714776,9.777003
86116890660681,0.27790427,0.08973077,9.660736
86116910517961,0.3224104,0.18050192,9.628724
86116930375369,0.25639537,0.10600262,9.557917
86116950232649,0.2717122,0.002640086,9.583637
86116970089929,0.33351478,-0.05450788,9.745077
86116989947002,0.40156922,-0.08150042,9.971016
86117009804282,0.43807894,0.082218185,10.061564
86117029661562,0.47377396,0.1925826,9.865055
86117049518842,0.39384055,0.24176614,9.735064
86117069376122,0.20929585,0.15943407,9.748214
86117089239662,0.08475131,0.042631175,9.650418
86117109097070,0.12924269,-0.021208005,9.534626
86117128954478,0.1646907,0.01318517,9.638607
86117148811886,0.08811434,-0.02733674,9.951045
86117168669294,0.025418468,-0.08199335,10.14755
86117188524002,0.08569752,-0.07065127,9.98053
86117208381410,0.14362413,0.066584475,9.700539
86117228238690,0.1354542,0.140905,9.686684
86117248096098,0.093251616,0.09123474,9.6189375
86117267953378,0.08908984,0.017589957,9.48566
86117287816540,0.047053915,-0.029582141,9.675378
86117307674076,-0.048762966,-0.052576233,9.946343
86117327531484,-0.09883003,-0.003177626,9.991985
86117347389020,-0.014288454,-0.06232607,9.862317
86117367246428,0.12504373,-0.07975243,9.739455
86117387101043,0.085913874,0.10082126,9.84943
86117406958451,0.07043377,0.10389085,9.777091
86117426815859,0.21326673,0.033939984,9.585928
86117446673395,0.3233967,-0.010260271,9.546855
86117466530803,0.26957932,0.007933924,9.756484
86117486388057,0.17697291,-0.008192346,9.953356
86117506245465,0.19632229,-0.016993387,9.900771
86117526102873,0.30830982,-0.05004396,9.761162
86117545960282,0.41800353,-0.06552497,9.723636
86117565817691,0.35219827,0.07726886,9.7221365
86117585674276,0.28482497,0.044804905,9.606308
86117605531557,0.30947262,-0.051448606,9.553134
86117625388966,0.30099803,-0.07761993,9.655479
86117645246375,0.23222041,-0.05355353,9.881974
86117665103784,0.15132464,-0.023463545,10.024096
86117684966483,0.19597,-0.048779286,9.942182
86117704824020,0.27742678,-0.0033807256,9.860436
86117724681429,0.21805455,0.06934406,9.808823
86117744538966,0.41133842,0.00611977,9.708223
86117764396375,0.51066417,0.106475264,9.688137
86117784253912,0.48784077,0.046600286,9.708488
86117804121146,0.4067007,-0.08205351,9.791112
86117823978939,0.37004983,-0.04748009,9.919048
86117843836602,0.30882755,-0.0041599306,9.898597
86117863694266,0.39474264,-0.07976564,9.797918
86117883552345,0.44267932,-0.030900817,9.730964
86117903409260,0.4344341,0.07302271,9.730784
86117923266924,0.43798584,0.09703577,9.747992
86117943124716,0.3845206,0.062435172,9.715082
86117962982380,0.38445768,0.022147361,9.751752
86117982840172,0.41551715,-0.08046211,9.837244
86118002692214,0.3429138,-0.03488316,9.857979
86118022549878,0.30867577,0.027690062,9.860787
86118042407542,0.32769263,0.005866951,9.8067
86118062265206,0.3722578,-0.044125546,9.691306
86118082122998,0.41047406,-0.068600446,9.68182
86118101981912,0.36136392,0.019813195,9.704604
86118121839705,0.29240987,-0.012800377,9.779834
86118141697368,0.3134959,-0.015404215,9.829058
86118161555032,0.35314724,0.014354704,9.922398
86118181412697,0.2922842,0.06744953,9.805538
86118201272327,0.32147312,-0.012298291,9.698273
86118221129991,0.3703608,-0.061997633,9.684504
86118240987784,0.40508807,0.015248969,9.71475
86118260845447,0.3222283,0.09535237,9.902641
86118280708505,0.25209567,0.07907847,9.876742
86118300566298,0.27978823,-0.021379545,9.837464
86118320424089,0.33263394,-0.034977216,9.760552
86118340281881,0.3781228,0.010001032,9.6954775
86118360139674,0.33101153,0.092971854,9.740852
86118379997465,0.410104,0.004544857,9.753218
86118399853868,0.4453474,-0.042803083,9.70104
86118419711661,0.4015633,-0.0743413,9.6982155
86118439569454,0.2553942,-0.065747924,9.802761
86118459427247,0.1666338,-0.007556674,9.905474
86118479285040,0.15249059,0.032910485,9.900314
86118499132503,0.26420826,-0.026181184,9.778747
86118518990040,0.32814822,0.02937535,9.704571
86118538847705,0.20246162,0.09597164,9.654229
86118558705242,0.22325544,0.0535059,9.682182
86118578551503,0.2606139,-0.04609913,9.796922
86118598408784,0.17000997,-0.019344484,9.923838
86118618266193,0.15322103,-0.0041923826,9.951955
86118638123474,0.18257284,-0.03724204,9.926907
86118657980755,0.20959568,-0.024238264,9.766919
86118677838164,0.276383,-0.013667739,9.641167
86118697694677,0.38172784,-0.015063353,9.579358
86118717551958,0.3363633,-0.02403196,9.574445
86118737409367,0.37230083,-0.010264579,9.7206745
86118757266648,0.3871975,-0.035139933,9.877205
86118777124057,0.28647798,-0.012052208,9.988633
86118796978878,0.14534007,-0.008480361,10.002192
86118816836031,0.12634867,0.06862305,9.935229
86118836693312,0.28401244,0.055486917,9.723512
86118856550569,0.3524887,0.083718464,9.653643
86118876410895,0.30430225,0.08702448,9.652518
86118896268176,0.2111366,0.043302823,9.645934
86118916125583,0.22194314,-0.024812449,9.746458
86118935982863,0.1961576,0.01739882,9.835149
86118955840272,0.1997299,0.05475864,9.957398
86118975697551,0.1634776,0.08307503,9.92285
86118995557086,0.2148471,0.04605884,9.783846
86119015414495,0.22978598,0.07003791,9.6369505
86119035271774,0.22281514,0.087777294,9.572663
86119055129054,0.17820157,0.074889876,9.661404
86119074986335,0.20879559,-0.029036872,9.792975
86119094841993,0.25590762,-0.10075249,9.979295
86119114699273,0.23135504,-0.06872732,10.073029
86119134556554,0.12703925,0.039784554,9.885175
86119154413833,0.14465338,0.020842444,9.704368
86119174266097,0.21686682,-0.023321208,9.592995
86119194123250,0.2634823,0.028831696,9.566759
86119213980273,0.28292033,0.083409004,9.676388
86119233837425,0.23816028,0.036719754,9.827515
86119253694578,0.17247185,-0.043029025,9.874814
86119273551729,0.20267108,-0.08494907,9.94395
86119293420318,0.15485479,-5.4166623E-4,9.925655
86119313277727,0.0690943,0.12484903,9.825014
86119333135134,0.15799305,0.17406338,9.701198
86119352992414,0.31609058,0.01691799,9.573629
86119372849823,0.24666408,0.03606215,9.548761
86119392706166,0.20035921,0.123104714,9.755231
86119412563574,0.14428405,0.078663036,9.932578
86119432420983,0.15836461,-0.017592687,9.953893
86119452278392,0.17769375,0.056796487,9.904336
86119472135801,0.23951784,0.08455628,9.855644
86119491993210,0.29490325,0.11621782,9.723603
86119511857283,0.3858282,0.15924937,9.658722
86119531714820,0.4173959,0.15084367,9.670686
86119551572357,0.31792676,0.14587192,9.693758
86119571429894,0.22048067,0.1045867,9.781869
86119591276065,0.24859788,-0.023293799,9.86235
86119611133346,0.17594524,-0.03695082,9.79754
86119630990499,0.2402908,0.038158614,9.737105
86119650847780,0.22362068,0.14533502,9.722146
86119670704933,0.089121215,0.22535993,9.748258
86119690566340,0.19596197,0.1003691,9.79086
86119710423621,0.29458493,0.03537119,9.717985
86119730281030,0.19032298,0.07481722,9.764774
86119750138311,0.09914624,0.07092126,9.876036
86119769995575,0.18564898,-0.0072811716,9.872368
86119789852984,0.20948131,-0.029742384,9.76542
86119809694202,0.23787843,0.04456604,9.693428
86119829551354,0.27510425,0.08756399,9.730646
86119849408379,0.30467528,0.06300486,9.762547
86119869265402,0.32254395,0.06506391,9.834814
86119889125361,0.3569466,0.0722037,9.843114
86119908982770,0.3186435,0.13820907,9.864227
86119928840049,0.30648196,0.12531184,9.837253
86119948697329,0.32745224,0.13841109,9.707553
86119968554610,0.35879323,0.113845855,9.691388
86119988422754,0.30848208,0.09414222,9.719372
86120008280290,0.33191103,0.10081647,9.771831
86120028137955,0.3114224,0.15653697,9.746647
86120047995490,0.31115022,0.017300595,9.812501
86120067853026,0.25865752,-0.07375259,9.880689
86120087710563,0.24714321,-0.092797585,9.807467
86120107569099,0.14358178,0.031662744,9.774294
86120127426635,0.1359324,0.060457207,9.838723
86120147284172,0.26509225,-0.027544511,9.779587
86120167141707,0.2823832,3.3014052E-4,9.695498
86120186999603,0.18801472,0.05492867,9.696213
86120206857140,0.13179977,-0.0373295,9.790148
86120226714547,0.110908285,-0.13472699,9.804543
86120246572083,0.15770285,-0.116097696,9.758953
86120266429492,0.21364044,-8.3077856E-4,9.7294035
86120286294689,0.32067993,0.03176024,9.77104
86120306152353,0.32076368,0.046981685,9.791957
86120326009890,0.29482198,0.109214775,9.741292
86120345867553,0.3123798,0.02456193,9.703505
86120365725218,0.34357142,-0.08932816,9.792414
86120385582755,0.26753044,-0.07523723,9.900172
86120405442344,0.31249806,-0.09374856,9.885459
86120425300009,0.29832622,0.0196985,9.764914
86120445157674,0.28120273,0.032384966,9.665043
86120465015339,0.21580814,0.008421175,9.653225
86120484869420,0.2593231,-0.029579919,9.68315
86120504727085,0.26016486,0.053414267,9.762588
86120524584622,0.22564836,0.03351352,9.897332
86120544442287,0.22442839,0.024136115,10.055103
86120564299824,0.22924507,0.050784513,10.049161
86120584157489,0.22895163,0.08495768,9.816975
86120604016050,0.3045804,0.09069899,9.594121
86120623873715,0.2397922,0.11731233,9.50649
86120643731380,0.2754016,0.010170862,9.566495
86120663589045,0.2989827,0.0105406055,9.695405
86120683446710,0.30540982,0.018157084,9.845809
86120703301321,0.2806598,0.03359673,9.957753
86120723158986,0.24873857,0.045394037,9.991547
86120743016523,0.25390643,0.09649547,9.981645
86120762874188,0.24623673,0.19242333,9.867926
86120782724003,0.27412194,0.13000068,9.681989
86120802581540,0.31173754,0.052869305,9.510379
86120822438926,0.25117147,0.062746845,9.561931
86120842296334,0.18752842,0.030577851,9.70353
86120862153743,0.11332184,-0.0395223,9.829293
86120882011278,0.18591113,-0.06283862,9.925757
86120901877634,0.23395099,-0.011759298,9.904132
86120921735299,0.19289489,0.12407485,9.93649
86120941593090,0.15644707,0.11996047,9.842374
86120961450754,0.27255806,0.029798716,9.656778
86120981308419,0.23889811,0.12403343,9.593441
86121001160969,0.15020746,0.13888349,9.63179
86121021018633,0.18351111,-0.015023286,9.838056
86121040876170,0.20765136,-0.113514304,9.953496
86121060733705,0.19010082,-0.04469116,10.008896
86121080588176,0.14670618,0.054922506,9.895362
86121100445713,0.13775161,0.090079874,9.737372
86121120303376,0.17447217,0.080093704,9.630587
86121140160912,0.28337243,0.014176403,9.574351
86121160018577,0.25404838,0.11339405,9.643929
86121179876112,0.15402505,0.028288184,9.808328
86121199733051,0.17876975,-0.113070324,9.892872
86121219590588,0.111109324,-0.04952731,9.936182
86121239448123,0.10486144,-0.0076061888,9.898371
86121259305659,0.135997,0.0733316,9.853161
86121279163196,0.21640374,0.07503408,9.756248
86121299024754,0.21900886,0.09803317,9.627998
86121318882418,0.23652568,0.102627836,9.610857
86121338740083,0.14502202,0.07801164,9.663747
86121358597618,0.08864918,-0.050579574,9.7865095
86121378455283,0.047075722,0.05615216,9.972132
86121398312948,-2.4060917E-4,0.04012071,9.868898
86121418154339,0.061977223,-0.04395312,9.824099
86121438011492,0.29507822,-0.073837504,9.7365675
86121457868645,0.34697324,0.039275188,9.765507
86121477725798,0.30225697,0.12607677,9.773411
86121497584071,0.31887838,-0.009717693,9.691031
86121517441224,0.40049505,-0.103751145,9.714399
86121537298249,0.33922854,-0.0101153925,9.857683
86121557155402,0.17956346,0.0034441988,9.86286
86121577012555,0.16897698,-0.021324476,9.800657
86121596870080,0.20125504,-0.08121232,9.712039
86121616727233,0.17281222,0.001778324,9.76314
86121636584386,0.13437155,0.061101984,9.802773
86121656441539,0.14889248,-0.0557963,9.776767
86121676298692,0.19188926,-0.05818328,9.740704
86121696155845,0.21907239,-0.0012539892,9.754077
86121716014594,0.15404196,0.079063386,9.820585
86121735871747,0.13883848,0.03716576,9.870288
86121755728900,0.21385013,-0.041848388,9.802392
86121775586053,0.32245058,-0.0033542146,9.7102995
86121795450824,0.33416313,0.10558715,9.710849
86121815308105,0.2902118,0.1190416,9.733905
86121835165365,0.28990027,-0.0029500944,9.799286
86121855022773,0.300837,-0.026314477,9.817621
86121874880054,0.3023258,0.022822043,9.797626
86121894739536,0.28887853,0.07645075,9.795097
86121914597072,0.2515704,0.028929198,9.73145
86121934454609,0.25247565,0.012304315,9.657759
86121954312144,0.26288223,0.03370166,9.737855
86121974169680,0.2486028,0.037495326,9.878649
86121994027217,0.15451184,0.0031312602,9.896688
86122013891202,0.18626675,-0.045334306,9.89264
86122033748994,0.27935964,0.070733316,9.874483
86122053606659,0.40247148,0.06626318,9.697525
86122073464322,0.402739,-0.003014716,9.627268
86122093315044,0.3239799,-0.08804492,9.679069
86122113172581,0.3207417,-0.06894561,9.698901
86122133030116,0.38395792,-0.026415188,9.786077
86122152887780,0.43473172,-0.02015061,9.89355
86122172745317,0.45154384,-0.03710631,9.979055
86122192607887,0.37600324,0.022547478,9.933122
86122212465679,0.40658537,-0.0031855693,9.68993
86122232323344,0.34451422,0.04748999,9.572265
86122252181007,0.28665936,-0.010041404,9.611903
86122272038671,0.2596026,-0.047127664,9.668381
86122291896336,0.24202894,-0.09610769,9.774437
86122311754706,0.15550604,-0.08730616,9.878503
86122331612370,0.052171655,-0.1013868,9.916748
86122351470163,-0.010777974,-0.066751786,9.916233
86122371327826,-0.009537724,-0.049194176,9.742237
86122391183688,0.095338255,-0.061605826,9.620774
86122411041353,0.1501146,-0.014408895,9.562817
86122430898888,0.09393491,0.048033632,9.628238
86122450756553,0.1338321,1.5520223E-4,9.792412
86122470614218,0.23039642,-0.14252456,9.829079
86122490471883,0.32515913,-0.07585922,9.8322
86122510326610,0.19411984,0.080748364,9.848224
86122530184275,0.061935645,0.09946562,9.852263
86122550041812,0.06152137,-0.042594686,9.765654
86122569899477,0.13737182,-0.009631761,9.706521
86122589757142,0.2016714,0.19061446,9.643078
86122609605541,0.1517006,0.236621,9.727337
86122629462950,0.15758477,0.09664196,9.7817955
86122649320487,0.1946856,-0.011539637,9.854154
86122669177896,0.20674396,0.041483168,10.005884
86122689029105,0.19637604,0.088736795,9.985847
86122708886386,0.2522774,0.09824205,9.86826
86122728743667,0.27185336,0.10869098,9.704992
86122748600948,0.20915546,0.07125127,9.557815
86122768458229,0.17010756,0.04222142,9.560515
86122788315495,0.18360248,-0.033832286,9.724008
86122808172501,0.25032523,-0.10788062,9.911701
86122828029782,0.3109394,-0.115891896,9.963421
86122847887061,0.34556067,-0.0803772,9.920837
86122867744341,0.37292472,-0.09024162,9.838408
86122887601622,0.3531555,-0.08296506,9.750487
86122907464226,0.37244254,-0.0694328,9.658427
86122927321634,0.4375901,-0.10604088,9.592432
86122947179043,0.45234004,-0.096308395,9.588601
86122967036450,0.2952265,-0.074693024,9.755531
86122986876828,0.24767144,-0.077444986,9.977969
86123006733853,0.20243353,-0.105060995,10.040483
86123026590876,0.19554372,0.03825669,9.843428
86123046447900,0.22493887,0.049606856,9.718173
86123066304797,0.21906586,0.050102346,9.698002
86123086161820,0.14473386,0.055492707,9.676937
86123106015632,0.12614954,0.014746698,9.712182
86123125872657,0.19533412,-0.10568307,9.763332
86123145729552,0.21615604,-0.09399869,9.910015
86123165586448,0.107100196,0.033117503,10.034725
86123185443345,0.16923027,-0.074273884,9.894756
86123205300161,0.23498978,0.004477341,9.671719
86123225156930,0.25176027,0.01465759,9.592903
86123245013827,0.18480721,0.025838487,9.646549
86123264870721,0.18949735,-0.042774905,9.732947
86123284735108,0.15548213,-0.07059226,9.793904
86123304592133,0.19831456,-0.105361,9.889628
86123324449028,0.12466866,0.02230319,9.953277
86123344305924,0.14388633,-0.022809215,9.939581
86123364162949,0.2663055,-0.046145495,9.794481
86123384019844,0.3444365,0.038212433,9.63886
86123403882127,0.29705587,0.117265746,9.6157675
86123423739152,0.22358826,0.016347198,9.698232
86123443596303,0.20382932,-0.017032651,9.695358
86123463453327,0.2503835,-0.0704374,9.826337
86123483310352,0.24354276,-0.022626406,9.901094
86123503173353,0.21915427,0.008133779,9.839959
86123523030505,0.23914203,0.036146753,9.828793
86123542887658,0.26990706,-0.0030123426,9.75624
86123562744937,0.2323068,0.033410102,9.739406
86123582602089,0.19062433,0.06603242,9.768733
86123602459242,0.17735124,-0.030785741,9.791216
86123622318221,0.13458991,-0.013071092,9.815902
86123642175501,0.11103908,-0.018230746,9.786953
86123662032654,0.14220251,-0.046892215,9.737609
86123681889933,0.14927699,0.011265056,9.684026
86123701744714,0.17895076,0.062737174,9.723476
86123721601995,0.20716645,0.02500896,9.786071
86123741459146,0.19589157,-0.029617297,9.838079
86123761316298,0.19231206,-0.011039588,9.8381405
86123781173451,0.18748638,0.004243651,9.850636
86123801038044,0.16153733,0.038909446,9.817519
86123820895452,0.1986659,-0.026060103,9.7504
86123840752733,0.22603846,-0.017335182,9.670314
86123860610140,0.22860125,-0.026403878,9.622167
86123880467548,0.19407147,0.050809667,9.69752
86123900324829,0.17573527,-0.009867062,9.776576
86123920180078,0.20634878,-0.08440341,9.86927
86123940037486,0.19208543,-0.026117044,9.970539
86123959894895,0.18906438,0.029052751,9.984043
86123979752302,0.16925097,0.0661855,9.844614
86123999619317,0.17525569,-0.0262391,9.63583
86124019476982,0.19570526,-0.08181138,9.513035
86124039334645,0.20035002,-0.06802217,9.4995
86124059192309,0.22488883,0.013107192,9.787881
86124079049974,0.22313718,-0.021390006,9.965839
86124098909549,0.26628646,-0.21666384,9.933328
86124118767341,0.33225477,-0.1347194,9.943209
86124138625006,0.36127505,-0.011156759,9.889201
86124158482797,0.3575588,0.037114803,9.752998
86124178340461,0.3068332,-0.0577983,9.646865
86124198198126,0.3228107,-0.18301667,9.560311
86124218051730,0.30666858,-0.12675406,9.66387
86124237909394,0.24023286,-0.028441098,9.844771
86124257766931,0.13569368,-0.13410029,9.922843
86124277624594,0.07962142,-0.12402716,9.952222
86124297486122,0.111750394,-0.09207613,9.865459
86124317343787,0.14669286,-0.075418845,9.705302
86124337201578,0.1699358,-0.052397326,9.660368
86124357059242,0.18088694,-0.027878802,9.601089
86124376916907,0.21549001,-0.08128848,9.648987
86124396774698,0.18874489,-0.094853915,9.722081
86124416637896,0.18332182,-0.12551762,9.896196
86124436495689,0.21686749,-0.10007644,9.979746
86124456353480,0.21911378,-0.07810896,9.861592
86124476211400,0.21958202,-0.031908393,9.7214775
86124496069193,0.22513823,-0.0023812293,9.627288
86124515928208,0.26144478,-0.036623057,9.651696
86124535786128,0.25617144,-0.021541761,9.738784
86124555644049,0.2527021,-0.08229674,9.756286
86124575501968,0.23536098,-0.05688919,9.862953
86124595345084,0.18639642,0.030470885,9.97746
86124615202621,0.18127577,-0.020717593,9.8728
86124635060156,0.2409994,-0.03152819,9.78174
86124654917692,0.24658056,0.038830366,9.701008
86124674775229,0.2590342,-0.017588757,9.620498
86124694632764,0.19643752,-0.0034803129,9.65365
86124714481847,0.13867141,-0.03370544,9.712775
86124734339128,0.10215107,-0.03739612,9.793466
86124754196535,0.1582203,-0.027599642,9.916954
86124774053815,0.16455059,0.08627647,9.965589
86124793911224,0.22506408,0.055607755,9.902967
86124813760288,0.36277857,0.043913864,9.739522
86124833617440,0.3868632,0.121912025,9.676431
86124853474593,0.33184713,0.12996145,9.637294
86124873331744,0.26279092,-0.0028834722,9.67779
86124893184573,0.24829948,-0.12223011,9.873466
86124913041598,0.30058086,-0.09810052,9.957939
86124932898749,0.2987349,-0.07082318,9.892327
86124952755773,0.26170313,-0.023069965,9.784615
86124972612926,0.2858507,-0.046818454,9.707153
86124992470077,0.32689965,-0.0053080665,9.631767
86125012332745,0.36491808,0.06556567,9.674739
86125032189898,0.3537104,0.13319528,9.735976
86125052047177,0.35356528,0.03415217,9.820672
86125071904329,0.30941746,-0.058138408,9.915886
86125091761482,0.31660235,-0.1553424,9.875682
86125111619232,0.32904834,-0.06019908,9.826359
86125131476512,0.33814615,0.07207986,9.788753
86125151333665,0.3222726,0.044986654,9.737996
86125171190944,0.29148668,0.0107588265,9.644682
86125191048096,0.24242611,0.033150434,9.630097
86125210905377,0.18508598,0.04598217,9.728471
86125230762528,0.12666842,0.0065712137,9.830873
86125250619680,0.0826044,0.017749606,9.897185
86125270476833,0.112997994,-0.06530306,9.795785
86125290333984,0.16414063,-0.07690031,9.749542
86125310182511,0.1785487,0.07384308,9.786256
86125330039408,0.220053,0.17588758,9.778555
86125349896431,0.31746727,0.14538062,9.741125
86125369753327,0.34436363,0.07041063,9.690999
86125389610352,0.30149263,0.025182523,9.719535
86125409467424,0.2273895,0.03068695,9.78366
86125429324320,0.13721958,0.036410637,9.858081
86125449181345,0.11808943,0.0018131937,9.833594
86125469038240,0.11979904,0.0089835655,9.7872505
86125488895136,0.083513014,0.012032803,9.719435
86125508752161,0.06853768,0.03271694,9.70404
86125528610360,0.06381844,0.043492,9.770323
86125548467256,0.094123796,0.048910752,9.8197775
86125568324153,0.14815842,0.060178455,9.908259
86125588181048,0.113404125,0.10442692,9.837831
86125608044746,0.13937455,-0.008332933,9.743965
86125627901899,0.21597509,0.002015866,9.649327
86125647758922,0.23627315,0.07573755,9.683221
86125667615946,0.20613155,0.11230382,9.766295
86125687472971,0.25019717,0.06407668,9.837906
86125707333005,0.22864506,-0.004384327,9.875566
86125727190029,0.20868665,-0.03990768,9.896687
86125747047182,0.22350688,0.057534274,9.801053
86125766904333,0.2748624,0.1159289,9.724222
86125786761485,0.27767664,0.1354425,9.713465
86125806618510,0.30066076,0.066566594,9.715718
86125826471455,0.31118852,0.011317715,9.722248
86125846328479,0.2866901,0.0045085005,9.806352
86125866185504,0.23513633,0.051170368,9.908135
86125886042527,0.25186008,-0.0038034653,9.94042
86125905908330,0.25096998,0.06949917,9.851159
86125925765611,0.22388616,0.022477133,9.681186
86125945624837,0.24285594,-0.025108539,9.633517
86125965481989,0.27080882,0.009083236,9.635314
86125985339270,0.28867733,0.03960614,9.785855
86126005210384,0.19121176,0.027614003,9.832009
86126025068048,0.1261749,-0.08438478,9.863941
86126044925585,0.12029896,-0.042356275,9.94062
86126064783248,0.09528041,0.034587976,9.86556
86126084640784,0.07854253,0.0800281,9.720723
86126104498321,0.16745132,0.016551632,9.559464
86126124360306,0.20738697,-0.011887165,9.56173
86126144218098,0.106812865,0.019101055,9.7256975
86126164075763,0.12904471,-0.048058957,9.812367
86126183933554,0.17418541,-0.045523506,9.917542
86126203791449,0.18144056,-0.03873885,9.947326
86126223649242,0.14641371,0.059028197,9.937233
86126243507033,0.18036227,0.051144086,9.916253
86126263364697,0.23725456,0.09875438,9.71849
86126283222490,0.2899295,0.05464127,9.427882
86126303076714,0.27128932,0.09966481,9.49477
86126322934378,0.15517402,0.16472888,9.639838
86126342792171,0.22095202,-0.11910924,9.807654
86126362649834,0.20356871,-0.06577882,9.887374
86126382507498,0.14677693,0.069425374,10.084441
86126402365163,0.07685425,0.085224405,10.0474825
86126422218559,0.094652645,0.103421755,9.81579
86126442076095,0.24665985,0.11666072,9.614218
86126461933760,0.27889565,0.17292246,9.555503
86126481791295,0.24866842,0.15203683,9.575305
86126501644875,0.39695263,0.022812484,9.711583
86126521502412,0.42963618,0.016536599,9.905284
86126541359819,0.24569939,0.057023086,9.910178
86126561217355,0.24949455,-0.045345318,9.906809
86126581074764,0.25379488,0.018212808,9.903848
86126600932299,0.24017717,0.03988642,9.777833
86126620792267,0.23178175,0.055530496,9.628903
86126640649804,0.28120437,0.032320805,9.5475
86126660507467,0.23049995,-0.040395726,9.649756
86126680365003,0.18730727,-0.07657609,9.85427
86126700222540,0.21571141,-0.044527367,9.927005
86126720075351,0.24295966,0.025871824,9.800167
86126739932759,0.21820289,0.020830292,9.800234
86126759790296,0.2087507,0.024963114,9.854398
86126779647831,0.21245764,0.042551097,9.819185
86126799497467,0.17904474,0.073377036,9.713898
86126819354876,0.2524147,0.0055365805,9.642922
86126839212283,0.19408488,-0.020243196,9.756928
86126859069563,0.19516806,-0.039158236,9.942148
86126878926972,0.19986793,0.003994541,9.90944
86126898784379,0.1913294,0.026597165,9.737004
86126918629181,0.23956285,-0.04179201,9.690816
86126938486206,0.31483412,-0.0046834094,9.734204
86126958343357,0.34505978,0.14684147,9.739471
86126978200381,0.3306778,0.16646312,9.8064785
86126998057406,0.3873429,0.10796818,9.797939
86127017917972,0.36219963,0.109620094,9.838476
86127037775124,0.26633143,0.08463252,9.869525
86127057632149,0.15193182,0.13766001,9.836147
86127077489172,0.19214603,0.07892265,9.7836075
86127097341502,0.19528118,0.06913616,9.750365
86127117198527,0.19482179,0.027218858,9.688574
86127137055422,0.13124433,0.049923245,9.733462
86127156912446,0.18008964,-0.011490894,9.814951
86127176769343,0.19947845,0.034866843,9.818966
86127196626366,0.20260164,0.0645613,9.786236
86127216486133,0.22585186,0.059822507,9.818116
86127236343030,0.24677344,0.10043899,9.800664
86127256200053,0.22158924,0.077689424,9.724151
86127276057077,0.20101647,0.09416939,9.705578
86127295914102,0.22371948,0.069256335,9.726586
86127315768516,0.22686566,0.035570107,9.758865
86127335625412,0.20729427,0.070285834,9.844397
86127355482309,0.14533414,0.13331051,9.836013
86127375339332,0.23317695,0.08288788,9.820469
86127395197288,0.21884283,0.12466795,9.804624
86127415054185,0.21584253,0.13085642,9.758012
86127434910952,0.17138113,0.14864711,9.690034
86127454767848,0.18670487,0.06631084,9.739201
86127474624745,0.20891628,0.064613685,9.832067
86127494481512,0.16862835,0.06028701,9.883214
86127514347100,0.16205841,0.04961498,9.809249
86127534204125,0.254634,0.047761407,9.750081
86127554061148,0.20992559,0.10764541,9.724455
86127573918044,0.15430872,0.123144165,9.718064
86127593775069,0.15420194,0.106432274,9.735385
86127613638571,0.21059757,0.02290928,9.764134
86127633495723,0.2061799,0.03508017,9.828155
86127653352876,0.16780993,0.10706276,9.888982
86127673210155,0.1268955,0.17804283,9.833968
86127693077364,0.17729254,0.11314005,9.7769785
86127712934773,0.21092033,0.14512464,9.691475
86127732792180,0.16386008,0.1660267,9.636148
86127752649588,0.15258391,0.17391439,9.684877
86127772507125,0.14711475,0.16652109,9.756817
86127792364532,0.1480427,0.11895135,9.914577
86127812225896,0.14881244,0.11574348,10.030553
86127832083433,0.19581997,0.07248439,9.931439
86127851940968,0.1038349,0.11421988,9.719396
86127871798504,0.09468053,0.12484684,9.65002
86127891656041,0.19194926,0.1265731,9.603329
86127911516159,0.34228683,0.1321526,9.641243
86127931371135,0.27361682,0.23397256,9.755961
86127951228800,0.1552814,0.14800829,9.858485
86127971086335,0.21840546,-0.0108174635,9.877842
86127990943999,0.16347654,0.08895994,9.970905
86128010801664,0.108670406,0.12239663,9.945965
86128030662423,0.02974932,0.20061341,9.793271
86128050520087,0.13274005,0.12088908,9.629825
86128070377752,0.17650887,0.10281601,9.537002
86128090235543,0.17119533,0.1709957,9.6390085
86128110097805,0.0914125,0.1835902,9.844546
86128129955726,0.11882803,0.017793775,9.939922
86128149813517,0.15636785,-0.013383998,9.9035225
86128169671437,0.15140219,-8.6797064E-4,9.914584
86128189529230,0.13262865,0.042553414,9.788058
86128209390006,0.17457646,0.12475785,9.624089
86128229248054,0.16798648,0.2547009,9.551454
86128249105975,0.24693128,0.17976753,9.616544
86128268964022,0.23155111,0.09427541,9.738559
86128288821942,0.23273817,-0.01024011,9.901812
86128308679991,0.22801955,0.024491288,9.985425
86128328528388,0.14426948,0.0738139,9.893314
86128348386308,0.12535557,0.078515686,9.837333
86128368244101,0.16785255,0.10426835,9.729304
86128388101892,0.16206867,0.1739982,9.601633
86128407963609,0.1454156,0.23415941,9.66253
86128427821530,0.21374409,0.12570713,9.750841
86128447679323,0.19849256,0.09824035,9.845827
86128467537241,0.16145517,0.04898154,9.925706
86128487395162,0.12241323,0.05863517,9.862158
86128507241268,0.14858302,0.10778827,9.886629
86128527098932,0.16747808,0.15458995,9.8717375
86128546956469,0.12371167,0.17553991,9.691369
86128566814132,0.18569088,0.16557273,9.623765
86128586671669,0.23909687,0.06064197,9.654462
86128606529334,0.2781036,0.0033829247,9.805712
86128626385035,0.26049006,0.035610083,9.911576
86128646242572,0.20578086,0.07741488,9.850303
86128666100237,0.29196036,0.044320527,9.8310995
86128685957774,0.3406556,0.06983945,9.750267
86128705810719,0.2607745,0.1375784,9.711749
86128725668256,0.21198301,0.11091909,9.717654
86128745525665,0.2203366,0.054185655,9.666527
86128765383074,0.24468125,0.016328258,9.75021
86128785240611,0.16548829,0.053546276,9.932249
86128805098010,0.026789159,0.07224498,9.956243
86128824945807,-0.03129255,0.07645049,9.817789
86128844803088,0.085206464,0.0011350921,9.704359
86128864660367,0.14316922,0.035321884,9.694485
86128884517647,0.07306933,0.120250516,9.750792
86128904374800,0.115993164,0.0926633,9.759466
86128924230354,0.23484376,0.026543975,9.747329
86128944087506,0.22881009,0.058996093,9.868734
86128963944659,0.16477565,0.050756,9.874756
86128983801810,0.10176422,0.037566256,9.771956
86129003658363,0.08725319,0.029805241,9.7529335
86129023515388,0.13398345,0.057510577,9.780397
86129043372539,0.13123043,0.09988383,9.79354
86129063229691,0.09374075,0.06799526,9.745417
86129083086716,0.14463061,0.03043358,9.750525
86129102943867,0.15186249,0.08174626,9.76938
86129122802671,0.1601034,0.09025843,9.79195
86129142659824,0.15900575,0.122936405,9.822587
86129162516975,0.23637743,0.066408865,9.73942
86129182374127,0.2428289,0.12684457,9.823712
86129202231280,0.21290413,0.20118143,9.849786
86129222084262,0.26481554,0.15236418,9.821041
86129241941287,0.25240922,0.101225674,9.781449
86129261798312,0.22350419,0.08108136,9.765818
86129281655334,0.19162406,0.1422702,9.792652
86129301515253,0.15057907,0.14752458,9.765425
86129321372278,0.23156443,0.08463466,9.757447
86129341229429,0.27367908,0.123247415,9.677583
86129361086453,0.16856073,0.12292425,9.711946
86129380943606,0.08702231,0.099984385,9.865661
86129400800629,0.16212454,0.013017312,9.912671
86129420662115,0.19989136,0.0035684274,9.958898
86129440519268,0.09965677,0.13681369,9.82839
86129460376419,0.09691666,0.13891894,9.738296
86129480233571,0.06823464,0.10543804,9.727273
86129500090724,0.12857215,0.034118064,9.661222
86129519954427,0.16385107,0.12173434,9.633056
86129539811707,0.1810877,0.16196992,9.733843
86129559668988,0.07343745,0.13710412,9.937361
86129579526267,0.078572385,0.021634357,9.9555235
86129599381785,0.11678976,0.033292934,9.907136
86129619238938,0.1557726,0.12639496,9.751959
86129639096217,0.113491185,0.16356632,9.726704
86129658953498,0.10010878,0.21972072,9.69786
86129678810779,0.1853776,0.09153865,9.645003
86129698668057,0.1567271,0.13154362,9.6533785
86129718532293,0.08239834,0.14721555,9.851152
86129738389702,0.14201547,-0.030682366,9.968803
86129758247109,0.23294404,-0.022216648,9.941723
86129778104517,0.101374716,0.14503533,9.877848
86129797961926,0.16105877,0.12742983,9.709411
86129817817279,0.13523728,0.158546,9.602168
86129837674687,0.18282618,0.14314584,9.613412
86129857532096,0.18990707,0.20607081,9.70586
86129877389631,0.17365243,0.17547947,9.891931
86129897242535,0.19398625,0.08449118,9.969499
86129917099816,0.2054901,0.023276877,9.951953
86129936957095,0.16235055,0.06730873,9.805284
86129956814897,0.13445574,0.1704521,9.735764
86129976672178,0.20947602,0.2340577,9.66065
86129996529457,0.2863168,0.29718822,9.655825
86130016396069,0.23250152,0.31854507,9.68447
86130036253734,0.22529319,0.16974998,9.77377
86130056111269,0.21640988,0.11052845,9.886349
86130075968805,0.12409541,0.118299775,9.92014
86130095826470,0.11861758,0.11852397,9.909766
86130115683847,0.16598159,0.1303933,9.71788
86130135541383,0.2533331,0.13473001,9.577198
86130155399048,0.16880304,0.23844957,9.590071
86130175256583,0.09359815,0.23026434,9.628466
86130195114119,0.042985428,0.13686138,9.764662
86130214971656,0.09019058,0.0015956039,9.831541
86130234827370,0.15380901,-0.022550026,9.912612
86130254684906,0.015912827,0.07087055,9.9161625
86130274542443,0.069682196,0.050558265,9.773481
86130294399850,0.12986133,0.18320112,9.6166
86130314254680,0.16375709,0.22655104,9.637589
86130334112217,0.13537025,0.24228679,9.706187
86130353969624,0.20139761,0.10600338,9.72164
86130373827160,0.20976925,0.059324175,9.651366
86130393684697,0.19894014,-7.90105E-4,9.711221
86130413542790,0.11651833,0.072917454,9.9469595
86130433400198,0.057769444,0.056134302,10.160148
86130453257607,0.09857368,0.06307104,9.926229
86130473115142,0.17325725,0.11826216,9.634354
86130492972550,0.14607686,0.14428833,9.596978
86130512829959,0.060852326,0.12275618,9.667943
86130532691854,-0.008522887,0.16250505,9.672427
86130552549391,0.07588632,0.06088282,9.796634
86130572407056,0.109115876,0.0058249244,9.884176
86130592264588,0.08883411,0.052107994,9.886736
86130612117589,0.06695018,0.07468647,9.84997
86130631975126,0.08291313,0.04419347,9.755907
86130651832533,0.11162377,0.1742209,9.657889
86130671690069,0.06858195,0.356065,9.748171
86130691547478,0.17373894,0.18225917,9.831269
86130711395864,0.25484377,0.05839409,9.846538
86130731253144,0.12373287,0.17463927,9.891717
86130751110425,0.07793123,0.09444931,9.9137
86130770967832,0.12473352,0.016245406,9.729824
86130790825112,0.2085789,0.033826355,9.602003
86130810682393,0.29827392,0.044728775,9.744937
86130830531579,0.2785239,0.20804851,9.887023
86130850388731,0.24942571,0.17825353,9.904203
86130870245756,0.283855,0.09005098,9.858691
86130890102907,0.19833384,0.13694246,9.841846
86130909958601,0.20457737,0.047006886,9.781081
86130929815626,0.30137533,-0.028687999,9.782994
86130949672649,0.39574498,-0.0144340815,9.732371
86130969529673,0.31138432,0.089441605,9.748636
86130989386698,0.27418938,0.040302612,9.737697
86131009243721,0.32754558,0.004510643,9.781828
86131029100501,0.27379513,0.042277172,9.855964
86131048957526,0.24432994,-0.0011771823,9.817016
86131068814549,0.21379827,-0.022640178,9.708625
86131088671573,0.27077675,-0.09840633,9.68744
86131108528598,0.30109358,-0.13828522,9.6716385
86131128386925,0.22802289,0.056096174,9.704614
86131148244077,0.13420057,0.22707035,9.69857
86131168101102,0.20253456,0.10637699,9.791774
86131187958253,0.23909554,0.07425363,9.781449
86131207816905,0.18848746,0.04462886,9.737199
86131227673930,0.092931055,0.05211989,9.698331
86131247531081,-0.023243396,-0.06840895,9.65538
86131267388105,0.0830283,-0.15530375,9.658577
86131287245130,0.14323388,-0.06706007,9.551506
86131307102153,0.12807153,-0.13686116,9.50089
86131326957793,-0.012480211,-0.088390246,9.586849
86131346814818,-0.10732844,-0.09131942,9.689308
86131366671841,-0.14362398,-0.09760645,9.789577
86131386528993,-0.068419494,-0.05632717,9.729397
86131406386018,-0.008017626,0.09185385,9.646536
86131426245613,-0.029121326,0.18390729,9.694529
86131446102637,-0.008090445,0.13778949,9.681564
86131465959790,0.21334863,0.1125773,9.658383
86131485816813,0.3286805,0.20073661,9.669767
86131505676080,0.29175326,0.1932322,9.727245
86131525533105,0.31827095,0.0884767,9.745848
86131545390128,0.31694216,0.12717542,9.648122
86131565247280,0.23380126,0.18801117,9.630793
86131585104305,0.2012818,0.15393925,9.629579
86131604961328,0.19230404,0.13856533,9.579279
86131624816652,0.09749257,0.17346643,9.624587
86131644673677,0.051335547,0.10632637,9.709762
86131664530700,0.054339815,0.065747276,9.734402
86131684387724,0.057513043,0.069331236,9.78508
86131704244877,0.09021604,0.052237988,9.84915
86131724097016,0.11449881,0.10196483,9.8233185
86131743954040,0.13655703,0.19456841,9.549181
86131763810937,0.2145217,0.14932,9.376717
86131783667960,0.071474835,0.255223,9.455425
86131803520013,-0.038706336,0.2504712,9.720876
86131823376782,0.008189956,0.12912571,9.857425
86131843233677,0.07447817,0.03890854,9.858061
86131863090573,0.033598576,0.058225926,9.768254
86131882947470,-0.02417765,0.12966667,9.753626
86131902804365,0.026058292,0.15942255,9.59831
86131922666771,0.05617954,0.20498024,9.442074
86131942523668,-0.0019009183,0.22976673,9.490023
86131962380691,-0.034579277,0.15468627,9.654359
86131982238654,-0.018557059,0.16437444,9.728575
86132002095551,-0.057480503,0.17451377,9.72182
86132021962759,-0.11210859,0.15107608,9.68989
86132041820039,-0.16796336,0.25557175,9.721227
86132061677192,-0.12232529,0.23265001,9.715215
86132081534343,-0.076754496,0.31197676,9.678598
86132101386052,-0.029537903,0.49204487,9.67271
86132121243205,-0.036333725,0.47605854,9.694185
86132141100356,-0.13313054,0.47361797,9.687984
86132160957508,-0.1379479,0.42604688,9.649265
86132180814661,-0.05506559,0.42784828,9.748589
86132200671812,-0.11949414,0.5554836,9.941231
86132220537412,-0.26506534,0.64095545,9.884672
86132240394821,-0.32740253,0.74508446,9.71528
86132260252100,-0.2965076,0.6978776,9.673087
86132280109380,-0.3150873,0.71088207,9.676032
86132299966789,-0.46834314,0.7072912,9.713453
86132319823617,-0.4982546,0.6064361,9.92432
86132339680897,-0.53291225,1.249871,10.488347
86132359538178,-0.82518715,1.4018588,10.759349
86132379395457,-0.54298735,0.54375356,10.742046
86132399252737,-0.45960584,-0.42239276,10.442595
86132419110018,-0.887466,-0.05720917,10.230277
86132438974288,-0.5487743,0.75771546,10.546982
86132458831696,-0.24303286,0.06401366,10.047685
86132478688976,-0.15763251,-1.2608368,9.307942
86132498546384,-0.23767826,-0.49543473,9.5498085
86132518403792,-0.0111213,0.9357264,9.306459
86132538263980,0.39845052,1.0485531,9.287513
86132558121388,0.3645575,0.5220246,9.486121
86132577978796,0.011392866,0.46521112,10.123967
86132597836332,-0.6788509,-0.2497403,9.89285
86132617693740,-0.5918516,0.48374903,10.154839
86132637535409,-0.5700747,0.6703773,10.019644
86132657392689,-0.25459483,0.5437724,9.589494
86132677249841,0.015466531,1.1212639,9.390957
86132697106993,-0.19558361,1.5347059,8.755018
86132716964145,-0.4799354,1.5054247,8.496003
86132736826112,-0.1293177,1.2690991,8.756447
86132756683264,-0.28846884,1.1441996,8.972218
86132776540544,-0.37892494,0.9482379,9.071017
86132796397824,-0.24442719,1.2027987,9.002685
86132816254976,-0.6203746,1.9152673,8.888819
86132836107276,-0.55204165,1.6719139,8.860142
86132855964428,-0.38200346,1.346467,8.823185
86132875821580,-0.70634466,1.3654633,9.118377
86132895678860,-0.77856517,1.2181194,9.449478
86132915536012,-0.49359402,1.2735696,9.509476
86132935389842,-0.5280243,0.9181319,9.974328
86132955246995,-0.7646655,1.1516184,9.978777
86132975104020,-1.079221,1.9723086,10.289854
86132994961170,-1.0097648,2.8362954,10.930721
86133014818194,-0.7275562,3.509611,11.003884
86133034680806,-1.2131717,3.2802641,10.810378
86133054537958,-1.1378691,3.0045156,11.206469
86133074395238,0.09318569,1.6076343,11.116105
86133094252518,1.5274575,-0.22841989,12.007216
86133114109670,0.11621672,-1.0428417,12.809413
86133133966066,0.1372056,-1.7677592,10.238863
86133153823346,3.7867932,-2.8461409,6.989428
86133173680626,4.0535297,-2.500973,6.358064
86133193537906,3.3605962,-1.47262,8.525922
86133213395186,2.377023,-1.7770385,9.397335
86133233254581,2.408481,-2.723783,7.9940014
86133253111861,3.020667,-3.9693122,7.9627256
86133272969141,1.5500773,-5.2023582,9.038231
86133292826421,-0.83796626,-4.8776665,10.824724
86133312683701,-3.181427,-1.5707818,11.94238
86133332545583,-1.7416741,0.92301524,10.530318
86133352402864,0.14203359,0.504232,7.5552917
86133372260271,0.009745593,-0.55874074,7.312653
86133392117551,-0.12831275,-1.5255414,8.955491
86133411974831,-1.082507,-0.85165954,9.838254
86133431827564,-1.3864893,-0.06638559,9.347421
86133451684716,-1.3889762,0.4523444,8.738925
86133471541868,-1.512539,1.3479841,8.987658
86133491399020,0.19628327,-0.8699377,9.114082
86133511256173,0.20481634,-2.5291984,8.952459
86133531123676,-1.2191806,-3.066779,9.087115
86133550981085,-2.1208868,-2.558065,9.48377
86133570838494,-2.1777549,-1.3208686,11.484897
86133590695903,-1.4727005,-0.7195805,13.002943
86133610553312,-1.2729628,-2.1833074,12.608939
86133630412731,-1.7281929,-3.4203482,11.542366
86133650270140,-1.3938462,-4.156491,9.993262
86133670127677,0.18064809,-2.3894396,11.906061
86133689985086,1.462843,-4.163096,13.551149
86133709842623,0.05844458,-6.9098268,13.388768
86133729698502,-1.6960002,-8.713038,11.28748
86133749555911,-1.8644527,-7.493989,12.131483
86133769413320,-2.268747,-4.320253,15.045014
86133789270601,-3.5876853,-1.033766,15.191895
86133809128010,-1.7336307,-1.0796238,12.170149
86133828988426,-0.34043014,-5.3342876,8.232008
86133848845834,-0.69025093,-6.5375543,6.599328
86133868703370,-0.12618959,-6.7007904,5.748611
86133888560778,-0.61177886,-8.609201,5.09341
86133908418314,-0.12636365,-7.0112357,6.322959
86133928278860,1.478987,-4.8439784,5.711659
86133948136396,3.6475053,-3.6586843,4.303807
86133967993932,4.751939,0.78587484,4.684355
86133987851468,3.3251598,2.692501,5.605361
86134007710415,3.036333,1.8204719,6.7239404
86134027579516,3.9750671,1.2240337,7.535783
86134047437436,3.708923,1.7388424,7.893737
86134067295356,2.018643,3.4805944,9.052518
86134087153148,0.1310176,3.6326127,10.452626
86134107011068,-0.96516585,1.6085167,11.525413
86134126871700,-6.106564,-0.37743858,14.663162
86134146729748,-11.284556,-3.1060553,15.515158
86134166587796,-3.3905406,-7.9268413,7.391241
86134186445844,5.8195767,-10.706125,4.3367267
86134206303893,9.8064165,-6.9590406,6.789967
86134226154128,8.490291,-4.6663914,13.003757
86134246011918,4.9782233,7.8293595,21.256935
86134265869710,-8.054879,8.096289,12.577015
86134285727502,5.6596117,-2.8317208,3.5847118
86134305585294,10.917397,-6.126476,6.239517
86134325440750,9.055436,-3.8116195,10.271591
86134345298542,0.06655048,0.7002701,13.876237
86134365156335,-3.7116427,-3.7235246,12.353273
86134385014256,-1.9340131,-4.304448,9.220525
86134404872049,-1.506668,-1.4649293,7.9474535
86134424726336,-0.7331913,0.69031584,9.069275
86134444584001,-0.53112394,0.052277595,9.1319895
86134464441666,-0.6189915,-0.23415303,8.796513
86134484299459,-0.9985506,0.004111599,8.994933
86134504157124,-1.0255364,-0.38672465,8.924532
86134524007443,1.2360146,-2.0230548,8.3986225
86134543864980,2.8261871,-2.3894923,8.4623
86134563722517,-0.13122666,-3.5780966,8.457085
86134583580054,-1.8651369,-2.9820876,10.082124
86134603437463,-0.9492649,-2.0577154,10.757757
86134623290178,-1.9942474,-2.1582408,11.353486
86134643147587,-0.7934744,-2.1740816,10.945383
86134663004996,2.2134485,-1.6011928,11.759222
86134682862405,2.734689,-1.9604843,14.190307
86134702719814,2.0277388,-3.6623538,13.634579
86134722567855,3.1469018,-2.0192978,10.645871
86134742425136,2.2302465,-1.5201957,11.162572
86134762282289,-0.5680239,-4.2571115,12.852335
86134782139442,-1.822206,-6.1023164,13.329971
86134801996595,0.56351763,-6.1809926,12.64539
86134821853854,2.2855725,-4.6841016,11.126029
86134841705107,1.4370185,-2.379952,11.16258
86134861562130,5.7174926,2.8396604,7.797799
86134881419154,5.7998376,2.5421417,6.086625
86134901276178,4.294711,2.2399273,6.390646
86134921133202,0.23193827,2.9543905,7.4439206
86134940995543,-1.5946028,2.99807,7.1554956
86134960852695,0.47191095,3.9228294,4.606851
86134980709847,-1.0899538,3.0922117,5.188313
86135000566999,-2.018573,1.8982553,5.7029614
86135020424151,-0.919504,0.6517844,6.2505274
86135040275793,0.14870538,0.42931044,8.089979
86135060132817,0.0815916,0.13562556,10.553088
86135079989841,-0.33523542,0.6043777,10.911867
86135099846865,-0.76650494,0.4994133,11.084978
86135119703761,-0.2746769,-2.3339303,12.090726
86135139558542,1.4956199,-8.636338,13.2700815
86135159415566,6.1257477,-10.22544,11.534163
86135179272462,9.887007,-2.3037512,7.218763
86135199129487,6.7748194,3.9181054,6.9510393
86135218986512,3.7914383,0.60343146,12.12915
86135238848002,4.0827293,3.2653246,16.137072
86135258705026,0.83513755,10.553904,16.729792
86135278562050,-6.8599286,6.8090606,12.960761
86135298419074,-9.560493,-5.2261333,6.2703304
86135318276098,-3.5235531,0.09451088,1.9021668
86135338133358,-1.711836,2.4951458,5.9613657
86135357990383,-0.3081098,3.94276,10.683889
86135377847408,1.0268492,5.562813,12.488142
86135397704433,3.4712703,4.730366,11.043233
86135417561458,5.5956144,1.3591342,10.348208
86135437422157,3.707854,-7.2227955,10.992455
86135457279182,0.28473225,-3.0224874,10.047645
86135477136207,-0.24966507,0.26767147,8.532558
86135496993360,0.9848393,0.69048035,7.743754
86135516850385,1.7856492,2.6128354,8.194166
86135536713662,1.2408488,0.76868224,9.787252
86135556570815,0.4835922,-1.126777,10.293729
86135576427968,0.31868008,-0.07897844,8.889002
86135596285121,0.33958018,-0.5988682,8.8490715
86135616142274,0.2356093,-2.1076367,9.519292
86135635998815,0.53225553,0.3831152,8.981892
86135655855968,1.356392,2.4821098,8.384969
86135675713121,0.99475175,1.2460839,8.6623335
86135695570402,0.54496855,0.029981878,8.945739
86135715427555,0.88663155,0.50717163,8.936846
86135735282142,2.1064422,1.5462378,9.293745
86135755139295,2.9044068,1.0884308,10.05893
86135774996576,2.9571004,-0.116339885,10.644131
86135794853729,2.531259,-1.0895357,10.81758
86135814710861,2.82355,-0.25858563,10.543392
86135834573754,4.322576,1.624197,11.881977
86135854431034,5.401286,-0.37943837,13.952271
86135874288314,4.625234,-1.6450446,12.937014
86135894145722,1.8552966,-1.186796,10.78949
86135914003002,-0.61418426,-0.13687989,9.527876
86135933866030,-1.2340139,1.4296358,8.972151
86135953723438,-1.8664454,3.2841794,9.04734
86135973580974,-3.2440484,2.9794526,10.930891
86135993438382,-1.7518852,1.5471594,12.239137
86136013292855,0.9388793,1.2281153,12.018274
86136033160759,1.3427256,2.0188794,11.871088
86136053018423,1.1136943,2.8109572,10.944458
86136072876087,0.6218541,2.444073,9.629815
86136092733751,-0.45273766,1.6947497,9.769627
86136112591415,-0.064161055,0.75941765,9.544201
86136132444593,0.27196592,1.735,8.79361
86136152302129,0.15990554,1.8627925,7.939676
86136172159794,-0.46243042,2.2273135,7.4856734
86136192017459,-1.0852121,2.5905626,7.107321
86136211874993,-1.3426871,2.365403,7.083413
86136231731944,-0.04129244,2.395816,8.594179
86136251589480,0.2559536,-0.7443599,10.678593
86136271447144,0.074176505,-5.6454535,13.123319
86136291304808,0.54787064,-4.16061,12.216398
86136311162345,1.036502,0.39336413,8.944336
86136331019372,0.44116467,1.1276531,7.7965755
86136350876909,0.5030869,2.6809237,8.221176
86136370734446,1.8750162,4.5748124,9.679332
86136390592111,1.631327,2.9388425,11.780017
86136410449648,0.7828405,-1.338605,12.408637
86136430307499,0.048421204,-4.2930007,11.8767605
86136450165036,-1.0178214,-3.9030192,10.771525
86136470022701,0.12577017,-0.4504897,9.108066
86136489880238,1.5519025,3.3475516,8.225664
86136509737775,0.6516382,2.936001,9.180004
86136529591520,1.0208215,3.3914635,9.762856
86136549449185,1.4055488,1.3841982,10.240652
86136569306722,0.49366397,-0.9756844,10.894379
86136589164259,0.8464015,-0.9960153,10.39563
86136609021796,1.0426186,-0.057006598,10.172235
86136628870469,1.302087,1.2665364,9.649659
86136648727878,1.2507032,1.7756349,9.239323
86136668585287,0.9940924,1.4247053,9.426314
86136688442568,0.89245665,0.8598438,9.788461
86136708299977,0.63216746,0.38958955,10.123778
86136728153280,0.39683914,0.27967817,10.17725
86136748010561,0.42348462,0.495338,10.096629
86136767867692,0.80876774,0.868859,9.992105
86136787724973,1.2361219,1.0434113,9.791516
86136807582126,1.4261912,1.1640766,9.802656
86136827433481,1.1186945,1.1203771,9.803341
86136847290631,0.33792505,0.24279319,9.864755
86136867147655,0.22093813,0.036590908,9.969876
86136887004807,0.27282512,0.03442884,10.022588
86136906861959,0.48624262,0.25594333,9.998156
86136926719111,0.53003436,0.41995585,9.932416
86136946577275,0.39754376,0.3690709,9.868502
86136966434299,0.44081378,0.2925493,9.805196
86136986291451,0.5247163,0.23585497,9.809788
86137006148603,0.56195253,0.28625226,9.8162775
86137026005627,0.6044574,0.28508374,9.925336
86137045865016,0.55538213,0.26087195,10.068891
86137065722168,0.38808694,0.18023126,9.986474
86137085579320,0.35410136,0.16546065,9.946219
86137105436472,0.38790584,0.13661239,9.999348
86137125293624,0.42840672,0.11571631,9.947364
86137145135922,0.5967365,0.16106972,9.816726
86137164992818,0.74858236,0.10844656,9.814639
86137184849714,0.69498545,0.029253371,9.700795
86137204706610,0.7562755,-0.013997555,9.703868
86137224563506,0.834127,-0.11922384,9.679676
86137244422956,0.80387384,-0.10140275,9.702196
86137264279852,0.755193,-0.10325976,9.867941
86137284136749,0.7639442,-0.09224705,10.110898
86137303993644,0.50836504,-0.25287512,10.029959
86137323850412,0.32741517,-0.27075708,9.911799
86137343707442,0.2816044,-0.23057221,9.822555
86137363564210,0.38610536,-0.14933611,9.753618
86137383420978,0.6604305,0.014637862,9.720199
86137403277746,0.7426097,0.02040907,9.723536
86137423134643,0.7369892,-0.015246049,9.759528
86137442996494,0.75442004,-0.08843002,9.731669
86137462853391,0.7085555,-0.102082305,9.722777
86137482710160,0.68954134,-0.086097606,9.598272
86137502567057,0.6872932,0.014948444,9.746301
86137522423954,0.59335965,0.04947527,9.78687
86137542285093,0.505268,0.06795486,9.895484
86137562142118,0.47400233,-0.037169255,9.883999
86137581999015,0.5694647,-0.11194386,9.763163
86137601856040,0.66465354,-0.060320783,9.736731
86137621712937,0.73660964,0.04826443,9.744613
86137641577264,0.7979651,0.095461056,9.705965
86137661434417,0.7187047,0.1383268,9.745135
86137681291570,0.573776,0.16229486,9.946246
86137701148723,0.48502132,0.09202505,9.806208
86137721005876,0.5239342,0.12173557,9.674065
86137740867339,0.5700869,0.16647772,9.625354
86137760724620,0.58501667,0.22124086,9.677788
86137780581773,0.6190836,0.18403827,9.792708
86137800439054,0.5895156,0.18510918,9.714571
86137820296207,0.5680562,0.23817463,9.723786
86137840153400,0.62316924,0.1525576,9.76533
86137860010680,0.7038774,0.10799504,9.891526
86137879867832,0.6952912,0.06368556,9.802006
86137899725112,0.64681476,0.10023355,9.684152
86137919582392,0.6436947,0.09129829,9.694931
86137939446773,0.62621474,0.051022258,9.643986
86137959304181,0.66204983,0.04505416,9.656893
86137979161589,0.623611,0.06479702,9.718245
86137999019125,0.6116566,0.102935545,9.850868
86138018873626,0.65098757,0.07468888,9.948483
86138038741207,0.594486,0.078720465,9.874376
86138058598999,0.5202219,0.051961258,9.755675
86138078456663,0.4949296,-0.02346529,9.751533
86138098314327,0.45342007,-0.07062276,9.681352
86138118172119,0.5018945,-0.06728138,9.674494
86138138026638,0.583294,0.015294324,9.694403
86138157884430,0.5749787,0.0038141317,9.871788
86138177742094,0.6083176,-0.069752544,10.02608
86138197599758,0.5939744,-0.13970599,9.900409
86138217457422,0.5891682,-0.13103384,9.834691
86138237318019,0.58427453,-0.10237155,9.795978
86138257175684,0.54728144,-0.06332239,9.689067
86138277033477,0.51491266,-0.051175527,9.575774
86138296891139,0.5218274,-0.03281016,9.557335
86138316748932,0.6452491,-0.048135165,9.772038
86138336600553,0.7474433,-0.09454562,9.976948
86138356458217,0.7722415,-0.08244752,9.97705
86138376315881,0.6771027,-0.111567065,9.853302
86138396173545,0.7182337,1.39215E-4,9.745256
86138416031210,0.72769135,-0.037177898,9.642086
86138435883323,0.70891094,-0.060856465,9.554357
86138455740732,0.6504444,-0.045021314,9.572014
86138475598269,0.61431855,-0.008752513,9.661888
86138495455806,0.5655698,-0.038618807,9.867708
86138515313343,0.5760611,-0.059719354,10.075679
86138535171614,0.54989934,-0.08469115,10.020542
86138555029151,0.53817934,-0.022254962,9.827309
86138574886816,0.4995775,-0.006153674,9.688625
86138594744353,0.461942,-0.024099113,9.640848
86138614601890,0.45310056,-0.0225219,9.632574
86138634451911,0.4367912,-0.07431103,9.658151
86138654309320,0.45485973,-0.05386111,9.762662
86138674166729,0.5567667,-0.073292896,9.95022
86138694024266,0.675716,-0.074672505,10.010716
86138713881675,0.6539144,-0.0745109,9.938382
86138733727666,0.55103284,-0.16067964,9.738671
86138753584691,0.58965564,-0.20189472,9.672219
86138773441844,0.61399806,-0.18634382,9.629074
86138793298869,0.64550024,-0.09955686,9.607799
86138813156004,0.6586951,-0.048469163,9.65888
86138833008945,0.64771247,-0.12747906,9.765981
86138852865969,0.6570869,-0.18277223,9.807025
86138872722993,0.63765055,-0.15450473,9.874489
86138892580017,0.5496328,-0.13553965,9.836409
86138912436913,0.5084936,-0.17370793,9.764991
86138932296735,0.47598037,-0.17742181,9.747728
86138952153759,0.46656632,-0.1664774,9.704624
86138972010783,0.4560228,-0.11190028,9.742054
86138991867807,0.47919858,-0.14479418,9.795921
86139011724831,0.57677424,-0.144851,9.819893
86139031582678,0.53825134,-0.14567456,9.790369
86139051439702,0.53881586,-0.097428165,9.805606
86139071296726,0.5585675,-0.15339632,9.792789
86139091153750,0.5719421,-0.17186095,9.659137
86139111010774,0.5879597,-0.1441381,9.667492
86139130866757,0.60296386,-0.09651785,9.757442
86139150723781,0.64637375,-0.109608784,9.774095
86139170580805,0.62206393,-0.117744066,9.739595
86139190437702,0.5841379,-0.10279668,9.785497
86139210294725,0.55295575,-0.12603341,9.827643
86139230149622,0.5495274,-0.14733267,9.757128
86139250006518,0.4968451,-0.10323652,9.698754
86139269863542,0.45793498,-0.07899091,9.715166
86139289720438,0.4698081,-0.15431026,9.874442
86139309577334,0.45056742,-0.20338367,9.867512
86139329439263,0.43302134,-0.18219647,9.731311
86139349296288,0.42444718,-0.14041261,9.754876
86139369153313,0.47369564,-0.19723968,9.826576
86139389010338,0.4711221,-0.22923325,9.70346
86139408867363,0.47133654,-0.11876551,9.649823
86139428726752,0.4550147,-0.08866295,9.709293
86139448583777,0.51995945,-0.07296261,9.885937
86139468440802,0.5520069,-0.13902429,9.995012
86139488297827,0.5114254,-0.21138737,9.846889
86139508154852,0.5489063,-0.226525,9.711382
86139528021645,0.5738312,-0.22003713,9.735965
86139547878926,0.56897694,-0.20034291,9.598022
86139567736079,0.58857954,-0.12990494,9.614623
86139587593360,0.5760196,-0.16427356,9.704095
86139607450641,0.6190965,-0.24003649,9.868948
86139627307794,0.648361,-0.24264501,9.998866
86139647164971,0.63340074,-0.23318899,9.894872
86139667022252,0.69297177,-0.1862052,9.755106
86139686879533,0.61580604,-0.22876447,9.719975
86139706736814,0.6113784,-0.24308306,9.594544
86139726594095,0.6063294,-0.123624496,9.445402
86139746459702,0.5696455,-0.053465504,9.529647
86139766317239,0.6705831,-0.11930924,9.807985
86139786174626,0.7975132,-0.13622281,10.08229
86139806032035,0.64832973,-0.11726347,10.059142
86139825889570,0.52334934,-0.071439914,9.904008
86139845747624,0.5204253,-0.187278,9.783214
86139865605288,0.54513854,-0.3330082,9.671068
86139885462824,0.5580471,-0.095314026,9.531709
86139905320360,0.5713815,0.12249811,9.516938
86139925177896,0.5927723,-0.11018713,9.707099
86139945041960,0.6217337,-0.25563627,9.884208
86139964899624,0.6553039,-0.16335382,9.95912
86139984757288,0.6916433,-0.051291294,9.965083
86140004615080,0.6296464,-0.05462137,9.882465
86140024472744,0.54416233,-0.14739712,9.768006
86140044335156,0.44635049,-0.15182845,9.606016
86140064192948,0.4631223,-0.058027856,9.573703
86140084050740,0.49287033,-0.023209061,9.664957
86140103908404,0.5713017,-0.11528147,9.80509
86140123766196,0.649235,-0.1551309,9.908396
86140143628066,0.67886347,-0.16473903,9.920649
86140163485986,0.75577855,-0.10388269,9.869102
86140183343906,0.73691934,-0.072974026,9.795485
86140203201826,0.61127234,-0.049640246,9.670868
86140223059747,0.449302,-0.055569038,9.551229
86140242916632,0.45528507,0.0042730123,9.634279
86140262774550,0.5444453,-0.07516201,9.766888
86140282632342,0.60546976,-0.10539629,9.878916
86140302490262,0.5637052,-0.10918287,9.916575
86140322348182,0.61730397,-0.14036584,9.962783
86140342198147,0.61279774,-0.058585994,9.825187
86140362055940,0.5841444,-0.06573735,9.720984
86140381913733,0.4671021,-0.02549152,9.564235
86140401771398,0.399629,-0.014218613,9.523718
86140421629191,0.42288944,0.022166496,9.729841
86140441486824,0.5134731,-0.0074168425,9.962219
86140461344617,0.61357075,-0.024243774,9.995135
86140481202282,0.57943416,-0.025717316,9.907024
86140501060075,0.53061044,-0.0457484,9.828299
86140520917740,0.46439365,-0.12116572,9.754633
86140540773795,0.44030645,-0.10488245,9.718578
86140560631460,0.4291729,-0.034243625,9.582915
86140580489253,0.48339334,0.025793437,9.646512
86140600346918,0.5262162,0.054176442,9.805089
86140620204583,0.6238594,0.04318439,9.870758
86140640047484,0.6207818,-0.005514625,9.857662
86140659904893,0.5715441,-0.10764675,9.885476
86140679762302,0.55695724,-0.101864144,9.907698
86140699619711,0.50732094,-0.064155385,9.746293
86140719477248,0.52782077,0.021951558,9.630212
86140739329463,0.50147694,-0.012862197,9.575768
86140759186744,0.5325418,-0.06359117,9.75754
86140779044025,0.6099208,-0.058605008,9.837758
86140798901434,0.6512653,-0.0041739405,9.868289
86140818758694,0.599624,-0.049785905,9.835417
86140838603505,0.6248137,0.042026073,9.7711315
86140858460529,0.66869086,0.05824956,9.737797
86140878317553,0.5853846,0.004501898,9.69241
86140898174577,0.52801555,0.046615217,9.752143
86140918031473,0.5011641,0.011872472,9.808738
86140937885114,0.5137746,-0.0018583802,9.783263
86140957742010,0.5631456,0.020624503,9.822034
86140977598906,0.5941386,-0.038775947,9.7693405
86140997455803,0.62109756,-0.016334098,9.782347
86141017312698,0.6171562,0.0606803,9.691929
86141037170862,0.565503,0.18452728,9.768284
86141057027631,0.52879024,0.13232286,9.81334
86141076884526,0.5178882,0.14074217,9.848032
86141096741422,0.52397394,0.025457257,9.7828045
86141116598319,0.53190047,0.010825787,9.707191
86141136459067,0.57320386,0.0975738,9.7517605
86141156316091,0.56490237,0.09639425,9.777615
86141176172988,0.5684857,0.10717225,9.721933
86141196030011,0.49941495,0.07420206,9.678858
86141215881968,0.47080064,0.09270416,9.788881
86141235738737,0.4994533,0.02935022,9.893254
86141255595504,0.48590326,0.014871499,9.879612
86141275452272,0.44659102,0.059629414,9.801986
86141295309041,0.40734866,0.0715613,9.768055
86141315165808,0.4231415,0.12693553,9.774816
86141335027190,0.44773299,0.088429555,9.770464
86141354884087,0.45684186,0.0913511,9.669134
86141374740982,0.43734375,0.241559,9.691041
86141394597878,0.4516765,0.2956329,9.8295145
86141414454647,0.551298,0.33058095,9.892103
86141434307665,0.52756196,0.2977799,9.802143
86141454164305,0.49080712,0.26125446,9.686397
86141474021074,0.42860585,0.22237591,9.656008
86141493877713,0.42357856,0.22467828,9.606178
86141513743714,0.436171,0.23962457,9.713245
86141533600611,0.42717808,0.22413751,9.765832
86141553457506,0.52412564,0.23290434,9.878323
86141573314402,0.5430154,0.27033165,9.989967
86141593171427,0.53461283,0.1614767,9.836443
86141613028322,0.48637033,0.21367027,9.69875
86141632886827,0.51338893,0.07751455,9.667191
86141652743852,0.5117598,0.16089487,9.610893
86141672600747,0.47960138,0.15221488,9.657862
86141692457771,0.45218685,0.27828082,9.688107
86141712314796,0.4433266,0.25282308,9.803648
86141732181620,0.53546745,0.21378586,9.921592
86141752038900,0.57310164,0.15947081,9.96
86141771896053,0.5521341,0.11273128,9.880258
86141791753332,0.50070924,0.19090113,9.734142
86141811617292,0.44453162,0.22860682,9.625852
