UPTIMENANO,Ax,Ay,Az
68881133192006,-1.1472143999999997,10.013577,-1.0178833
68881153040886,-1.1160791,9.987232,-1.0466236
68881172896630,-1.101709,9.951306,-1.0274634
68881192752374,-1.1256591999999999,9.956097,-0.9532178
68881212608118,-1.1352394,9.953702,-0.9484278
68881232463734,-1.1208692,9.953702,-0.9867481
68881252319478,-1.1088941,9.922566,-1.0178833
68881272168101,-1.1041040000000002,9.8938265,-1.0106983
68881292023717,-1.1376343,9.922566,-0.97956306
68881311879205,-1.1496094,9.889036,-0.9412427
68881331734821,-1.1448194,9.855506,-0.9532178
68881351590309,-1.1496094,9.812395,-1.0490186000000001
68881371433368,-1.094524,9.850716,-1.0514137
68881391288600,-1.0681788,9.889036,-0.97237796
68881411143832,-1.1208692,9.869876,-0.91729254
68881430999192,-1.1639795,9.850716,-0.95561284
68881450854424,-1.1256591999999999,9.829161000000001,-0.94603276
68881470701322,-1.0825489,9.77647,-0.97956306
68881490556426,-1.0562036,9.740545,-0.9699829
68881510411402,-1.0657837,9.745335,-1.0011181999999998
68881530266506,-1.1041040000000002,9.72378,-1.0011181999999998
68881550121610,-1.1088941,9.733359,-0.9508228000000001
68881569976695,-1.0849438999999999,9.707015,-0.9436377
68881589831799,-1.0585986,9.726174,-0.977168
68881609686775,-1.0322535,9.72378,-0.98435307
68881629541879,-1.0514137,9.704619000000001,-0.9388476999999998
68881649396855,-1.0849438999999999,9.690249,-0.9436377
68881669250409,-1.0801538,9.697434,-0.97956306
68881689105257,-1.0514137,9.7142,-1.0011181999999998
68881708960233,-1.0538087,9.726174,-0.95561284
68881728815210,-1.0921290000000001,9.683064,-0.9484278
68881748670185,-1.1256591999999999,9.64714,-0.9699829
68881768529232,-1.1304493,9.702225,-1.0083033000000001
68881788384208,-1.096919,9.72857,-0.97956306
68881808239185,-1.0681788,9.695039999999999,-0.9244776
68881828094162,-1.0753639,9.697434,-0.91250247
68881847949136,-1.0657837,9.793235000000001,-0.90052736
68881867803141,-1.099314,9.80521,-0.8813671999999999
68881887658245,-1.1184741000000002,9.74773,-0.90771246
68881907513221,-1.0538087,9.625584,-0.8933423
68881927355144,-0.9867481,9.592053,-0.9364527
68881947210121,-1.0059083,9.632769,-0.98435307
68881967063738,-1.0442286,9.7621,-0.95561284
68881986918587,-1.0801538,9.812395,-0.85023195
68882006773564,-1.0562036,9.649534,-0.86220706
68882026628413,-1.0514137,9.580078,-0.9532178
68882046483390,-1.0585986,9.536968,-0.9412427
68882066341213,-1.0394385,9.5561285,-0.8765772
68882086196190,-1.0418334999999999,9.620794,-0.8478370000000001
68882106051039,-1.0466236,9.639954,-0.8885523000000001
68882125906016,-1.0250684,9.654325,-0.9268726
68882145760993,-1.0106983,9.678274,-0.8813671999999999
68882165624086,-1.0130934,9.730965,-0.8478370000000001
68882185479191,-1.0250684,9.7812605,-0.85741705
68882205334296,-1.0202783000000002,9.730965,-0.8334668
68882225189529,-1.0346485,9.726174,-0.8430469
68882245044634,-1.0705738,9.74773,-0.8646021
68882264908033,-1.0657837,9.726174,-0.87178713
68882284763394,-1.0538087,9.659114,-0.8933423
68882304618627,-1.0753639,9.625584,-0.90771246
68882324473988,-1.0633887,9.613608000000001,-0.89573735
68882344329221,-1.0514137,9.582474000000001,-0.855022
68882364184604,-1.0298585,9.572892999999999,-0.8933423
68882384039965,-1.0130934,9.659114,-0.91729254
68882403895305,-1.0083033000000001,9.6615095,-0.8813671999999999
68882423750794,-1.0585986,9.632769,-0.8885523000000001
68882443606155,-1.099314,9.64714,-0.8669971
68882463465306,-1.0370435,9.692644,-0.8382569
68882483320795,-1.0059083,9.721385,-0.83586186
68882503176284,-1.0274634,9.72378,-0.89573735
68882523031773,-1.0633887,9.718989,-0.86220706
68882542887262,-1.0490186000000001,9.7621,-0.8334668
68882562751277,-1.0681788,9.78605,-0.852627
68882582606894,-1.0370435,9.692644,-0.93405765
68882602462511,-1.0490186000000001,9.663903999999999,-0.95561284
68882622318128,-1.0705738,9.630374,-0.9412427
68882642173745,-1.099314,9.599238,-0.91250247
68882662032110,-1.1184741000000002,9.582474000000001,-0.87418216
68882681887855,-1.0753639,9.565708,-0.94603276
68882701743600,-1.0346485,9.584868,-1.0059083
68882721599345,-1.0250684,9.630374,-0.9484278
68882741455090,-1.0274634,9.618399,-0.87897223
68882761311695,-1.0585986,9.642349000000001,-0.8167017
68882781167568,-1.0562036,9.649534,-0.80233157
68882801023313,-1.0729688,9.702225,-0.8214916999999999
68882820879186,-1.089734,9.750125,-0.81191164
68882840735059,-1.0562036,9.726174,-0.8382569
68882860590804,-1.0657837,9.750125,-0.852627
68882880449086,-1.0514137,9.766891000000001,-0.85023195
68882900304959,-1.0370435,9.685459,-0.855022
68882920160832,-1.0585986,9.730965,-0.852627
68882940016833,-1.0609937,9.704619000000001,-0.91010743
68882959872706,-1.0705738,9.637559,-0.977168
68882979723415,-1.1041040000000002,9.613608000000001,-0.977168
68882999579160,-1.096919,9.599238,-0.9580079
68883019434905,-1.0633887,9.623189,-0.9268726
68883039290650,-1.0538087,9.635164,-0.86939216
68883059146523,-1.0562036,9.606423,-0.8813671999999999
68883078996764,-1.0370435,9.596844,-0.9532178
68883098852381,-1.0370435,9.635164,-0.9364527
68883118708126,-1.0801538,9.692644,-0.91250247
68883138563743,-1.1136841999999998,9.711803999999999,-0.852627
68883158419360,-1.1496094,9.7142,-0.81909674
68883178272099,-1.1591895,9.702225,-0.8382569
68883198127716,-1.0921290000000001,9.671089,-0.8885523000000001
68883217983333,-1.0801538,9.699829,-0.9627979
68883237838950,-1.0801538,9.699829,-0.95561284
68883257694567,-1.089734,9.697434,-0.8885523000000001
68883277548324,-1.0825489,9.6686945,-0.852627
68883297403941,-1.0729688,9.659114,-0.91010743
68883317259430,-1.094524,9.649534,-0.96040285
68883337115047,-1.0777588,9.623189,-0.9388476999999998
68883356970514,-1.0921290000000001,9.589659,-0.90771246
68883376823779,-1.1328443000000001,9.570497999999999,-0.9651929
68883396679396,-1.1088941,9.596844,-0.9699829
68883416534885,-1.0562036,9.685459,-0.9196875
68883436390502,-1.0514137,9.666299,-0.92208254
68883456245991,-1.0849438999999999,9.644744000000001,-0.95561284
68883476101138,-1.1208692,9.687855,-0.9627979
68883495956627,-1.101709,9.637559,-0.96040285
68883515812116,-1.1496094,9.620794,-0.9364527
68883535667605,-1.1855347,9.632769,-0.9148975
68883555523094,-1.094524,9.632769,-0.9436377
68883575377797,-1.0418334999999999,9.702225,-0.98435307
68883595233286,-1.0753639,9.72857,-0.98914313
68883615088647,-1.1088941,9.716595,-0.9580079
68883634944136,-1.1400293,9.730965,-0.91729254
68883654799497,-1.1064991000000002,9.70941,-0.92208254
68883674653108,-1.0681788,9.673484,-0.9699829
68883694508597,-1.0873389,9.666299,-0.977168
68883714363958,-1.1472143999999997,9.627979,-0.9699829
68883734219319,-1.1759547,9.587264,-0.9412427
68883754074680,-1.1328443000000001,9.613608000000001,-0.92926764
68883773926951,-1.0538087,9.613608000000001,-0.9915381
68883793782312,-1.0346485,9.623189,-1.0130934
68883813637673,-1.0825489,9.630374,-0.98914313
68883833492886,-1.1496094,9.651928999999999,-0.9412427
68883853348247,-1.1448194,9.671089,-0.8885523000000001
68883873202176,-1.1136841999999998,9.671089,-0.91250247
68883893057409,-1.089734,9.68067,-0.974773
68883912912770,-1.0921290000000001,9.673484,-0.99393314
68883932768131,-1.094524,9.656719,-0.93405765
68883952623364,-1.089734,9.690249,-0.91729254
68883972472361,-1.0657837,9.699829,-0.9268726
68883992327466,-1.0609937,9.678274,-0.98195803
68884012182571,-1.0873389,9.6615095,-0.9651929
68884032037676,-1.1232642,9.685459,-0.91250247
68884051892781,-1.1208692,9.6686945,-0.90052736
68884071756114,-1.1520045,9.637559,-0.9508228000000001
68884091611347,-1.1256591999999999,9.596844,-0.977168
68884111466580,-1.0633887,9.613608000000001,-0.97956306
68884131321813,-1.0753639,9.632769,-0.93405765
68884151177046,-1.1041040000000002,9.618399,-0.8669971
68884171033475,-1.1496094,9.651928999999999,-0.8765772
68884190888836,-1.1256591999999999,9.654325,-0.91250247
68884210744197,-1.0585986,9.659114,-0.9532178
68884230599558,-1.0538087,9.6686945,-0.96758795
68884250454791,-1.0514137,9.644744000000001,-0.9388476999999998
68884270315954,-1.1112891000000003,9.6758795,-0.8981324
68884290171315,-1.1639795,9.690249,-0.8933423
68884310026783,-1.1088941,9.64714,-0.9484278
68884329882144,-1.1088941,9.663903999999999,-0.98195803
68884349737633,-1.0849438999999999,9.627979,-0.98914313
68884369596146,-1.101709,9.639954,-0.95561284
68884389451635,-1.1376343,9.64714,-0.91250247
68884409307124,-1.1615845,9.639954,-0.92208254
68884429162613,-1.1352394,9.663903999999999,-0.9532178
68884449022506,-1.099314,9.692644,-0.974773
68884468878123,-1.094524,9.697434,-0.98435307
68884488733740,-1.1160791,9.699829,-0.96040285
68884508589357,-1.1256591999999999,9.625584,-0.94603276
68884528444974,-1.1304493,9.6686945,-0.99393314
68884548300591,-1.1448194,9.699829,-0.98914313
68884568156824,-1.094524,9.64714,-0.9699829
68884588012569,-1.1280543,9.611214,-0.9532178
68884607868186,-1.1472143999999997,9.642349000000001,-0.97237796
68884627723803,-1.1112891000000003,9.644744000000001,-0.974773
68884647579548,-1.1328443000000001,9.663903999999999,-1.0106983
68884667441285,-1.094524,9.582474000000001,-1.0298585
68884687297030,-1.0538087,9.553733,-1.0346485
68884707152775,-1.0825489,9.553733,-0.98435307
68884727008520,-1.1615845,9.587264,-0.9867481
68884746864393,-1.1903248,9.608819,-0.9580079
68884766720138,-1.1472143999999997,9.618399,-0.9196875
68884786580383,-1.1160791,9.673484,-0.95561284
68884806436256,-1.0801538,9.707015,-0.9963281999999999
68884826292129,-1.0681788,9.72857,-1.0226734
68884846148002,-1.1184741000000002,9.711803999999999,-1.0035132
68884866005065,-1.1496094,9.726174,-0.95561284
68884885860938,-1.1591895,9.740545,-0.9388476999999998
68884905716939,-1.1711646,9.716595,-0.97956306
68884925572812,-1.1711646,9.685459,-0.99393314
68884945428685,-1.1400293,9.659114,-0.97956306
68884965275006,-1.101709,9.616004,-0.9987232
68884985130751,-1.1112891000000003,9.627979,-1.0226734
68885004986496,-1.1160791,9.582474000000001,-1.0274634
68885024842241,-1.1280543,9.568104,-1.0011181999999998
68885044697986,-1.1472143999999997,9.592053,-0.9436377
68885064553731,-1.1280543,9.596844,-0.9580079
68885084400876,-1.1400293,9.618399,-1.0178833
68885104256493,-1.1376343,9.673484,-1.0370435
68885124112110,-1.1136841999999998,9.704619000000001,-0.97956306
68885143967727,-1.1184741000000002,9.699829,-0.90771246
68885163815060,-1.1352394,9.72378,-0.974773
68885183670549,-1.1567944,9.726174,-1.0226734
68885203526038,-1.1975098,9.666299,-0.9963281999999999
68885223381399,-1.1879296999999998,9.630374,-0.98435307
68885243236888,-1.1352394,9.654325,-0.97956306
68885263081513,-1.0705738,9.678274,-0.9867481
68885282936746,-1.0490186000000001,9.64714,-1.0011181999999998
68885302791979,-1.0849438999999999,9.608819,-0.98195803
68885322647212,-1.1088941,9.606423,-0.9436377
68885342502573,-1.1136841999999998,9.630374,-0.974773
68885362357806,-1.101709,9.64714,-1.0226734
68885382206103,-1.1304493,9.654325,-0.9915381
68885402061080,-1.1663746000000002,9.632769,-0.9388476999999998
68885421916185,-1.1759547,9.630374,-0.9484278
68885441771290,-1.1424243,9.6615095,-0.99393314
68885461621635,-1.1064991000000002,9.654325,-1.0322535
68885481476484,-1.1376343,9.671089,-1.0202783000000002
68885501331461,-1.1759547,9.671089,-0.9508228000000001
68885521186310,-1.1759547,9.687855,-0.9580079
68885541041159,-1.1831397,9.695039999999999,-0.96758795
68885560896136,-1.1232642,9.656719,-0.974773
68885580743603,-1.1304493,9.649534,-0.98195803
68885600598196,-1.1232642,9.630374,-0.94603276
68885620452917,-1.1232642,9.616004,-0.9436377
68885640307510,-1.1567944,9.642349000000001,-0.9388476999999998
68885660162231,-1.1424243,9.630374,-0.977168
68885680024480,-1.1256591999999999,9.671089,-0.97956306
68885699879201,-1.1112891000000003,9.6686945,-0.94603276
68885719734050,-1.1304493,9.639954,-0.96758795
68885739588877,-1.1520045,9.692644,-0.9627979
68885759444982,-1.1400293,9.6615095,-0.9316626
68885779299703,-1.1879296999999998,9.620794,-0.9580079
68885799154552,-1.1951148999999999,9.618399,-0.9484278
68885819009273,-1.1136841999999998,9.642349000000001,-0.9412427
68885838863994,-1.0729688,9.6615095,-0.9484278
68885858718715,-1.0849438999999999,9.68067,-0.9580079
68885878576288,-1.1208692,9.68067,-0.9388476999999998
68885898431009,-1.1280543,9.671089,-0.8813671999999999
68885918285858,-1.1041040000000002,9.644744000000001,-0.9053174
68885938140579,-1.1041040000000002,9.656719,-0.97956306
68885957995428,-1.1400293,9.651928999999999,-0.99393314
68885977853057,-1.1759547,9.6686945,-0.95561284
68885997707906,-1.1615845,9.644744000000001,-0.92926764
68886017562755,-1.096919,9.651928999999999,-0.9987232
68886037417604,-1.0873389,9.6686945,-1.0418334999999999
68886057278495,-1.1064991000000002,9.644744000000001,-1.0106983
68886077133472,-1.1543995,9.639954,-0.89573735
68886096988449,-1.1591895,9.632769,-0.86220706
68886116843298,-1.1256591999999999,9.642349000000001,-0.974773
68886136698275,-1.1112891000000003,9.623189,-1.0514137
68886156553252,-1.0849438999999999,9.625584,-1.0322535
68886176414715,-1.1352394,9.637559,-0.93405765
68886196269820,-1.1543995,9.68067,-0.90771246
68886216124774,-1.1208692,9.692644,-0.9963281999999999
68886235979879,-1.1160791,9.692644,-1.0370435
68886255834984,-1.1328443000000001,9.704619000000001,-0.9699829
68886275701453,-1.1376343,9.692644,-0.9148975
68886295556814,-1.1232642,9.637559,-0.9484278
68886315412175,-1.1088941,9.630374,-1.0322535
68886335267536,-1.096919,9.654325,-1.0202783000000002
68886355122897,-1.1232642,9.64714,-0.9699829
68886374978258,-1.1591895,9.601633999999999,-0.92208254
68886394844171,-1.1256591999999999,9.630374,-0.8933423
68886414699916,-1.0849438999999999,9.654325,-0.9364527
68886434555533,-1.0562036,9.6615095,-0.974773
68886454411278,-1.1041040000000002,9.654325,-0.9244776
68886474271131,-1.1208692,9.663903999999999,-0.93405765
68886494127004,-1.096919,9.656719,-0.9196875
68886513982877,-1.1208692,9.678274,-0.94603276
68886533838750,-1.1280543,9.6686945,-0.9532178
68886553694623,-1.1208692,9.654325,-0.9412427
68886573547846,-1.1232642,9.644744000000001,-0.96040285
68886593403719,-1.1112891000000003,9.6615095,-1.0011181999999998
68886613259592,-1.1088941,9.690249,-1.0178833
68886633115465,-1.1160791,9.687855,-0.9508228000000001
68886652971338,-1.1184741000000002,9.690249,-0.9699829
68886672827211,-1.1064991000000002,9.649534,-0.9484278
68886692689102,-1.1280543,9.651928999999999,-0.94603276
68886712545103,-1.1280543,9.651928999999999,-0.9316626
68886732401104,-1.0849438999999999,9.644744000000001,-0.95561284
68886752257105,-1.0873389,9.639954,-0.96758795
68886772118568,-1.0609937,9.635164,-0.9915381
68886791974697,-1.0585986,9.659114,-0.96758795
68886811830698,-1.0633887,9.654325,-0.91010743
68886831686827,-1.089734,9.642349000000001,-0.9316626
68886851542956,-1.1160791,9.673484,-0.97956306
68886871392447,-1.0825489,9.666299,-0.98435307
68886891248448,-1.0681788,9.6686945,-0.98435307
68886911104321,-1.1064991000000002,9.64714,-0.974773
68886930960322,-1.1280543,9.6758795,-1.0154883
68886950816323,-1.1496094,9.613608000000001,-0.9915381
68886970672196,-1.1352394,9.601633999999999,-0.9963281999999999
68886990513953,-1.101709,9.623189,-0.97237796
68887010369570,-1.0394385,9.666299,-0.9508228000000001
68887030225315,-1.0322535,9.671089,-0.9436377
68887050080932,-1.099314,9.697434,-0.95561284
68887069923579,-1.1256591999999999,9.68067,-0.9508228000000001
68887089779068,-1.1352394,9.6615095,-0.9580079
68887109634429,-1.1136841999999998,9.695039999999999,-0.9915381
68887129489918,-1.0825489,9.6615095,-0.99393314
68887149345279,-1.1424243,9.649534,-0.9915381
68887169200747,-1.1735597,9.632769,-0.9987232
68887189054212,-1.1496094,9.6615095,-1.0370435
68887208909445,-1.1184741000000002,9.697434,-1.0106983
68887228764806,-1.0777588,9.685459,-1.0035132
68887248620167,-1.1352394,9.608819,-1.0154883
68887268475400,-1.1591895,9.604028999999999,-0.9867481
68887288326947,-1.1543995,9.639954,-0.9196875
68887308182180,-1.1136841999999998,9.726174,-0.9148975
68887328037413,-1.096919,9.687855,-0.97237796
68887347892646,-1.1208692,9.601633999999999,-1.0370435
68887367743101,-1.1520045,9.505833,-1.0035132
68887387598334,-1.1256591999999999,9.515413,-0.9532178
68887407453439,-1.1424243,9.572892999999999,-0.96040285
68887427308544,-1.1400293,9.599238,-1.0059083
68887447163649,-1.1352394,9.654325,-1.0394385
68887467018754,-1.1304493,9.735755000000001,-0.97237796
68887486874463,-1.1496094,9.77168,-0.92208254
68887506729440,-1.1520045,9.807606,-0.9532178
68887526584545,-1.1448194,9.769285,-0.9627979
68887546439650,-1.1807446000000001,9.707015,-0.96758795
68887566294755,-1.214275,9.683064,-0.974773
68887586142596,-1.1615845,9.637559,-1.0298585
68887605997445,-1.1160791,9.616004,-1.0442286
68887625852294,-1.1328443000000001,9.587264,-0.98914313
68887645707248,-1.1256591999999999,9.565708,-0.98435307
68887665565645,-1.1424243,9.544153,-0.98435307
68887685420622,-1.1328443000000001,9.596844,-1.0083033000000001
68887705275471,-1.1328443000000001,9.659114,-0.98914313
68887725130448,-1.1543995,9.6615095,-0.92208254
68887744985297,-1.1831397,9.656719,-0.91010743
68887764840274,-1.1807446000000001,9.699829,-0.9436377
68887784701809,-1.1304493,9.704619000000001,-0.9915381
68887804556914,-1.1376343,9.721385,-0.98914313
68887824411891,-1.1735597,9.72378,-0.9436377
68887844266996,-1.1807446000000001,9.68067,-0.9627979
68887864121973,-1.1879296999999998,9.6686945,-0.9651929
68887883976380,-1.1472143999999997,9.663903999999999,-0.98914313
68887903831485,-1.1615845,9.623189,-1.0083033000000001
68887923686462,-1.1615845,9.601633999999999,-0.97237796
68887943541439,-1.1424243,9.608819,-0.95561284
68887963396544,-1.1472143999999997,9.608819,-0.977168
68887983251521,-1.1352394,9.613608000000001,-1.0154883
68888003112520,-1.1304493,9.613608000000001,-0.99393314
68888022967625,-1.1496094,9.663903999999999,-0.98195803
68888042822858,-1.1951148999999999,9.666299,-0.95561284
68888062677963,-1.1951148999999999,9.651928999999999,-0.95561284
68888082531222,-1.1735597,9.702225,-0.95561284
68888102386327,-1.1591895,9.726174,-0.9987232
68888122241412,-1.1663746000000002,9.654325,-0.97956306
68888142096517,-1.1855347,9.606423,-1.0322535
68888161951622,-1.1424243,9.604028999999999,-1.0154883
68888181808739,-1.099314,9.6758795,-0.97956306
68888201663844,-1.1400293,9.68067,-0.9508228000000001
68888221518949,-1.1759547,9.644744000000001,-0.9388476999999998
68888241374054,-1.1663746000000002,9.644744000000001,-0.9316626
68888261229159,-1.1615845,9.64714,-0.9651929
68888281084264,-1.1376343,9.642349000000001,-1.0011181999999998
68888300947897,-1.1687696,9.639954,-1.0250684
68888320803258,-1.1975098,9.623189,-0.98195803
68888340658619,-1.2046948999999998,9.635164,-0.95561284
68888360513980,-1.2094848999999999,9.654325,-0.98435307
68888380375753,-1.1639795,9.6615095,-1.0011181999999998
68888400231370,-1.1735597,9.68067,-0.99393314
68888420086987,-1.1735597,9.6686945,-0.9627979
68888439942476,-1.1615845,9.644744000000001,-0.95561284
68888459798093,-1.1472143999999997,9.654325,-0.98435307
68888479653710,-1.1496094,9.608819,-1.0202783000000002
68888499510583,-1.1615845,9.613608000000001,-1.0322535
68888519366200,-1.1543995,9.632769,-0.97237796
68888539221817,-1.1543995,9.637559,-0.9508228000000001
68888559077562,-1.1615845,9.651928999999999,-0.9627979
68888578933179,-1.1448194,9.663903999999999,-1.0130934
68888598783552,-1.1352394,9.649534,-1.0274634
68888618639169,-1.1496094,9.699829,-0.974773
68888638494658,-1.1448194,9.673484,-0.9532178
68888658350147,-1.1567944,9.632769,-0.977168
68888678197396,-1.1687696,9.687855,-1.0178833
68888698052629,-1.1735597,9.683064,-1.0011181999999998
68888717907990,-1.1951148999999999,9.637559,-0.97237796
68888737763351,-1.1735597,9.601633999999999,-0.9316626
68888757618584,-1.1232642,9.613608000000001,-0.94603276
68888777473945,-1.0849438999999999,9.64714,-0.96758795
68888797334074,-1.0705738,9.64714,-1.0178833
68888817189563,-1.1352394,9.6615095,-1.0035132
68888837045052,-1.1855347,9.663903999999999,-0.96040285
68888856900413,-1.1496094,9.654325,-0.94603276
68888876755902,-1.1328443000000001,9.654325,-0.9867481
68888896611287,-1.1615845,9.630374,-1.0250684
68888916466776,-1.1639795,9.616004,-1.0226734
68888936322265,-1.1591895,9.625584,-0.99393314
68888956177626,-1.1543995,9.635164,-1.0130934
68888976033115,-1.1424243,9.656719,-0.9915381
68888995888476,-1.1639795,9.673484,-0.98914313
68889015740083,-1.1831397,9.632769,-0.9580079
68889035595444,-1.1543995,9.656719,-0.96040285
68889055450805,-1.1352394,9.663903999999999,-0.96758795
68889075306144,-1.1376343,9.64714,-1.0274634
68889095150333,-1.1400293,9.632769,-1.0346485
68889115005438,-1.1376343,9.616004,-1.0130934
68889134860543,-1.1280543,9.637559,-1.0011181999999998
68889154715648,-1.1567944,9.6758795,-1.0106983
68889174570753,-1.1759547,9.654325,-1.0394385
68889194420634,-1.1711646,9.663903999999999,-1.0178833
68889214275611,-1.1687696,9.695039999999999,-0.9580079
68889234130588,-1.1663746000000002,9.649534,-0.9580079
68889253985565,-1.1352394,9.608819,-1.0226734
68889273840542,-1.1112891000000003,9.642349000000001,-1.0490186000000001
68889293695391,-1.1208692,9.627979,-1.0298585
68889313552832,-1.1831397,9.606423,-0.98435307
68889333407809,-1.1855347,9.596844,-0.974773
68889353262786,-1.1160791,9.639954,-0.9651929
68889373117763,-1.096919,9.685459,-0.97237796
68889392970784,-1.1304493,9.673484,-1.0011181999999998
68889412825761,-1.1591895,9.697434,-0.9963281999999999
68889432680738,-1.1615845,9.699829,-0.9508228000000001
68889452535715,-1.1328443000000001,9.692644,-0.9699829
68889472390692,-1.1352394,9.659114,-1.0083033000000001
68889492243333,-1.1280543,9.623189,-1.0226734
68889512098310,-1.1376343,9.625584,-1.0154883
68889531953159,-1.1400293,9.637559,-0.9867481
68889551807986,-1.1136841999999998,9.601633999999999,-1.0011181999999998
68889571662835,-1.1280543,9.599238,-1.0633887
68889591517812,-1.1496094,9.623189,-1.0514137
68889611371961,-1.1711646,9.644744000000001,-1.0035132
68889631226810,-1.1831397,9.649534,-1.0011181999999998
68889651081659,-1.1855347,9.639954,-1.0130934
68889670936508,-1.1807446000000001,9.663903999999999,-1.0849438999999999
68889690794703,-1.1663746000000002,9.656719,-1.0753639
68889710649680,-1.1759547,9.663903999999999,-1.0562036
68889730504529,-1.2094848999999999,9.654325,-1.0083033000000001
68889750359378,-1.1975098,9.642349000000001,-1.0154883
68889770214355,-1.1855347,9.635164,-0.98195803
68889790069204,-1.1208692,9.64714,-0.98435307
68889809932417,-1.0825489,9.639954,-1.0202783000000002
68889829787394,-1.0633887,9.627979,-1.0274634
68889849642499,-1.1136841999999998,9.678274,-0.9867481
68889869497476,-1.1400293,9.759705,-0.91250247
68889889352581,-1.1807446000000001,9.742939999999999,-0.8933423
68889909205674,-1.219065,9.644744000000001,-0.9244776
68889929060651,-1.22146,9.572892999999999,-0.9484278
68889948915756,-1.1543995,9.604028999999999,-0.96758795
68889968770733,-1.1472143999999997,9.651928999999999,-0.9436377
68889988629298,-1.1975098,9.6686945,-0.9627979
68890008484403,-1.2118799999999998,9.611214,-1.0035132
68890028339488,-1.2046948999999998,9.577683,-0.974773
68890048194593,-1.1448194,9.613608000000001,-0.9867481
68890068049698,-1.1064991000000002,9.644744000000001,-1.0130934
68890087904803,-1.1352394,9.656719,-1.0154883
68890107762418,-1.2022998,9.639954,-1.0106983
68890127617651,-1.1879296999999998,9.632769,-1.0130934
68890147472884,-1.1400293,9.695039999999999,-1.0059083
68890167327989,-1.096919,9.72857,-1.0562036
68890187183222,-1.1160791,9.685459,-1.0585986
68890207040973,-1.1711646,9.635164,-1.0226734
68890226896206,-1.1999048,9.654325,-0.9963281999999999
68890246751439,-1.2070899,9.654325,-0.98914313
68890266606672,-1.1831397,9.625584,-0.98435307
68890286463477,-1.1639795,9.599238,-0.98914313
68890306318838,-1.1615845,9.584868,-0.9484278
68890326174071,-1.1615845,9.627979,-0.9316626
68890346029304,-1.1448194,9.6686945,-0.93405765
68890365884537,-1.1520045,9.673484,-0.91250247
68890385739770,-1.1328443000000001,9.673484,-0.87178713
68890405599123,-1.1184741000000002,9.666299,-0.8765772
68890425454612,-1.1232642,9.6686945,-0.9532178
68890445309973,-1.1328443000000001,9.7142,-0.97237796
68890465165334,-1.1304493,9.726174,-0.89573735
68890485020695,-1.1807446000000001,9.699829,-0.86220706
68890504878215,-1.2358301999999999,9.642349000000001,-0.89573735
68890524733704,-1.1472143999999997,9.623189,-0.92208254
68890544589193,-1.0562036,9.671089,-0.91729254
68890564444682,-1.0466236,9.64714,-0.9029224
68890584300171,-1.101709,9.587264,-0.91250247
68890604155660,-1.1376343,9.587264,-0.9029224
68890624008253,-1.1400293,9.630374,-0.8933423
68890643863742,-1.1208692,9.656719,-0.8861573
68890663719231,-1.1352394,9.654325,-0.90052736
68890683574720,-1.1567944,9.656719,-0.9244776
68890703423065,-1.1807446000000001,9.711803999999999,-0.92208254
68890723278426,-1.1567944,9.72857,-0.8933423
68890743133659,-1.1328443000000001,9.75252,-0.89573735
68890762988892,-1.1376343,9.685459,-0.9316626
68890782844253,-1.1448194,9.654325,-0.9699829
68890802700284,-1.1639795,9.632769,-0.91729254
68890822555517,-1.1543995,9.599238,-0.9053174
68890842410878,-1.1472143999999997,9.587264,-0.9196875
68890862266111,-1.1352394,9.568104,-0.94603276
68890882121472,-1.1184741000000002,9.604028999999999,-0.974773
68890901976705,-1.1472143999999997,9.654325,-0.9268726
68890921833506,-1.1615845,9.659114,-0.8646021
68890941688867,-1.1735597,9.649534,-0.8669971
68890961544228,-1.1639795,9.685459,-0.91250247
68890981399567,-1.1184741000000002,9.711803999999999,-0.9244776
68891001245102,-1.1376343,9.711803999999999,-0.9029224
68891021100207,-1.1759547,9.759705,-0.83586186
68891040955440,-1.22625,9.826766000000001,-0.8143066999999999
68891060810545,-1.2310401000000002,9.77647,-0.8382569
68891080665650,-1.219065,9.7142,-0.9029224
68891100513367,-1.1855347,9.623189,-0.9244776
68891120368344,-1.1184741000000002,9.577683,-0.88376224
68891140223193,-1.0873389,9.544153,-0.86939216
68891160078170,-1.1136841999999998,9.491463000000001,-0.90771246
68891179933147,-1.1400293,9.522598,-0.97956306
68891199788124,-1.1136841999999998,9.599238,-0.9412427
68891219642163,-1.099314,9.644744000000001,-0.86220706
68891239497140,-1.1448194,9.683064,-0.8598120000000001
68891259351989,-1.2094848999999999,9.72378,-0.87897223
68891279206838,-1.2597803,9.793235000000001,-0.85741705
68891299061507,-1.2525953,9.764495,-0.8214916999999999
68891318916356,-1.219065,9.72378,-0.8214916999999999
68891338771205,-1.1951148999999999,9.7142,-0.87418216
68891358626054,-1.1400293,9.692644,-0.9244776
68891378480903,-1.1112891000000003,9.642349000000001,-0.9484278
68891398335752,-1.1520045,9.606423,-0.9053174
68891418195283,-1.1759547,9.575289,-0.852627
68891438050388,-1.1879296999999998,9.572892999999999,-0.8262818000000001
68891457905345,-1.1999048,9.584868,-0.86939216
68891477760322,-1.1639795,9.601633999999999,-0.87418216
68891497615299,-1.1496094,9.620794,-0.87178713
68891517469594,-1.1567944,9.637559,-0.87897223
68891537324571,-1.1615845,9.6686945,-0.93405765
68891557179420,-1.1639795,9.718989,-0.9508228000000001
68891577034397,-1.1855347,9.72857,-0.9029224
68891596891190,-1.2118799999999998,9.687855,-0.87178713
68891616746167,-1.2454101999999998,9.72857,-0.92208254
68891636601144,-1.22625,9.697434,-0.9388476999999998
68891656456121,-1.223855,9.6686945,-0.98195803
68891676311098,-1.1975098,9.632769,-0.977168
68891696165947,-1.1472143999999997,9.630374,-0.9627979
68891716020248,-1.1352394,9.604028999999999,-0.9699829
68891735875225,-1.1687696,9.618399,-0.97956306
68891755730202,-1.2070899,9.587264,-0.94603276
68891775585051,-1.1951148999999999,9.608819,-0.8885523000000001
68891795440028,-1.1639795,9.613608000000001,-0.9148975
68891815303289,-1.1256591999999999,9.637559,-0.9699829
68891835158394,-1.1136841999999998,9.666299,-0.99393314
68891855013499,-1.1400293,9.673484,-0.98435307
68891874868604,-1.1807446000000001,9.687855,-0.9388476999999998
68891894725655,-1.1951148999999999,9.683064,-0.92208254
68891914580760,-1.1975098,9.678274,-0.99393314
68891934435971,-1.1999048,9.685459,-1.0202783000000002
68891954291076,-1.1855347,9.654325,-0.98195803
68891974146309,-1.1927198,9.656719,-0.9508228000000001
68891994001414,-1.1903248,9.642349000000001,-0.9532178
68892013859103,-1.1496094,9.613608000000001,-0.98195803
68892033714336,-1.1280543,9.613608000000001,-0.9987232
68892053569569,-1.1256591999999999,9.620794,-1.0250684
68892073424930,-1.1807446000000001,9.625584,-0.9987232
68892093280163,-1.2118799999999998,9.651928999999999,-0.96040285
68892113128720,-1.22146,9.6686945,-0.9699829
68892132983825,-1.1759547,9.6758795,-0.9987232
68892152839058,-1.1567944,9.632769,-1.0154883
68892172694163,-1.1735597,9.642349000000001,-1.0394385
68892192549268,-1.1975098,9.671089,-1.0562036
68892212404501,-1.223855,9.659114,-1.0178833
68892232260376,-1.2573853000000002,9.637559,-1.0178833
68892252115609,-1.2046948999999998,9.635164,-0.9987232
68892271970714,-1.1472143999999997,9.666299,-1.0202783000000002
68892291825819,-1.1352394,9.6615095,-1.0442286
68892311684154,-1.1783496,9.656719,-1.0298585
68892331539387,-1.1831397,9.64714,-0.97956306
68892351394620,-1.1687696,9.644744000000001,-0.9915381
68892371249853,-1.1663746000000002,9.6615095,-1.0657837
68892391105086,-1.1903248,9.68067,-1.0801538
68892410959378,-1.219065,9.673484,-1.0298585
68892430814611,-1.2334352,9.671089,-0.9963281999999999
68892450669844,-1.2166698999999999,9.64714,-1.0442286
68892470525077,-1.1735597,9.642349000000001,-1.0849438999999999
68892490380310,-1.1687696,9.625584,-1.0801538
68892510235543,-1.1951148999999999,9.584868,-1.0130934
68892530095348,-1.214275,9.604028999999999,-1.0059083
68892549950709,-1.2022998,9.625584,-1.0298585
68892569806070,-1.1711646,9.594449000000001,-1.0753639
68892589661431,-1.1424243,9.570497999999999,-1.1041040000000002
68892609510544,-1.1879296999999998,9.604028999999999,-1.0801538
68892629365777,-1.22146,9.687855,-1.0370435
68892649221010,-1.2430152,9.814791,-1.0035132
68892669076243,-1.2286451,9.807606,-1.0274634
68892688931476,-1.2094848999999999,9.707015,-1.096919
68892708786617,-1.1903248,9.630374,-1.1112891000000003
68892728641850,-1.1879296999999998,9.546548,-1.0777588
68892748496955,-1.1591895,9.529783,-1.0442286
68892768352188,-1.1591895,9.513017999999999,-1.089734
68892788207293,-1.1975098,9.455538,-1.1352394
68892808062398,-1.22625,9.541758999999999,-1.1567944
68892827913365,-1.1615845,9.651928999999999,-1.0370435
68892847768470,-1.1208692,9.742939999999999,-0.9915381
68892867623575,-1.1448194,9.778865,-1.0130934
68892887478532,-1.2022998,9.77647,-1.0681788
68892907336917,-1.2166698999999999,9.77168,-1.0585986
68892927192022,-1.2094848999999999,9.726174,-1.0226734
68892947047127,-1.1855347,9.6686945,-1.099314
68892966902232,-1.1807446000000001,9.616004,-1.1088941
68892986757337,-1.1663746000000002,9.565708,-1.0657837
68893006612442,-1.1424243,9.558523,-1.099314
68893026465001,-1.1256591999999999,9.546548,-1.1352394
68893046320106,-1.1280543,9.544153,-1.0921290000000001
68893066175211,-1.1520045,9.592053,-1.0274634
68893086030316,-1.1975098,9.620794,-1.0418334999999999
68893105885293,-1.1903248,9.656719,-1.0562036
68893125730822,-1.1663746000000002,9.699829,-1.0729688
68893145585671,-1.1567944,9.718989,-1.1112891000000003
68893165440520,-1.2022998,9.7142,-1.0873389
68893185295497,-1.219065,9.699829,-1.0562036
68893205150382,-1.1855347,9.685459,-1.099314
68893225005359,-1.1783496,9.663903999999999,-1.1352394
68893244860208,-1.1999048,9.64714,-1.1208692
68893264715057,-1.1831397,9.623189,-1.0705738
68893284569906,-1.1783496,9.601633999999999,-1.094524
68893304424883,-1.1687696,9.587264,-1.1208692
68893324274894,-1.1472143999999997,9.5489435,-1.1304493
68893344129615,-1.1591895,9.589659,-1.1352394
68893363984314,-1.1783496,9.630374,-1.1232642
68893383839035,-1.2094848999999999,9.584868,-1.1256591999999999
68893403693884,-1.2166698999999999,9.608819,-1.1136841999999998
68893423548635,-1.1903248,9.656719,-1.099314
68893443403356,-1.1280543,9.7142,-1.1232642
68893463258205,-1.1232642,9.72378,-1.1328443000000001
68893483112926,-1.1639795,9.6686945,-1.1280543
68893502975419,-1.1951148999999999,9.627979,-1.1496094
68893522830396,-1.2118799999999998,9.616004,-1.1424243
68893542685245,-1.2046948999999998,9.639954,-1.1448194
68893562540222,-1.1927198,9.584868,-1.1088941
68893582395071,-1.1807446000000001,9.5489435,-1.1160791
68893602250048,-1.1831397,9.599238,-1.1041040000000002
68893622108237,-1.1400293,9.627979,-1.0609937
68893641963214,-1.1160791,9.702225,-1.101709
68893661818319,-1.1496094,9.685459,-1.0873389
68893681673296,-1.1903248,9.678274,-1.0585986
68893701528273,-1.2070899,9.707015,-1.0322535
68893721380982,-1.1951148999999999,9.695039999999999,-1.0514137
68893741235959,-1.1831397,9.704619000000001,-1.1232642
68893761090808,-1.1711646,9.690249,-1.1256591999999999
68893780945657,-1.1831397,9.635164,-1.096919
68893800800634,-1.223855,9.584868,-1.0585986
68893820655483,-1.2094848999999999,9.534574000000001,-1.0921290000000001
68893840512538,-1.1951148999999999,9.541758999999999,-1.1064991000000002
68893860367515,-1.1711646,9.539363,-1.0514137
68893880222492,-1.1448194,9.589659,-1.0178833
68893900077341,-1.1520045,9.632769,-1.0394385
68893919932338,-1.1567944,9.613608000000001,-1.0633887
68893939787315,-1.1783496,9.70941,-1.0514137
68893959642292,-1.2022998,9.726174,-1.0130934
68893979497269,-1.2454101999999998,9.6686945,-0.9915381
68893999352118,-1.2669654,9.642349000000001,-0.99393314
68894019213081,-1.1855347,9.639954,-0.98914313
68894039068186,-1.1256591999999999,9.635164,-1.0514137
68894058923163,-1.1448194,9.630374,-1.089734
68894078778268,-1.1783496,9.64714,-1.0466236
68894098633373,-1.1831397,9.6686945,-0.99393314
68894118488350,-1.1855347,9.637559,-0.974773
68894138340029,-1.1903248,9.654325,-1.0657837
68894158195134,-1.1735597,9.606423,-1.099314
68894178050111,-1.1903248,9.584868,-1.0538087
68894197905216,-1.1975098,9.599238,-1.0370435
68894217764887,-1.1783496,9.644744000000001,-1.0729688
68894237619992,-1.1496094,9.671089,-1.0442286
68894257475097,-1.1472143999999997,9.632769,-0.9915381
68894277330202,-1.1759547,9.632769,-0.97237796
68894297185307,-1.1879296999999998,9.683064,-0.9508228000000001
68894317044785,-1.1903248,9.666299,-0.96758795
68894336900018,-1.1783496,9.639954,-1.0346485
68894356755251,-1.1927198,9.639954,-1.0418334999999999
68894376610484,-1.1807446000000001,9.637559,-1.0154883
68894396465717,-1.1735597,9.64714,-1.0035132
68894416321078,-1.1831397,9.623189,-1.0514137
68894436172495,-1.1951148999999999,9.642349000000001,-1.1280543
68894456027728,-1.2094848999999999,9.620794,-1.1208692
68894475882833,-1.22146,9.635164,-1.0801538
68894495738066,-1.2022998,9.616004,-1.0274634
68894515604003,-1.1759547,9.575289,-1.0801538
68894535459492,-1.2094848999999999,9.627979,-1.1352394
68894555314853,-1.2070899,9.671089,-1.0777588
68894575170342,-1.219065,9.625584,-1.0154883
68894595025831,-1.2430152,9.5561285,-1.0178833
68894614881320,-1.223855,9.596844,-1.0466236
68894634741509,-1.1663746000000002,9.707015,-1.0538087
68894654597126,-1.101709,9.690249,-1.0011181999999998
68894674452743,-1.1304493,9.625584,-1.0130934
68894694308232,-1.1903248,9.620794,-1.0753639
68894714163849,-1.223855,9.663903999999999,-1.0274634
68894734013604,-1.2382251,9.695039999999999,-0.97956306
68894753868965,-1.2358301999999999,9.6615095,-0.9651929
68894773724454,-1.2094848999999999,9.604028999999999,-0.97237796
68894793579793,-1.1759547,9.623189,-1.0322535
68894813434740,-1.1615845,9.632769,-1.094524
68894833290229,-1.1663746000000002,9.627979,-1.1591895
68894853145590,-1.1639795,9.651928999999999,-1.1136841999999998
68894873001079,-1.2094848999999999,9.6615095,-1.0154883
68894892856440,-1.2478052,9.678274,-1.0083033000000001
68894912711929,-1.2669654,9.642349000000001,-1.0777588
68894932560530,-1.2454101999999998,9.625584,-1.1639795
68894952415891,-1.223855,9.637559,-1.1567944
68894972271124,-1.1951148999999999,9.620794,-1.0705738
68894992126357,-1.1951148999999999,9.613608000000001,-1.0562036
68895011981718,-1.1855347,9.596844,-1.1424243
68895031827443,-1.1639795,9.611214,-1.2166698999999999
68895051682420,-1.2022998,9.623189,-1.1975098
68895071537525,-1.2693603999999998,9.606423,-1.1400293
68895091392502,-1.2741505,9.639954,-1.0585986
68895111244121,-1.1999048,9.632769,-1.1208692
68895131099226,-1.1759547,9.642349000000001,-1.2286451
68895150954203,-1.2358301999999999,9.707015,-1.219065
68895170809180,-1.2334352,9.649534,-1.1376343
68895190664285,-1.2573853000000002,9.553733,-1.1064991000000002
68895210519262,-1.2334352,9.572892999999999,-1.1807446000000001
68895230372343,-1.1807446000000001,9.620794,-1.2525953
68895250227320,-1.1639795,9.635164,-1.1879296999999998
68895270082276,-1.1951148999999999,9.616004,-1.0801538
68895289937253,-1.2454101999999998,9.649534,-1.0849438999999999
68895309792230,-1.2046948999999998,9.68067,-1.1041040000000002
68895329643087,-1.1567944,9.656719,-1.1663746000000002
68895349497936,-1.1687696,9.577683,-1.2310401000000002
68895369352913,-1.1927198,9.5633135,-1.2310401000000002
68895389207762,-1.2573853000000002,9.594449000000001,-1.1304493
68895409062611,-1.2478052,9.635164,-1.0705738
68895428917460,-1.219065,9.611214,-1.1520045
68895448769383,-1.1855347,9.596844,-1.2645704
68895468624232,-1.1759547,9.651928999999999,-1.2382251
68895488479081,-1.1711646,9.707015,-1.1232642
68895508333802,-1.1927198,9.690249,-1.089734
68895528186371,-1.2166698999999999,9.635164,-1.1735597
68895548041092,-1.2406201000000001,9.639954,-1.219065
68895567895813,-1.2046948999999998,9.616004,-1.1591895
68895587750534,-1.1783496,9.594449000000001,-1.101709
68895607605255,-1.1639795,9.575289,-1.1400293
68895627457838,-1.1376343,9.589659,-1.219065
68895647312559,-1.1400293,9.618399,-1.1711646
68895667167152,-1.1496094,9.620794,-1.1256591999999999
68895687021873,-1.1663746000000002,9.632769,-1.1064991000000002
68895706876594,-1.1831397,9.663903999999999,-1.1232642
68895726731315,-1.1759547,9.740545,-1.1759547
68895746587130,-1.1927198,9.678274,-1.1424243
68895766441723,-1.2022998,9.630374,-1.0849438999999999
68895786296316,-1.1975098,9.644744000000001,-1.1639795
68895806150909,-1.1807446000000001,9.592053,-1.1903248
68895826010068,-1.1975098,9.582474000000001,-1.2166698999999999
68895845864789,-1.1951148999999999,9.575289,-1.1041040000000002
68895865719510,-1.1376343,9.599238,-1.0849438999999999
68895885574231,-1.1208692,9.613608000000001,-1.1208692
68895905428952,-1.1424243,9.620794,-1.1448194
68895925287867,-1.1735597,9.642349000000001,-1.1136841999999998
68895945142588,-1.1831397,9.630374,-1.0490186000000001
68895964997437,-1.1591895,9.659114,-1.1112891000000003
68895984852158,-1.1448194,9.666299,-1.1472143999999997
68896004706879,-1.1543995,9.632769,-1.1472143999999997
68896024561728,-1.1855347,9.644744000000001,-1.1280543
68896044421277,-1.1903248,9.654325,-1.1352394
68896064276126,-1.1831397,9.642349000000001,-1.1520045
68896084130975,-1.1807446000000001,9.656719,-1.1615845
68896103985696,-1.1376343,9.654325,-1.1328443000000001
68896123844161,-1.1687696,9.618399,-1.1041040000000002
68896143699010,-1.1903248,9.618399,-1.096919
68896163553987,-1.1783496,9.630374,-1.0849438999999999
68896183408964,-1.1041040000000002,9.584868,-1.1615845
68896203263941,-1.1328443000000001,9.604028999999999,-1.2118799999999998
68896223118896,-1.1855347,9.604028999999999,-1.1520045
68896242979829,-1.1879296999999998,9.616004,-1.0705738
68896262834934,-1.1735597,9.606423,-1.0825489
68896282690039,-1.1496094,9.601633999999999,-1.1759547
68896302545272,-1.1496094,9.637559,-1.2118799999999998
68896322400377,-1.1615845,9.707015,-1.1304493
68896342252374,-1.1663746000000002,9.72378,-1.0633887
68896362107479,-1.1759547,9.716595,-1.0705738
68896381962712,-1.1687696,9.695039999999999,-1.1520045
68896401817817,-1.1352394,9.644744000000001,-1.1735597
68896421672380,-1.1472143999999997,9.637559,-1.1400293
68896441527613,-1.1783496,9.644744000000001,-1.1352394
68896461382718,-1.1783496,9.568104,-1.1400293
68896481237951,-1.1807446000000001,9.513017999999999,-1.1999048
68896501093056,-1.1543995,9.539363,-1.219065
68896520948161,-1.1160791,9.601633999999999,-1.1496094
68896540811288,-1.1376343,9.620794,-1.0657837
68896560666649,-1.1687696,9.656719,-1.0490186000000001
68896580522010,-1.1663746000000002,9.695039999999999,-1.0849438999999999
68896600377371,-1.1448194,9.702225,-1.1400293
68896620232604,-1.1543995,9.702225,-1.1567944
68896640085173,-1.1735597,9.690249,-1.0753639
68896659940534,-1.1735597,9.651928999999999,-1.0106983
68896679795767,-1.1639795,9.594449000000001,-1.096919
68896699651107,-1.1663746000000002,9.606423,-1.2358301999999999
68896719506244,-1.1400293,9.618399,-1.223855
68896739361605,-1.1328443000000001,9.611214,-1.1041040000000002
68896759216838,-1.1855347,9.568104,-1.0394385
68896779072071,-1.2046948999999998,9.584868,-1.0705738
68896798927304,-1.1951148999999999,9.613608000000001,-1.1543995
68896818782665,-1.1543995,9.64714,-1.1424243
68896838633248,-1.1424243,9.649534,-1.099314
68896858488481,-1.1639795,9.644744000000001,-1.0801538
68896878343586,-1.1759547,9.6615095,-1.1041040000000002
68896898198819,-1.1999048,9.692644,-1.1041040000000002
68896918054052,-1.1975098,9.716595,-1.0921290000000001
68896937912167,-1.1639795,9.72378,-1.0633887
68896957767400,-1.1615845,9.707015,-1.094524
68896977622633,-1.1927198,9.651928999999999,-1.1591895
68896997477866,-1.2070899,9.592053,-1.1376343
68897017333099,-1.1759547,9.577683,-1.0705738
68897037188204,-1.1927198,9.5633135,-1.0801538
68897057042975,-1.1927198,9.522598,-1.1520045
68897076898208,-1.1879296999999998,9.577683,-1.1663746000000002
68897096753441,-1.1615845,9.64714,-1.1041040000000002
68897116608546,-1.1855347,9.64714,-1.0609937
68897136453941,-1.2310401000000002,9.637559,-1.1280543
68897156309046,-1.2286451,9.656719,-1.1304493
68897176164001,-1.2022998,9.692644,-1.096919
68897196018978,-1.1903248,9.704619000000001,-1.0681788
68897215873955,-1.2022998,9.6758795,-1.0514137
68897235719486,-1.2022998,9.632769,-1.0921290000000001
68897255574207,-1.1663746000000002,9.618399,-1.1472143999999997
68897275428928,-1.1591895,9.639954,-1.1711646
68897295283777,-1.1711646,9.620794,-1.1352394
68897315138498,-1.1975098,9.618399,-1.0801538
68897334993219,-1.2166698999999999,9.577683,-1.0442286
68897354843496,-1.2310401000000002,9.560919,-1.1064991000000002
68897374698089,-1.2118799999999998,9.592053,-1.1208692
68897394552810,-1.1615845,9.620794,-1.1184741000000002
68897414407531,-1.1472143999999997,9.656719,-1.101709
68897434259144,-1.1855347,9.673484,-1.0514137
68897454113737,-1.223855,9.671089,-1.0681788
68897473968330,-1.214275,9.702225,-1.0921290000000001
68897493822923,-1.1903248,9.704619000000001,-1.1208692
68897513677516,-1.2022998,9.671089,-1.089734
68897533538925,-1.2046948999999998,9.64714,-1.0585986
68897553393646,-1.1975098,9.601633999999999,-1.0921290000000001
68897573248367,-1.1615845,9.599238,-1.1448194
68897593102960,-1.1424243,9.582474000000001,-1.1424243
68897612957681,-1.1520045,9.572892999999999,-1.089734
68897632812402,-1.1735597,9.616004,-1.0394385
68897652669435,-1.1951148999999999,9.623189,-1.0681788
68897672524156,-1.1735597,9.604028999999999,-1.096919
68897692379005,-1.1687696,9.623189,-1.1376343
68897712233726,-1.1783496,9.644744000000001,-1.101709
68897732090959,-1.1975098,9.64714,-1.0585986
68897751945808,-1.2046948999999998,9.678274,-1.0490186000000001
68897771800657,-1.1783496,9.707015,-1.0825489
68897791655378,-1.1663746000000002,9.656719,-1.101709
68897811510227,-1.2046948999999998,9.642349000000001,-1.1567944
68897831365076,-1.1975098,9.678274,-1.0873389
68897851222773,-1.1496094,9.685459,-1.0083033000000001
68897871077750,-1.1472143999999997,9.666299,-0.9987232
68897890932599,-1.1663746000000002,9.635164,-1.0753639
68897910787448,-1.1567944,9.570497999999999,-1.1496094
68897930642297,-1.1496094,9.565708,-1.1280543
68897950498902,-1.1567944,9.594449000000001,-1.094524
68897970353751,-1.1472143999999997,9.601633999999999,-1.0753639
68897990208600,-1.1711646,9.6758795,-1.0849438999999999
68898010063449,-1.1711646,9.6686945,-1.1184741000000002
68898029928374,-1.1975098,9.6758795,-1.0921290000000001
68898049783351,-1.2046948999999998,9.613608000000001,-1.0442286
68898069638328,-1.1735597,9.582474000000001,-1.1376343
68898089493433,-1.1280543,9.601633999999999,-1.1256591999999999
68898109348410,-1.0873389,9.630374,-1.0681788
68898129203363,-1.1448194,9.6686945,-1.0729688
68898149066368,-1.1639795,9.699829,-1.089734
68898168921601,-1.1472143999999997,9.72378,-1.0921290000000001
68898188776834,-1.1304493,9.692644,-1.0514137
68898208632067,-1.1639795,9.637559,-1.0514137
68898228487300,-1.2118799999999998,9.580078,-1.089734
68898248338083,-1.1999048,9.536968,-1.094524
68898268193188,-1.1376343,9.587264,-1.1136841999999998
68898288048421,-1.1376343,9.620794,-1.1088941
68898307903526,-1.1567944,9.625584,-1.094524
68898327753669,-1.1783496,9.6758795,-1.0753639
68898347608902,-1.1543995,9.7142,-1.0562036
68898367464007,-1.1472143999999997,9.735755000000001,-1.0514137
68898387319112,-1.1855347,9.716595,-1.0538087
68898407174217,-1.2070899,9.625584,-1.0418334999999999
68898427029450,-1.1927198,9.649534,-1.0490186000000001
68898446882661,-1.1567944,9.6615095,-1.1064991000000002
68898466737766,-1.1663746000000002,9.570497999999999,-1.1615845
68898486592871,-1.2022998,9.601633999999999,-1.1759547
68898506447976,-1.1496094,9.618399,-1.0705738
68898526302953,-1.1496094,9.656719,-1.0442286
68898546161994,-1.1783496,9.632769,-1.099314
68898566017227,-1.1879296999999998,9.635164,-1.099314
68898585872460,-1.1759547,9.649534,-1.0083033000000001
68898605727673,-1.1472143999999997,9.64714,-0.9987232
68898625582906,-1.1304493,9.64714,-1.0777588
68898645438139,-1.1208692,9.659114,-1.099314
68898665295238,-1.1520045,9.649534,-1.0418334999999999
68898685150599,-1.2070899,9.6686945,-1.0274634
68898705005960,-1.2070899,9.666299,-1.0562036
68898724861321,-1.1783496,9.642349000000001,-1.089734
68898744713446,-1.1543995,9.639954,-1.0849438999999999
68898764568679,-1.1376343,9.632769,-1.089734
68898784423912,-1.1328443000000001,9.644744000000001,-1.1112891000000003
68898804279145,-1.1208692,9.642349000000001,-1.1280543
68898824134378,-1.1184741000000002,9.627979,-1.1472143999999997
68898843984387,-1.1280543,9.580078,-1.1783496
68898863839492,-1.1639795,9.560919,-1.1951148999999999
68898883694597,-1.1927198,9.568104,-1.1496094
68898903549702,-1.1687696,9.627979,-1.1184741000000002
68898923404807,-1.1927198,9.671089,-1.1400293
68898943259912,-1.1999048,9.68067,-1.1232642
68898963105637,-1.1855347,9.687855,-1.0801538
68898982960486,-1.1520045,9.750125,-1.0873389
68899002815335,-1.1304493,9.788445,-1.1208692
68899022670184,-1.1520045,9.77647,-1.1112891000000003
68899042518785,-1.1879296999999998,9.740545,-1.0777588
68899062373506,-1.2118799999999998,9.616004,-1.0274634
68899082228207,-1.1807446000000001,9.524992999999998,-1.0538087
68899102082800,-1.1448194,9.503438000000001,-1.1112891000000003
68899121937521,-1.1256591999999999,9.469908,-1.1304493
68899141789074,-1.1543995,9.484278,-1.099314
68899161643667,-1.1280543,9.524992999999998,-1.0154883
68899181498388,-1.101709,9.613608000000001,-1.0298585
68899201352981,-1.1136841999999998,9.70941,-1.0633887
68899221207574,-1.1543995,9.759705,-0.98914313
68899241062167,-1.1807446000000001,9.802814999999999,-0.92926764
68899260912694,-1.1783496,9.7812605,-0.9244776
68899280767159,-1.1376343,9.73815,-1.0059083
68899300621624,-1.1711646,9.695039999999999,-1.0394385
68899320476217,-1.1855347,9.608819,-0.98914313
68899340328914,-1.1328443000000001,9.5633135,-0.91729254
68899360183379,-1.0921290000000001,9.577683,-0.9364527
68899380037844,-1.0729688,9.544153,-1.0130934
68899399892181,-1.0562036,9.529783,-1.0609937
68899419746646,-1.0562036,9.560919,-1.0514137
68899439601111,-1.0562036,9.635164,-0.92208254
68899459454938,-1.0322535,9.745335,-0.8143066999999999
68899479309403,-1.0250684,9.778865,-0.7807764
68899499163740,-1.0466236,9.745335,-0.9268726
68899519018077,-1.099314,9.73815,-1.0154883
68899538872542,-1.094524,9.740545,-0.974773
68899558730594,-1.089734,9.685459,-0.94603276
68899578585059,-1.1041040000000002,9.644744000000001,-1.0322535
68899598439524,-1.1831397,9.601633999999999,-1.0633887
68899618293989,-1.223855,9.589659,-1.0178833
68899638156166,-1.2525953,9.558523,-0.98914313
68899658010887,-1.2358301999999999,9.515413,-1.0154883
68899677865480,-1.2166698999999999,9.572892999999999,-1.1088941
68899697720201,-1.1759547,9.608819,-1.0873389
68899717574794,-1.1807446000000001,9.639954,-1.0562036
68899737429515,-1.223855,9.704619000000001,-0.9963281999999999
68899757287272,-1.2358301999999999,9.72857,-0.97956306
68899777141993,-1.2406201000000001,9.72378,-1.0370435
68899796996842,-1.2454101999999998,9.687855,-1.0681788
68899816851563,-1.1807446000000001,9.625584,-1.0346485
68899836706412,-1.1735597,9.654325,-1.0514137
68899856561091,-1.2022998,9.68067,-1.0035132
68899876415812,-1.2334352,9.618399,-0.9915381
68899896270661,-1.2286451,9.601633999999999,-0.9627979
68899916125382,-1.1256591999999999,9.623189,-0.9484278
68899935982121,-1.0873389,9.630374,-1.0083033000000001
68899955836842,-1.0873389,9.589659,-1.0825489
68899975691563,-1.1543995,9.644744000000001,-1.0825489
68899995546284,-1.2094848999999999,9.6686945,-0.974773
68900015401133,-1.2502003000000002,9.666299,-0.97237796
68900035255831,-1.22625,9.666299,-0.9867481
68900055112948,-1.1615845,9.68067,-1.0178833
68900074967797,-1.1400293,9.6686945,-1.0609937
68900094822518,-1.1041040000000002,9.6686945,-1.0777588
68900114677367,-1.1328443000000001,9.666299,-1.0801538
68900134532088,-1.1975098,9.630374,-1.089734
68900154389533,-1.2022998,9.613608000000001,-1.0777588
68900174244382,-1.1975098,9.656719,-1.0562036
68900194099231,-1.214275,9.618399,-1.089734
68900213954208,-1.214275,9.596844,-1.1112891000000003
68900233809057,-1.1927198,9.599238,-1.0657837
68900253663906,-1.0442286,9.627979,-1.0825489
68900273526705,-1.099314,9.6615095,-0.96758795
68900293381810,-1.1256591999999999,9.623189,-0.9651929
68900313236787,-1.094524,9.678274,-1.1041040000000002
68900333091892,-1.0801538,9.663903999999999,-1.0418334999999999
68900352946443,-1.1160791,9.707015,-0.9580079
68900372801548,-1.223855,9.764495,-0.87418216
68900392656653,-1.22625,9.726174,-0.8669971
68900412511758,-1.1567944,9.639954,-1.0226734
68900432366863,-1.1256591999999999,9.616004,-1.1208692
68900452226930,-1.1280543,9.632769,-1.0585986
68900472082163,-1.1496094,9.659114,-1.0035132
68900491937396,-1.1783496,9.627979,-1.0322535
68900511792606,-1.2166698999999999,9.616004,-1.0921290000000001
68900531647839,-1.214275,9.663903999999999,-1.1232642
68900551503072,-1.1999048,9.695039999999999,-1.089734
68900571360445,-1.22146,9.6686945,-1.0490186000000001
68900591215678,-1.1951148999999999,9.613608000000001,-1.0753639
68900611071039,-1.1687696,9.580078,-1.1232642
68900630926272,-1.1783496,9.608819,-1.1951148999999999
68900650782743,-1.1903248,9.673484,-1.2118799999999998
68900670638104,-1.214275,9.651928999999999,-1.1711646
68900690493465,-1.2118799999999998,9.584868,-1.096919
68900710348698,-1.2046948999999998,9.539363,-1.1064991000000002
68900730204059,-1.1855347,9.541758999999999,-1.1759547
68900750065144,-1.1831397,9.589659,-1.2166698999999999
68900769920505,-1.1496094,9.644744000000001,-1.2094848999999999
68900789775994,-1.1472143999999997,9.632769,-1.1663746000000002
68900809631355,-1.1903248,9.654325,-1.1088941
68900829486844,-1.2094848999999999,9.711803999999999,-1.1400293
68900849342205,-1.2046948999999998,9.718989,-1.1711646
68900869191062,-1.1831397,9.625584,-1.1208692
68900889046423,-1.1376343,9.582474000000001,-1.1711646
68900908901656,-1.1831397,9.594449000000001,-1.2022998
68900928757017,-1.2334352,9.604028999999999,-1.1543995
68900948602152,-1.2454101999999998,9.613608000000001,-1.0657837
68900968457257,-1.2070899,9.616004,-1.0825489
68900988312340,-1.1663746000000002,9.637559,-1.1783496
68901008167445,-1.1376343,9.663903999999999,-1.1567944
68901028022550,-1.1472143999999997,9.656719,-1.1687696
68901047877655,-1.2118799999999998,9.687855,-1.1184741000000002
68901067730920,-1.1927198,9.699829,-1.0083033000000001
68901087586025,-1.1328443000000001,9.671089,-1.0178833
68901107441002,-1.1567944,9.623189,-1.0849438999999999
68901127296107,-1.1759547,9.64714,-1.1591895
68901147151084,-1.1999048,9.637559,-1.1112891000000003
68901167000455,-1.1807446000000001,9.613608000000001,-1.0346485
68901186855432,-1.1496094,9.608819,-1.0562036
68901206710409,-1.1376343,9.606423,-1.1352394
68901226565386,-1.1591895,9.606423,-1.1256591999999999
68901246423087,-1.1999048,9.639954,-1.1184741000000002
68901266278064,-1.1903248,9.625584,-1.0418334999999999
68901286133041,-1.1831397,9.651928999999999,-1.0178833
68901305988018,-1.2046948999999998,9.683064,-1.0442286
68901325843123,-1.1759547,9.697434,-1.0394385
68901345698100,-1.1328443000000001,9.690249,-1.0226734
68901365550785,-1.1136841999999998,9.695039999999999,-1.0585986
68901385405634,-1.1232642,9.656719,-1.0585986
68901405260611,-1.1208692,9.649534,-1.094524
68901425115588,-1.1160791,9.637559,-1.1448194
68901444970437,-1.089734,9.627979,-1.1543995
68901464822736,-1.0753639,9.611214,-1.1711646
68901484677585,-1.096919,9.568104,-1.219065
68901504532434,-1.1232642,9.565708,-1.2334352
68901524387283,-1.1352394,9.618399,-1.2382251
68901544244344,-1.1472143999999997,9.649534,-1.1783496
68901564099193,-1.1088941,9.64714,-1.1663746000000002
68901583954042,-1.0609937,9.673484,-1.1903248
68901603808891,-1.0873389,9.659114,-1.1903248
68901623663868,-1.1639795,9.644744000000001,-1.1759547
68901643518717,-1.2525953,9.572892999999999,-1.1472143999999997
68901663370646,-1.2621753,9.575289,-1.1304493
68901683225495,-1.1855347,9.584868,-1.1567944
