UPTIMENANO,Ax,Ay,Az
68873032177391,0.24198875,-0.69749296,9.001381
68873052034159,0.059309445,-0.21519782,9.31613
68873071889392,0.21594045,0.4780488,10.446086
68873091744751,0.32322782,0.8850909,11.355851
68873111599983,0.05353117,0.7601426,10.612815
68873131455216,-0.46599463,-0.3441644,8.656108
68873151307162,-0.6114132,-0.6113757,8.470022
68873171162266,0.35918364,0.48410353,10.692661
68873191017499,0.90035385,0.67062026,10.773555
68873210872730,0.298456,0.43098676,9.66719
68873230728341,-0.040036418,0.34298688,10.59502
68873250583446,-0.25752607,0.93241584,10.326955
68873270438677,-0.0031537197,0.16773187,9.477905
68873290293781,0.30859983,-0.25563437,9.456723
68873310148886,0.5652141,-0.04490983,9.178522
68873330004117,-0.65569854,0.44952407,10.033857
68873349859800,-0.11692504,1.7319938,11.168699
68873369714905,-0.69601,2.4853847,9.966387
68873389570136,-0.94420004,0.24642329,8.119531
68873409425368,-0.62426186,-4.1832495,8.078003
68873429280473,-1.3668184,-1.0912312,8.572763
68873449128091,0.17170788,1.2300396,10.254382
68873468983067,0.17693402,1.0122286,10.9713545
68873488838044,0.2238383,1.0053203,10.916628
68873508693019,0.17157479,0.13551553,11.011667
68873528547867,-0.21874447,-0.36259088,9.80343
68873548402844,-0.7856003,-0.37786323,8.380942
68873568259745,-0.9310929,1.9408747,8.784289
68873588114721,-0.9413382,1.1457194,10.56214
68873607969698,-0.7569645,-2.2586534,9.8112755
68873627824673,-0.4379196,-2.837525,8.419888
68873647679960,-0.366204,0.015049909,8.277246
68873667534937,0.057928033,0.5353266,9.663866
68873687389912,1.2203606,0.7403581,11.335169
68873707244888,1.3351102,0.8134386,10.983555
68873727099865,-0.015895532,0.6367629,9.735238
68873746946111,-1.1373955,0.01339847,8.733882
68873766800959,-0.8124988,-0.023892846,9.333288
68873786655680,-0.4735263,-0.26463726,10.06828
68873806510527,-0.39643547,-0.3420558,9.981673
68873826365247,-0.16607952,-0.2571449,9.832452
68873846220096,0.2167644,-0.4460553,9.881268
68873866078015,0.75862217,-0.17856818,10.380858
68873885932863,0.6176352,-0.25919333,10.118167
68873905787840,0.15253043,-0.42888203,9.369856
68873925642687,-0.1807448,-0.3599506,9.310585
68873945498053,-0.065887816,-0.16393058,9.672745
68873965352902,0.56459755,0.039359484,10.015045
68873985207877,0.35220337,0.007854083,9.93577
68874005062725,0.031955108,-0.30728045,9.520867
68874024917574,-0.01863841,-0.26827842,9.568018
68874044772549,0.34096518,-0.2257751,9.860927
68874064631993,0.41666257,0.050155167,10.112795
68874084486970,0.113181286,0.029006531,10.009649
68874104342073,0.25072935,-0.5987944,9.9084
68874124197049,0.42620245,-0.821963,9.992145
68874144052026,0.04034503,-0.13105199,9.633863
68874163911036,0.57193774,0.5968262,10.032644
68874183766140,1.7818023,1.1850649,10.97346
68874203621245,0.8851349,0.74287325,10.672447
68874223476348,-0.97109616,0.7612415,10.512475
68874243339854,-0.6520819,0.32550973,10.711847
68874263195087,0.5211515,-0.9690502,9.869751
68874283050446,0.36020747,-0.63708603,9.07494
68874302905678,-0.68548054,-0.87390405,8.404683
68874322760911,-0.2572476,-0.3429208,8.63261
68874342616270,0.7135094,0.1666083,9.1119995
68874362469217,-0.04919615,0.36957818,9.069066
68874382324322,-0.71214366,0.6498587,9.246283
68874402179553,-1.2421738,0.022374868,9.929893
68874422034657,-2.0313907,0.6428629,9.838125
68874441889890,-2.2882187,0.691824,9.939169
68874461748316,-3.616746,0.3193681,10.81464
68874481603548,-3.8510852,0.11805137,12.128429
68874501458909,-3.7650797,0.19403668,13.057839
68874521314140,-5.2370944,0.24085265,13.323387
68874541157456,-4.9080343,0.048427295,13.277301
68874561012433,-2.9704597,0.25623804,13.401602
68874580867536,-1.0901558,0.4561981,13.162839
68874600722512,-1.4500748,-0.75951976,11.395106
68874620577489,-0.37124828,-0.8187745,11.131614
68874640432464,1.161428,0.19811143,11.85807
68874660294267,0.98971266,0.56320894,11.093192
68874680149372,1.2061408,-0.49239334,9.6318
68874700004603,0.22543085,-1.2989395,7.0344768
68874719859707,-1.8753949,1.8726729,7.6431923
68874739714940,-0.27658272,3.411852,8.248118
68874759572987,5.7815704,-1.5088545,9.783366
68874779428219,7.26437,-4.416041,9.967161
68874799283452,5.091415,-4.5588565,9.273449
68874819138683,1.0289675,-2.5709538,6.598938
68874838996219,-0.55216044,-1.9062926,6.0164967
68874858851452,-0.6932139,-3.1474273,5.8245997
68874878706811,-2.8720064,-2.541964,5.012505
68874898562043,-3.2196815,-0.28776452,4.973344
68874918417404,5.447286,5.8480763,8.1966095
68874938275613,10.933974,4.621155,13.566236
68874958128797,0.35563934,-1.7287776,9.654612
68874977984158,-3.3634472,0.99402875,9.1293335
68874997839389,1.6008065,2.8399553,11.254481
68875017694749,3.1087644,1.7974367,11.33976
68875037549982,3.8384106,-1.765524,11.296477
68875057409211,1.304661,-1.9958115,9.227961
68875077264571,0.38928664,0.59255356,7.9564133
68875097119932,3.1827524,1.1180365,9.768264
68875116975291,3.0372493,0.4445217,9.838808
68875136830651,1.4027646,-1.0247793,9.210159
68875156686012,-0.31481293,-2.3057446,8.410279
68875176537112,0.0689455,-1.8674173,9.070914
68875196392472,0.88474244,-2.1041427,10.811037
68875216247833,-0.18018045,0.10734509,11.069809
68875236103192,-2.3746352,2.591086,9.430939
68875255958810,-2.6737483,2.1780481,7.480155
68875275814171,-1.0137931,-0.7656641,6.705146
68875295669530,2.0735574,-2.8951702,6.482606
68875315524890,2.85039,-2.427401,8.072867
68875335380251,1.8450043,-1.1998619,8.192153
68875355228596,1.0512401,0.3973872,7.49474
68875375083700,-0.8861683,0.43799165,6.760508
68875394938805,-1.7535464,0.37661943,6.2768497
68875414793908,1.264908,-1.5732238,10.400255
68875434649140,3.0510008,-1.9212612,14.599703
68875454504245,2.02144,-0.83883864,14.004751
68875474361256,-1.1058998,-0.4362652,10.8459425
68875494216488,-1.8800476,-0.7865994,10.652592
68875514071593,-1.7468704,0.40294763,12.3011265
68875533926824,-1.2215633,0.42826444,13.134584
68875553787550,-0.78300047,-0.21421485,12.567246
68875573642783,-0.30632842,-0.33290818,11.610433
68875593498014,-0.5098546,-0.26773542,10.625871
68875613353246,-0.68166137,-0.23466417,9.508526
68875633208479,-0.9035903,0.094012275,9.520175
68875653061291,-1.2161252,0.80665165,9.784135
68875672916523,-1.4709604,1.3216116,9.453182
68875692771628,-1.3473966,0.76061136,7.7960486
68875712626859,-1.3283218,-0.1101933,7.2489796
68875732482091,0.18042226,2.0724661,8.034994
68875752337196,1.6553535,2.3544223,8.843528
68875772197596,1.0035259,-1.6116422,8.6635475
68875792052956,1.0625323,-0.2369303,8.067919
68875811908189,0.9923853,2.028379,8.20548
68875831763420,1.3178754,1.4908941,8.621101
68875851626807,1.2250946,0.7631516,9.324625
68875871482296,0.0683985,0.7293701,7.406273
68875891337783,-1.3655276,-2.0367188,4.430923
68875911193271,-2.4284594,0.15231676,3.242362
68875931048760,-1.7589052,4.6120586,4.2932396
68875950904247,1.9791526,4.252503,8.994328
68875970759418,3.8911233,1.2465322,11.5751295
68875990614907,4.5508966,-1.9837409,10.156844
68876010470522,3.4575481,-4.715123,9.682184
68876030326010,3.387984,-3.604272,11.205624
68876050181499,5.096293,2.8851063,14.022606
68876070044666,1.6924547,7.654882,16.220537
68876089900410,-2.6741934,5.1422596,13.800984
68876109756155,-1.0485048,0.3061334,13.146556
68876129611898,0.5474793,-1.9574205,15.320036
68876149466807,-7.2474804,-2.336113,14.663783
68876169322424,-9.318454,-2.213227,13.131102
68876189178039,-1.3323644,1.2852881,11.931936
68876209033655,-0.0055068773,0.5942988,10.380867
68876228889272,0.48166937,0.030094301,8.057428
68876248744887,2.3624551,-0.2382976,9.47557
68876268605373,1.8764901,-4.332031,9.463613
68876288461246,1.0585028,-5.56386,11.117959
68876308316989,1.4002295,-0.6686577,10.771616
68876328172733,1.1437362,-0.07184784,9.614851
68876348028478,0.16298565,-1.3139567,8.417373
68876367877181,1.6454016,-2.2009094,10.069127
68876387732797,0.5078972,-1.8461841,8.116458
68876407588542,0.055886634,-2.2378366,9.718877
68876427444157,-1.3094085,-0.16930042,11.750029
68876447300029,-2.3839085,-0.6439758,11.763854
68876467155646,-1.1334379,-2.0617876,10.837805
68876487011389,-1.437195,-2.0491557,10.286016
68876506867133,-3.4808831,1.213292,11.30663
68876526722749,-3.4435444,0.77111435,10.45908
68876546578493,-0.5652712,-0.3742233,11.728272
68876566434609,-1.8025968,0.27399632,12.279436
68876586290225,-1.649154,-0.30799243,9.886349
68876606145969,-1.9843132,0.2595829,9.006942
68876626001585,-1.734587,0.77448976,8.754238
68876645857329,-2.079479,1.0590739,7.2904654
68876665718828,0.65825534,-1.607162,3.895465
68876685574700,0.510927,-2.321718,5.5128837
68876705430444,-1.4315032,-1.0731802,10.708326
68876725286316,0.27989215,1.3346838,7.7067018
68876745142188,1.6245817,2.893954,9.474478
68876764998934,-0.35408974,2.8609817,11.5861845
68876784854806,0.17592584,1.1580219,10.142796
68876804710678,-0.9152994,-0.25761247,6.9601607
68876824566422,0.5933942,0.74821365,7.9948
68876844422294,0.28285018,0.668173,7.1580825
68876864272691,0.29333314,0.29549724,6.9406853
68876884128307,1.2315887,0.21340027,9.351245
68876903984051,7.009345,-5.1823254,13.015687
68876923839795,-0.32019836,-4.3192196,10.5773535
68876943695539,-3.3479276,-2.6874413,7.343786
68876963542579,1.4290323,-6.3031745,10.133874
68876983398195,0.28062862,-4.531788,12.901832
68877003253683,0.42192742,-0.90577346,10.539843
68877023109171,2.617847,-0.62114394,8.38087
68877042964659,5.9853115,-0.12043187,6.1909337
68877062809998,2.2161849,3.3970087,4.2650137
68877082665230,-10.481447,3.9328265,17.49215
68877102520590,-1.680619,-2.543771,15.291539
68877122375950,3.3959298,-3.0690768,9.462545
68877142231182,-2.2010741,-1.7129679,10.800938
68877162088261,-1.6015123,-1.2771738,6.1876287
68877181943621,-0.98447454,-1.7263256,4.143559
68877201798981,-2.0229616,-1.606192,9.533876
68877221654341,0.43839255,-1.89037,13.942728
68877241509701,1.3087935,-2.332634,15.749055
68877261354467,-0.07882321,-2.8057563,14.988934
68877281209571,-3.8698175,-1.9011884,11.4472885
68877301064675,-7.0185633,4.295534,5.750554
68877320919779,-3.2023642,5.1692133,5.643455
68877340774883,-2.5524313,2.8422499,8.877641
68877360626665,-1.0936992,3.266892,13.29332
68877380481641,1.139743,1.9466885,12.0481205
68877400336617,2.7827387,1.2229271,9.031123
68877420191593,4.0707216,1.7238826,5.8955846
68877440046569,-0.9520746,2.327387,4.9103312
68877459901998,-1.4402872,1.7795773,5.0632925
68877479756974,1.6351732,6.997035,2.8619723
68877499611950,0.7180877,3.7603512,2.9863183
68877519466926,2.5744977,-6.256105,5.194749
68877539321902,4.5773373,0.8464974,7.7899437
68877559182497,5.402682,-4.23993,6.560595
68877579037601,13.269591,-10.157548,8.167558
68877598892577,7.5674043,5.5610356,14.154925
68877618747681,4.5664425,2.4948552,12.5017395
68877638602657,2.5799265,-2.7063427,12.400249
68877658452402,1.969102,-3.3850272,14.912824
68877678307378,1.1973772,-2.7009335,18.744226
68877698162226,-1.1258351,1.3685602,21.111126
68877718017202,-7.332907,2.7780156,21.836725
68877737872178,-13.758053,0.5531976,19.059467
68877757727466,-5.9212565,1.915916,13.879204
68877777582442,-1.636596,1.0719022,10.504667
68877797437418,-2.9619615,-3.4208484,8.6739
68877817292394,-3.802589,-4.6300526,8.350463
68877837147370,-4.0204673,-4.968701,8.0071335
68877857006351,-4.950885,-4.227604,6.134699
68877876861327,-4.752823,-0.4565519,2.1394951
68877896716431,-5.161095,1.2072542,0.8136933
68877916571535,-3.9043827,-0.6650384,5.244225
68877936426511,-1.2020445,-1.6552345,6.629986
68877956278738,1.1320678,1.0340616,3.8518672
68877976133586,0.44470453,1.4959185,6.7001424
68877995988562,1.9354312,2.67584,8.060095
68878015843538,5.1338005,2.6779583,7.5820723
68878035698386,6.732755,-0.6591595,9.444453
68878055558212,2.7371469,-0.47633502,14.886464
68878075413188,2.4096339,-0.03930643,17.225445
68878095268164,3.5954986,-0.70832825,20.252077
68878115123268,-0.7205606,-2.5447135,22.327053
68878134978244,-5.523743,-5.8969665,18.14306
68878154833220,-4.119519,0.43613464,11.281457
68878174694669,1.0865847,7.7786765,8.003731
68878194549901,7.937327,6.5765777,7.5106034
68878214405005,7.2628765,4.829921,2.2423327
68878234260109,-0.61619776,5.6152253,2.2304938
68878254115213,-1.34663,2.1201527,0.96871287
68878273975778,-1.938316,-0.71889794,2.2182283
68878293831138,-1.6807793,-0.86354786,3.4843688
68878313686370,-0.9735847,-4.779944,5.0323544
68878333541730,-0.59795296,-7.401123,8.057348
68878353396962,0.72629005,-5.7092247,11.938529
68878373253894,1.3602092,1.2541386,10.580598
68878393109254,1.8942484,4.0199327,8.654644
68878412964742,1.5663246,5.1405163,8.7536545
68878432820102,2.2676194,4.265145,8.350427
68878452675590,1.9143797,3.2008004,7.7918854
68878472534740,0.8868875,5.0559144,8.849813
68878492390228,-0.40319917,6.029788,9.923008
68878512245844,-1.2891109,3.8427238,12.167788
68878532101332,3.3036337,8.114626,26.300316
68878551956820,-2.0216403,2.2754867,21.562325
68878571813984,-1.9686372,-7.734357,7.6796045
68878591669600,0.46639562,-8.706829,10.846234
68878611525216,-0.44183096,-0.87657005,13.186551
68878631380704,-1.2971858,-1.6038959,10.467644
68878651236320,-1.4709052,-3.6240587,10.325694
68878671093020,0.4114806,0.3814023,10.729841
68878690948636,-1.5803673,-1.8799394,9.000413
68878710804124,-1.2903854,-5.654955,6.2437143
68878730659740,-1.4418974,-3.2862563,3.3289027
68878750515228,-0.1818176,0.056802914,2.4210558
68878770377456,0.9385567,5.060122,5.6475973
68878790233200,8.762224,21.075089,22.440216
68878810088944,4.8980727,3.651138,15.836582
68878829944688,-3.2966454,-5.280702,5.502546
68878849800432,-3.0547707,0.45823705,8.78516
68878869653995,1.7685261,1.8664854,11.342761
68878889509611,2.9183183,-2.057891,9.747157
68878909365355,1.4339118,-1.2144663,9.313644
68878929220971,0.16368276,-0.20727406,10.158061
68878949076715,-0.7512474,-1.2903607,10.760415
68878968920832,-1.331899,-0.6715417,10.708256
68878988776320,-1.5716238,-0.12465842,10.71253
68879008631808,-3.7637522,0.2151532,10.258869
68879028487168,-3.5867634,0.41157022,10.313491
68879048342657,0.18285367,0.51512927,10.439255
68879068193348,1.686684,0.24631631,10.373475
68879088048707,0.551735,-0.14740919,10.284448
68879107904067,-0.7179419,-0.20418806,10.393334
68879127759427,-0.89893204,-0.4321313,10.198254
68879147614787,0.20881216,-0.7186563,10.351569
68879167472859,0.91710716,-0.3443832,10.290364
68879187328347,0.43475306,-0.44447136,10.387041
68879207183835,-0.4742508,0.029760363,10.2948065
68879227039323,-1.4526439,0.3325957,10.531534
68879246894811,-0.87489074,0.24467602,10.257766
68879266747623,-0.0106858155,0.33112076,10.424165
68879286602984,-0.06550196,-0.4188427,10.346302
68879306458345,-0.4403492,-0.6019491,10.459988
68879326313703,-0.71995187,-0.4411655,10.362828
68879346169064,-0.4400818,-0.2949823,10.307771
68879366020913,-0.14394575,-0.23727232,10.34345
68879385876146,-0.16117297,-0.13828997,10.420547
68879405731507,-0.3103874,-0.09915237,10.409721
68879425586736,-0.30921695,-0.114759825,10.38538
68879445441968,-0.2430366,-0.12871277,10.339829
68879465295810,-0.23626074,-0.15308924,10.368356
68879485151042,-0.24462913,-0.19538099,10.380011
68879505006274,-0.24820341,-0.27460313,10.347256
68879524861506,-0.08923376,-0.40111768,10.304845
68879544716738,-0.049572233,-0.44731387,10.300984
68879564570330,-0.10521081,-0.44541445,10.332042
68879584425562,-0.18935098,-0.44272992,10.346362
68879604280666,-0.25020435,-0.4307963,10.349404
68879624135898,-0.24559188,-0.42490414,10.394946
68879643991002,-0.19026063,-0.42019138,10.38263
68879663847263,-0.15705293,-0.41721386,10.32194
68879683702367,-0.16358416,-0.40554112,10.347985
68879703557599,-0.23029171,-0.39750126,10.361552
68879723412703,-0.28780028,-0.41012433,10.322925
68879743267935,-0.26113424,-0.4488749,10.321749
68879763124989,-0.235983,-0.44231614,10.383232
68879782980221,-0.22702982,-0.3768039,10.398572
68879802835453,-0.26425654,-0.3343603,10.376644
68879822690685,-0.3647817,-0.33199635,10.392482
68879842545917,-0.37717277,-0.3605184,10.38833
68879862404489,-0.31851995,-0.32338685,10.37557
68879882259849,-0.32166308,-0.32932526,10.339928
68879902115081,-0.36205637,-0.39634556,10.355684
68879921970441,-0.27272856,-0.41926077,10.387796
68879941825673,-0.21254836,-0.36497685,10.378451
68879961683507,-0.21759644,-0.3345638,10.366807
68879981538867,-0.28103203,-0.36769372,10.392234
68880001394099,-0.27753592,-0.35446012,10.402382
68880021249459,-0.22554159,-0.25707892,10.412463
68880041104691,-0.18397503,-0.16390653,10.406465
68880060963731,-0.24569373,-0.18013376,10.4055805
68880080819091,-0.3427083,-0.24450195,10.412404
68880100674451,-0.3005084,-0.30026722,10.421973
68880120529811,-0.023389203,-0.16121763,10.362329
68880140385171,0.0046675405,-0.10010394,10.363764
68880160246022,-0.08327399,-0.11301581,10.343471
68880180101510,-0.13741058,-0.105827905,10.316829
68880199956998,-0.204562,-0.090544455,10.344161
68880219812486,-0.2226664,-0.09235622,10.37002
68880239667974,-0.14895414,-0.07099039,10.366202
68880259533097,-0.11376109,-0.071320236,10.351737
68880279388841,-0.12263171,-0.11205706,10.355815
68880299244585,-0.15163703,-0.12468346,10.421925
68880319100201,-0.2144492,-0.12078996,10.429674
68880338955945,-0.23179004,-0.13302732,10.391773
68880358815827,-0.18840551,-0.15265818,10.411197
68880378671699,-0.17183456,-0.19931486,10.452829
68880398527571,-0.22073247,-0.24442148,10.418707
68880418383443,-0.22332065,-0.29465064,10.353114
68880438239315,-0.1295227,-0.2972526,10.3427305
68880458097509,-0.06124333,-0.27888843,10.351087
68880477953509,-0.076956905,-0.2576614,10.407428
68880497809509,-0.17012006,-0.2802215,10.386392
68880517665509,-0.23847832,-0.27224398,10.333771
68880537521509,-0.16617747,-0.23681949,10.347826
68880557380563,-0.105653755,-0.24039672,10.387502
68880577236563,-0.11274401,-0.30870885,10.359267
68880597092691,-0.11194177,-0.32223326,10.3563795
68880616948691,-0.12954903,-0.29938895,10.381186
68880636804691,-0.14874612,-0.29729933,10.397324
68880656659228,-0.19445798,-0.26497972,10.354623
68880676515228,-0.21123673,-0.27944213,10.343074
68880696371228,-0.17643353,-0.32351753,10.375816
68880716227228,-0.12433258,-0.3680477,10.332898
68880736083228,-0.06217047,-0.37162116,10.322274
68880755941605,-0.112754986,-0.37369177,10.368938
68880775797605,-0.16093887,-0.35775015,10.314626
68880795653733,-0.11902175,-0.3436003,10.280428
68880815509733,-0.09158303,-0.36656505,10.262666
68880835365861,-0.025946077,-0.40418676,10.267791
68880855218619,-0.0023968157,-0.44617018,10.254474
68880875074619,-0.06579961,-0.40006658,10.211317
68880894930747,-0.090120785,-0.34534505,10.177492
68880914786747,-0.08019637,-0.3539199,10.19745
68880934642747,-0.086569324,-0.40580878,10.211377
68880954490953,-0.08912706,-0.42733085,10.185151
68880974346825,-0.0816386,-0.38596937,10.178244
68880994201446,-0.083939664,-0.3364603,10.163214
68881014057318,-0.037401352,-0.31716716,10.163889
68881033913318,8.688328E-4,-0.33723316,10.183695
68881053768518,-0.018643636,-0.3954564,10.177023
68881073624390,-0.06724237,-0.37209842,10.147423
68881093480262,-0.12802689,-0.32688096,10.12227
68881113336134,-0.10042882,-0.35367465,10.097518
68881133192006,-0.049085673,-0.3788889,10.123139
68881153040886,-0.0050889896,-0.36809725,10.097047
68881172896630,-0.0054446785,-0.38194352,10.057436
68881192752374,-0.06776444,-0.42247218,10.055672
68881212608118,-0.06759039,-0.4189265,10.054076
68881232463734,-0.042528514,-0.39379176,10.0573015
68881252319478,-0.021480555,-0.36810583,10.02931
68881272168101,-0.036676615,-0.36754662,9.999597
68881292023717,-0.095263496,-0.36772153,10.0283
68881311879205,-0.12432775,-0.3789427,9.992072
68881331734821,-0.1134005,-0.36285803,9.960206
68881351590309,-0.05724382,-0.2784979,9.930977
68881371433368,-0.02058129,-0.31914705,9.961817
68881391288600,-0.061550736,-0.3958206,9.985945
68881411143832,-0.14055595,-0.38902408,9.967002
68881430999192,-0.13983577,-0.32733393,9.958814
68881450854424,-0.11910484,-0.3556791,9.931455
68881470701322,-0.07649208,-0.34916326,9.878414
68881490556426,-0.06265532,-0.3657705,9.838544
68881510411402,-0.055996355,-0.33472878,9.848578
68881530266506,-0.07765047,-0.29937917,9.832475
68881550121610,-0.1163562,-0.32668105,9.836246
68881569976695,-0.105556674,-0.34012946,9.80647
68881589831799,-0.060941182,-0.33868673,9.826267
68881609686775,-0.04061499,-0.35018063,9.821514
68881629541879,-0.088484176,-0.35867718,9.799495
68881649396855,-0.10076885,-0.32691133,9.790377
68881669250409,-0.06143119,-0.30760527,9.801435
68881689105257,-0.028772922,-0.31399247,9.817025
68881708960233,-0.07079145,-0.3409977,9.823488
68881728815210,-0.1012185,-0.30972797,9.785083
68881748670185,-0.10335459,-0.26072416,9.756875
68881768529232,-0.08010257,-0.2397524,9.81651
68881788384208,-0.074941956,-0.2855784,9.834668
68881808239185,-0.094980635,-0.33743596,9.791148
68881828094162,-0.10861841,-0.3408453,9.792922
68881847949136,-0.11171819,-0.37159723,9.88452
68881867803141,-0.15001805,-0.3611935,9.898205
68881887658245,-0.13970616,-0.31943753,9.847416
68881907513221,-0.10325276,-0.35039842,9.717354
68881927355144,-0.0098292455,-0.3628113,9.681238
68881947210121,0.009314394,-0.32274067,9.729687
68881967063738,-0.037379574,-0.3404815,9.858239
68881986918587,-0.13538799,-0.40084496,9.8991785
68882006773564,-0.11088286,-0.3795219,9.737358
68882026628413,-0.04553415,-0.3051142,9.679712
68882046483390,-0.05927485,-0.30123445,9.636705
68882066341213,-0.089482605,-0.36394697,9.645101
68882086196190,-0.11046134,-0.39442077,9.705471
68882106051039,-0.085923515,-0.36536446,9.729995
68882125906016,-0.043868836,-0.35491806,9.746177
68882145760993,-0.064406425,-0.40150085,9.762273
68882165624086,-0.088750824,-0.43329123,9.810263
68882185479191,-0.09055753,-0.42726222,9.862467
68882205334296,-0.103829175,-0.43876824,9.809385
68882225189529,-0.10776793,-0.4213669,9.807677
68882245044634,-0.119019665,-0.38552412,9.836113
68882264908033,-0.11075974,-0.3797729,9.8151865
68882284763394,-0.08774137,-0.36048293,9.750354
68882304618627,-0.093834706,-0.3297137,9.721867
68882324473988,-0.09339922,-0.34425113,9.707078
68882344329221,-0.11278732,-0.37602365,9.669863
68882364184604,-0.07090103,-0.36133373,9.662473
68882384039965,-0.041674826,-0.37070638,9.748184
68882403895305,-0.062779635,-0.40014318,9.74547
68882423750794,-0.09469732,-0.3560284,9.724437
68882443606155,-0.13902208,-0.34663182,9.741048
68882463465306,-0.11302974,-0.4172522,9.774385
68882483320795,-0.091787845,-0.44502765,9.798438
68882503176284,-0.0664547,-0.38795957,9.810963
68882523031773,-0.115628466,-0.38698924,9.806621
68882542887262,-0.1245462,-0.4249327,9.843659
68882562751277,-0.12520923,-0.4025215,9.872033
68882582606894,-0.0474005,-0.34848642,9.786296
68882602462511,-0.04155935,-0.31985912,9.762205
68882622318128,-0.06734144,-0.3097197,9.730145
68882642173745,-0.10818498,-0.30548155,9.699563
68882662032110,-0.14851183,-0.31711665,9.680721
68882681887855,-0.068004,-0.29159942,9.667705
68882701743600,0.0028082049,-0.27943027,9.688859
68882721599345,-0.029270692,-0.33520252,9.725286
68882741455090,-0.07868075,-0.38132337,9.705168
68882761311695,-0.14385192,-0.40930006,9.724933
68882781167568,-0.15190116,-0.42250052,9.729915
68882801023313,-0.1506175,-0.406794,9.786271
68882820879186,-0.16905622,-0.41086847,9.834342
68882840735059,-0.12675127,-0.41029158,9.809807
68882860590804,-0.12371715,-0.39776945,9.836375
68882880449086,-0.114772104,-0.4121348,9.850761
68882900304959,-0.10159518,-0.40394527,9.7694
68882920160832,-0.118617855,-0.39921284,9.81661
68882940016833,-0.081170246,-0.3516732,9.798132
68882959872706,-0.042679902,-0.28520545,9.741682
68882979723415,-0.06727355,-0.25838527,9.722349
68882999579160,-0.07526643,-0.2744304,9.704917
68883019434905,-0.07200235,-0.32359952,9.720378
68883039290650,-0.1043171,-0.3734312,9.723806
68883059146523,-0.0980601,-0.3581309,9.697313
68883078996764,-0.034948245,-0.31776047,9.694396
68883098852381,-0.04616394,-0.3365837,9.730024
68883118708126,-0.09357099,-0.3349312,9.789066
68883138563743,-0.15887983,-0.3587274,9.804717
68883158419360,-0.20800307,-0.3590302,9.807448
68883178272099,-0.20194003,-0.33670494,9.799256
68883198127716,-0.118853174,-0.3402405,9.766389
68883217983333,-0.059065085,-0.30010208,9.802391
68883237838950,-0.06398726,-0.3052595,9.801497
68883257694567,-0.116923235,-0.34652063,9.792015
68883277548324,-0.13650234,-0.37205404,9.758354
68883297403941,-0.09021358,-0.3355478,9.754861
68883317259430,-0.071527466,-0.28323466,9.754411
68883337115047,-0.07426657,-0.30532792,9.723683
68883356970514,-0.106299885,-0.31206053,9.68863
68883376823779,-0.09671626,-0.23999153,9.682068
68883396679396,-0.07580299,-0.25734717,9.705563
68883416534885,-0.07125271,-0.34462732,9.779861
68883436390502,-0.066257425,-0.34273878,9.760696
68883456245991,-0.06786395,-0.29227486,9.74789
68883476101138,-0.088808514,-0.27056572,9.7957535
68883495956627,-0.07684563,-0.27627522,9.743533
68883515812116,-0.12826397,-0.2582436,9.730113
68883535667605,-0.16911624,-0.2516478,9.743759
68883555523094,-0.08313047,-0.29229844,9.735827
68883575377797,-0.016367102,-0.31085646,9.802584
68883595233286,-0.037325695,-0.2895087,9.833345
68883615088647,-0.08316458,-0.2871589,9.821927
68883634944136,-0.1336365,-0.29796606,9.834945
68883654799497,-0.10608143,-0.31328586,9.810088
68883674653108,-0.045604892,-0.29834026,9.775842
68883694508597,-0.054690477,-0.27900878,9.772086
68883714363958,-0.103498586,-0.23706122,9.74105
68883734219319,-0.1444096,-0.23112576,9.70104
68883754074680,-0.121024124,-0.27341643,9.720027
68883773926951,-0.020791344,-0.28193587,9.717777
68883793782312,0.007999901,-0.2810619,9.727465
68883813637673,-0.04325004,-0.26727366,9.737614
68883833492886,-0.12476366,-0.26032135,9.761351
68883853348247,-0.15723564,-0.3047624,9.77305
68883873202176,-0.118147835,-0.30853528,9.772091
68883893057409,-0.057974815,-0.28166133,9.786235
68883912912770,-0.04664414,-0.26502243,9.781847
68883932768131,-0.089525014,-0.30341828,9.758207
68883952623364,-0.097285,-0.32461798,9.788516
68883972472361,-0.07320809,-0.33556503,9.796107
68883992327466,-0.03213355,-0.2954313,9.7811365
68884012182571,-0.06292782,-0.28675598,9.765883
68884032037676,-0.12502538,-0.3046307,9.787445
68884051892781,-0.13160224,-0.31186888,9.769155
68884071756114,-0.1200464,-0.2492863,9.7487
68884091611347,-0.08309334,-0.24090125,9.708576
68884111466580,-0.0359736,-0.284081,9.7175
68884131321813,-0.075736135,-0.31207615,9.732214
68884151177046,-0.14271352,-0.3383146,9.713367
68884171033475,-0.16906339,-0.30673826,9.753311
68884190888836,-0.12698893,-0.29750198,9.757107
68884210744197,-0.05021234,-0.31427902,9.758404
68884230599558,-0.036811322,-0.3088867,9.769013
68884250454791,-0.05492385,-0.32688585,9.741567
68884270315954,-0.12621383,-0.32131156,9.774717
68884290171315,-0.16777676,-0.2918176,9.794924
68884310026783,-0.09021591,-0.28173023,9.752381
68884329882144,-0.067127794,-0.26063243,9.773049
68884349737633,-0.045011535,-0.26523674,9.73556
68884369596146,-0.0801102,-0.28013775,9.745296
68884389451635,-0.13576274,-0.2881658,9.751549
68884409307124,-0.14669693,-0.26388976,9.748696
68884429162613,-0.10600783,-0.2635231,9.772808
68884449022506,-0.064869225,-0.2773323,9.799231
68884468878123,-0.054783367,-0.27452958,9.804531
68884488733740,-0.08687572,-0.27763158,9.806634
68884508589357,-0.10422079,-0.26834193,9.732989
68884528444974,-0.0745924,-0.23837163,9.781978
68884548300591,-0.08812286,-0.23765008,9.813841
68884568156824,-0.06498141,-0.2759338,9.753245
68884588012569,-0.10114433,-0.259026,9.720043
68884607868186,-0.10175682,-0.23788789,9.755489
68884627723803,-0.07392937,-0.26078266,9.753603
68884647579548,-0.06488562,-0.22387627,9.779651
68884667441285,-0.024417747,-0.22149853,9.697049
68884687297030,0.008320828,-0.24038312,9.66421
68884707152775,-0.047070406,-0.25713354,9.661592
68884727008520,-0.10276767,-0.2081379,9.704881
68884746864393,-0.14324081,-0.21323478,9.726154
68884766720138,-0.1380213,-0.27146584,9.7253685
68884786580383,-0.09034241,-0.27640232,9.780111
68884806436256,-0.036044285,-0.27730718,9.813631
68884826292129,-0.009121479,-0.27027863,9.836605
68884846148002,-0.059003007,-0.24719605,9.824081
68884866005065,-0.114397176,-0.26316038,9.8362055
68884885860938,-0.13275982,-0.2712899,9.849475
68884905716939,-0.11375915,-0.22975795,9.8324795
68884925572812,-0.10413371,-0.21392693,9.803624
68884945428685,-0.09148269,-0.24053864,9.771974
68884965275006,-0.05074541,-0.24495,9.727085
68884985130751,-0.041232646,-0.22342966,9.743059
68885004986496,-0.041760378,-0.20870396,9.699476
68885024842241,-0.0686328,-0.21700537,9.683571
68885044697986,-0.12179922,-0.24960685,9.702417
68885064553731,-0.09796388,-0.25304174,9.706496
68885084400876,-0.065517314,-0.20581889,9.736669
68885104256493,-0.05025947,-0.2034377,9.792959
68885124112110,-0.07197153,-0.26633975,9.813427
68885143967727,-0.12471641,-0.31384015,9.800385
68885163815060,-0.09082025,-0.2586589,9.8344145
68885183670549,-0.07369065,-0.21018647,9.84545
68885203526038,-0.121818885,-0.19107418,9.788396
68885223381399,-0.12329658,-0.19975573,9.75034
68885243236888,-0.08802711,-0.24291532,9.766655
68885263081513,-0.035830755,-0.28554234,9.782944
68885282936746,-0.010503309,-0.28422517,9.751363
68885302791979,-0.050068527,-0.26699957,9.71581
68885322647212,-0.09378367,-0.27795494,9.711716
68885342502573,-0.07577509,-0.25662416,9.739763
68885362357806,-0.03411925,-0.23327474,9.760704
68885382206103,-0.07633417,-0.23754495,9.767538
68885402061080,-0.13875164,-0.24735747,9.744314
68885421916185,-0.13918428,-0.23360603,9.74436
68885441771290,-0.08336614,-0.22903551,9.77642
68885461621635,-0.030995056,-0.22444583,9.769572
68885481476484,-0.061761443,-0.21504745,9.788518
68885501331461,-0.1372573,-0.23910028,9.784727
68885521186310,-0.13221717,-0.23691314,9.802121
68885541041159,-0.13083765,-0.22647162,9.811291
68885560896136,-0.08256841,-0.25484115,9.766902
68885580743603,-0.08293077,-0.24357276,9.761632
68885600598196,-0.10244243,-0.27080336,9.737401
68885620452917,-0.1041842,-0.26997656,9.722961
68885640307510,-0.1317056,-0.2555054,9.752532
68885660162231,-0.095070176,-0.23555334,9.743694
68885680024480,-0.08093058,-0.252336,9.781942
68885699879201,-0.09344976,-0.28565565,9.773601
68885719734050,-0.09284249,-0.2521903,9.750418
68885739588877,-0.11145542,-0.25044987,9.804402
68885759444982,-0.12428054,-0.27534595,9.768376
68885779299703,-0.14141196,-0.21696901,9.737637
68885799154552,-0.1532257,-0.21858321,9.734997
68885819009273,-0.09866112,-0.28281376,9.74738
68885838863994,-0.06394498,-0.30846584,9.761982
68885858718715,-0.06597061,-0.29692066,9.783545
68885878576288,-0.10526629,-0.2864842,9.785704
68885898431009,-0.14994529,-0.32120833,9.770037
68885918285858,-0.11627658,-0.3154758,9.744059
68885938140579,-0.06532966,-0.26430395,9.765075
68885957995428,-0.081688866,-0.22895075,9.766689
68885977853057,-0.13399263,-0.23523769,9.782967
68885997707906,-0.14174104,-0.25958094,9.754303
68886017562755,-0.04700349,-0.25453997,9.761835
68886037417604,-0.01037388,-0.23301625,9.782483
68886057278495,-0.045829058,-0.23822072,9.757463
68886077133472,-0.15951107,-0.28763822,9.744513
68886096988449,-0.18602107,-0.30720812,9.733878
68886116843298,-0.084414124,-0.25068253,9.753063
68886136698275,-0.021577511,-0.20195112,9.741918
68886156553252,-0.015495225,-0.2338676,9.738562
68886176414715,-0.11931893,-0.27260876,9.744497
68886196269820,-0.15102114,-0.28625607,9.786072
68886216124774,-0.065804586,-0.24734621,9.804635
68886235979879,-0.034422815,-0.22134604,9.809091
68886255834984,-0.09249181,-0.26031524,9.814658
68886275701453,-0.13380204,-0.29450867,9.79663
68886295556814,-0.10075115,-0.27035713,9.744769
68886315412175,-0.032908127,-0.21858992,9.746304
68886335267536,-0.03222007,-0.23949221,9.766872
68886355122897,-0.08591724,-0.25658214,9.756878
68886374978258,-0.14522171,-0.25871333,9.710681
68886394844171,-0.14028323,-0.3070119,9.7311535
68886414699916,-0.08092239,-0.30772546,9.754937
68886434555533,-0.033684254,-0.30084383,9.763139
68886454411278,-0.10308337,-0.30342004,9.75587
68886474271131,-0.108665675,-0.2869522,9.768609
68886494127004,-0.10111398,-0.31212056,9.756723
68886513982877,-0.100360975,-0.28090242,9.78424
68886533838750,-0.10074015,-0.26920968,9.776613
68886553694623,-0.10381084,-0.28009757,9.760075
68886573547846,-0.092497036,-0.26303434,9.753329
68886593403719,-0.05576344,-0.24484241,9.773377
68886613259592,-0.042331588,-0.2395128,9.803444
68886633115465,-0.09352281,-0.28238672,9.793658
68886652971338,-0.08212478,-0.2674452,9.798699
68886672827211,-0.08845435,-0.28376716,9.754436
68886692689102,-0.10578023,-0.2713968,9.75922
68886712545103,-0.11562464,-0.28171167,9.757434
68886732401104,-0.06786395,-0.29227486,9.74789
68886752257105,-0.06143859,-0.2812178,9.744967
68886772118568,-0.025873713,-0.280917,9.739901
68886791974697,-0.04036793,-0.30396414,9.76019
68886811830698,-0.08326857,-0.34114987,9.748937
68886831686827,-0.087777466,-0.30581674,9.743162
68886851542956,-0.073935084,-0.25921085,9.783089
68886871392447,-0.046278916,-0.27707666,9.772374
68886891248448,-0.03579416,-0.28717685,9.772915
68886911104321,-0.070423186,-0.2644323,9.755355
68886930960322,-0.05803062,-0.225785,9.791426
68886950816323,-0.090577714,-0.21743023,9.729889
68886970672196,-0.07691251,-0.22154616,9.716884
68886990513953,-0.068743,-0.26513353,9.73088
68887010369570,-0.037845332,-0.33017224,9.762755
68887030225315,-0.037499897,-0.34101617,9.765668
68887050080932,-0.07796139,-0.2919341,9.801563
68887069923579,-0.100552045,-0.2746632,9.787798
68887089779068,-0.102743216,-0.25966054,9.771046
68887109634429,-0.063835256,-0.25604677,9.805488
68887129489918,-0.03974967,-0.26935157,9.76885
68887149345279,-0.08509111,-0.22863299,9.764337
68887169200747,-0.10296736,-0.19954091,9.752666
68887189054212,-0.05906701,-0.193253,9.782688
68887208909445,-0.054181814,-0.23949262,9.810833
68887228764806,-0.029529048,-0.2699434,9.793007
68887248620167,-0.063736156,-0.20906608,9.7263365
68887268475400,-0.10090514,-0.21272066,9.721077
68887288326947,-0.1431038,-0.27044678,9.747491
68887308182180,-0.11611978,-0.31657544,9.826601
68887328037413,-0.06479896,-0.27981552,9.793916
68887347892646,-0.038552105,-0.20199664,9.720128
68887367743101,-0.08487655,-0.18812737,9.625612
68887387598334,-0.10007323,-0.24366589,9.625459
68887407453439,-0.10695951,-0.23740357,9.6850395
68887427308544,-0.073855646,-0.21101998,9.716323
68887447163649,-0.047008865,-0.19993673,9.774099
68887467018754,-0.08888746,-0.26572493,9.845296
68887486874463,-0.13704747,-0.29529056,9.8768215
68887506729440,-0.117210045,-0.27769393,9.916351
68887526584545,-0.10568253,-0.2688662,9.8789215
68887546439650,-0.1290088,-0.23020597,9.822774
68887566294755,-0.14868027,-0.19822824,9.804336
68887586142596,-0.07288085,-0.18610393,9.759738
68887605997445,-0.030039474,-0.2026104,9.734559
68887625852294,-0.08019103,-0.2257704,9.701545
68887645707248,-0.078390084,-0.23022765,9.678827
68887665565645,-0.09075423,-0.21512032,9.659733
68887685420622,-0.06699783,-0.21371444,9.713355
68887705275471,-0.07968588,-0.23849992,9.772256
68887725130448,-0.14131147,-0.27254662,9.769002
68887744985297,-0.17048465,-0.26094204,9.766432
68887764840274,-0.14546661,-0.24612427,9.812725
68887784701809,-0.07598054,-0.24645561,9.817036
68887804556914,-0.08273728,-0.24630718,9.8341465
68887824411891,-0.14006428,-0.2552055,9.835387
68887844266996,-0.13247548,-0.22897676,9.796251
68887864121973,-0.13615295,-0.22029798,9.785671
68887883976380,-0.09012009,-0.22967272,9.778788
68887903831485,-0.087748475,-0.1990303,9.742916
68887923686462,-0.112511046,-0.22099862,9.717236
68887943541439,-0.10998834,-0.24720678,9.719801
68887963396544,-0.098711066,-0.22850914,9.723086
68887983251521,-0.06370248,-0.20991461,9.73105
68888003112520,-0.07497971,-0.2286122,9.727764
68888022967625,-0.096787006,-0.23321758,9.778197
68888042822858,-0.14796676,-0.22191218,9.783031
68888062677963,-0.14806779,-0.21936622,9.768889
68888082531222,-0.1320122,-0.24279091,9.815662
68888102386327,-0.09184263,-0.22576523,9.842776
68888122241412,-0.11070763,-0.221951,9.770591
68888142096517,-0.08890562,-0.16274203,9.732422
68888161951622,-0.069003776,-0.20337944,9.722529
68888181808739,-0.06170558,-0.27092388,9.783327
68888201663844,-0.11101993,-0.2649874,9.789615
68888221518949,-0.14564611,-0.24302845,9.757311
68888241374054,-0.1435897,-0.2546365,9.755207
68888261229159,-0.11711327,-0.23421817,9.761127
68888281084264,-0.07508935,-0.22370881,9.757852
68888300947897,-0.08137947,-0.18512858,9.762407
68888320803258,-0.13196644,-0.19375132,9.744182
68888340658619,-0.15516426,-0.20994559,9.753601
68888360513980,-0.1388301,-0.18948519,9.776637
68888380375753,-0.09414591,-0.2093643,9.780038
68888400231370,-0.105912074,-0.21146573,9.799212
68888420086987,-0.12732576,-0.23169294,9.783557
68888439942476,-0.123693,-0.24067035,9.757579
68888459798093,-0.09346893,-0.23141384,9.7687645
68888479653710,-0.07092262,-0.19595197,9.728749
68888499510583,-0.071408495,-0.18014152,9.7364645
68888519366200,-0.107058175,-0.23135266,9.746969
68888539221817,-0.12179109,-0.24767363,9.749003
68888559077562,-0.11872033,-0.23678586,9.765544
68888578933179,-0.07196813,-0.21409392,9.781463
68888598783552,-0.055246167,-0.20768365,9.767896
68888618639169,-0.10145658,-0.24473971,9.81266
68888638494658,-0.11291905,-0.25876975,9.783447
68888658350147,-0.105521314,-0.2263018,9.747868
68888678197396,-0.085964926,-0.19877255,9.808657
68888698052629,-0.100973025,-0.20673257,9.802463
68888717907990,-0.1366837,-0.20478639,9.75683
68888737763351,-0.1491268,-0.24216083,9.713688
68888757618584,-0.10256033,-0.26783302,9.720901
68888777473945,-0.059643418,-0.2841035,9.751737
68888797334074,-0.014720151,-0.25767732,9.756173
68888817189563,-0.07156934,-0.22699681,9.776703
68888837045052,-0.13772349,-0.22450024,9.780059
68888856900413,-0.12146531,-0.25730756,9.764303
68888876755902,-0.0813603,-0.23937055,9.767245
68888896611287,-0.07621282,-0.18826933,9.752071
68888916466776,-0.07969928,-0.18582986,9.737934
68888936322265,-0.09583138,-0.2113821,9.743183
68888956177626,-0.07914888,-0.20255154,9.754389
68888976033115,-0.08504056,-0.22990602,9.771408
68888995888476,-0.10226537,-0.22008143,9.790335
68889015740083,-0.13783842,-0.22231585,9.748816
68889035595444,-0.115093455,-0.24419165,9.769052
68889055450805,-0.09616342,-0.25320822,9.774594
68889075306144,-0.057007603,-0.20564684,9.7658415
68889095150333,-0.0539311,-0.19633076,9.752894
68889115005438,-0.067070894,-0.21044552,9.733413
68889134860543,-0.068144456,-0.22931063,9.751925
68889154715648,-0.08224791,-0.20987162,9.794464
68889174570753,-0.076668076,-0.17252181,9.779246
68889194420634,-0.087877996,-0.19291663,9.785389
68889214275611,-0.12693262,-0.24302405,9.808283
68889234130588,-0.12550795,-0.23657453,9.763196
68889253985565,-0.05881393,-0.2039086,9.72723
68889273840542,-0.023083486,-0.20706488,9.760477
68889293695391,-0.043288995,-0.21182166,9.745164
68889313552832,-0.11997565,-0.19873762,9.726164
68889333407809,-0.12835056,-0.20230436,9.715848
68889353262786,-0.08401523,-0.26358533,9.748303
68889373117763,-0.06481583,-0.27939114,9.791558
68889392970784,-0.06963654,-0.23406273,9.787585
68889412825761,-0.09368543,-0.2223926,9.814195
68889432680738,-0.12658717,-0.25386798,9.811195
68889452535715,-0.092575975,-0.25819355,9.802873
68889472390692,-0.068304665,-0.22313412,9.774941
68889492243333,-0.053478897,-0.21129237,9.740463
68889512098310,-0.065362886,-0.21042363,9.743137
68889531953159,-0.086712085,-0.23156235,9.751654
68889551807986,-0.057929114,-0.23262167,9.714753
68889571662835,-0.025754843,-0.17782365,9.721954
68889591517812,-0.049492035,-0.17614886,9.746762
68889611371961,-0.09785707,-0.19983688,9.764745
68889631226810,-0.10818739,-0.19434148,9.770675
68889651081659,-0.101795726,-0.18243575,9.763039
68889670936508,-0.04891606,-0.13833001,9.794937
68889690794703,-0.045061544,-0.15360942,9.784858
68889710649680,-0.065115616,-0.162185,9.790758
68889730504529,-0.12242276,-0.17229374,9.779614
68889750359378,-0.10886146,-0.17307793,9.767207
68889770214355,-0.12315896,-0.20393614,9.754454
68889790069204,-0.07432821,-0.24787992,9.758363
68889809932417,-0.021853214,-0.246622,9.750913
68889829787394,-0.0030578899,-0.2522442,9.737599
68889849642499,-0.0672346,-0.25651482,9.788393
68889869497476,-0.13671593,-0.30649614,9.862634
68889889352581,-0.1796189,-0.28986418,9.8489
68889909205674,-0.18689436,-0.22431587,9.760975
68889929060651,-0.17273687,-0.19278209,9.6935425
68889948915756,-0.11054173,-0.22969903,9.718089
68889968770733,-0.121378236,-0.2602148,9.761345
68889988629298,-0.14477228,-0.2155666,9.786585
68890008484403,-0.12775202,-0.16648152,9.736893
68890028339488,-0.14244258,-0.18600863,9.699413
68890048194593,-0.09036984,-0.22409377,9.728688
68890068049698,-0.044188317,-0.23650157,9.757761
68890087904803,-0.06339939,-0.21755247,9.773478
68890107762418,-0.115649045,-0.17286643,9.76486
68890127617651,-0.1035909,-0.17955023,9.756269
68890147472884,-0.073182054,-0.22799288,9.810606
68890167327989,-0.0070870984,-0.22685896,9.844407
68890187183222,-0.019706769,-0.20460081,9.8047
68890207040973,-0.084798574,-0.18438654,9.757699
68890226896206,-0.123647735,-0.18734007,9.776915
68890246751439,-0.13380392,-0.18765955,9.776929
68890266606672,-0.11984088,-0.20213223,9.74502
68890286463477,-0.10278739,-0.20692752,9.717265
68890306318838,-0.12903623,-0.23521982,9.697759
68890326174071,-0.14021823,-0.25489172,9.738103
68890346029304,-0.12607858,-0.2716744,9.776351
68890365884537,-0.14604555,-0.2831573,9.779293
68890385739770,-0.15998067,-0.32528389,9.771809
68890405599123,-0.14628172,-0.3302486,9.763516
68890425454612,-0.097250834,-0.272435,9.776008
68890445309973,-0.09078366,-0.2602934,9.824385
68890465165334,-0.1414582,-0.31904015,9.826339
68890485020695,-0.20125149,-0.3045752,9.802601
68890504878215,-0.21881263,-0.23323281,9.757164
68890524733704,-0.13634688,-0.27059534,9.73038
68890544589193,-0.07299444,-0.3438005,9.76542
68890564444682,-0.07602866,-0.35632265,9.7388525
68890584300171,-0.11001389,-0.30174744,9.688081
68890604155660,-0.14274664,-0.28443444,9.691431
68890624008253,-0.15075117,-0.2973361,9.73297
68890643863742,-0.14153084,-0.32006216,9.755582
68890663719231,-0.14217128,-0.29964712,9.756829
68890683574720,-0.14144897,-0.26836625,9.764888
68890703423065,-0.16014904,-0.26371828,9.821831
68890723278426,-0.16227329,-0.3034448,9.831729
68890743133659,-0.14301763,-0.32209513,9.852569
68890762988892,-0.12236747,-0.28120175,9.791644
68890782844253,-0.10156871,-0.2433414,9.766675
68890802700284,-0.1517736,-0.26444244,9.741331
68890822555517,-0.15323444,-0.27354816,9.705633
68890842410878,-0.13824023,-0.2659498,9.694727
68890862266111,-0.1116036,-0.25170776,9.677631
68890882121472,-0.079449594,-0.24873132,9.71444
68890901976705,-0.13284647,-0.2726733,9.761618
68890921833506,-0.18593977,-0.30854383,9.760406
68890941688867,-0.19308975,-0.29706413,9.7527895
68890961544228,-0.15468459,-0.27721578,9.792592
68890981399567,-0.11314714,-0.3039278,9.814256
68891001245102,-0.14187099,-0.306499,9.813998
68891021100207,-0.21538928,-0.33731908,9.857647
68891040955440,-0.2663221,-0.3308071,9.927324
68891060810545,-0.2537578,-0.30147955,9.881409
68891080665650,-0.20117255,-0.25209355,9.826651
68891100513367,-0.16262072,-0.24307393,9.735522
68891120368344,-0.14198259,-0.3093913,9.677197
68891140223193,-0.12938222,-0.33472997,9.638476
68891160078170,-0.122692294,-0.28014958,9.594715
68891179933147,-0.092442565,-0.21635239,9.637621
68891199788124,-0.09896427,-0.2751759,9.704952
68891219642163,-0.14232038,-0.34964573,9.738094
68891239497140,-0.17684023,-0.32751384,9.781262
68891259351989,-0.21053392,-0.27743283,9.83189
68891279206838,-0.26144993,-0.2713448,9.903923
68891299061507,-0.2810291,-0.2968781,9.870262
68891318916356,-0.25689006,-0.3122418,9.825954
68891338771205,-0.2034148,-0.28884962,9.820049
68891358626054,-0.1289838,-0.2860194,9.798124
68891378480903,-0.09199421,-0.27926898,9.747971
68891398335752,-0.1514392,-0.27643374,9.712401
68891418195283,-0.20520087,-0.29261243,9.678237
68891438050388,-0.23198897,-0.30303547,9.674118
68891457905345,-0.21109489,-0.26614934,9.692778
68891477760322,-0.18152565,-0.2898709,9.70533
68891497615299,-0.17256375,-0.3046605,9.722074
68891517469594,-0.17275757,-0.2976354,9.740374
68891537324571,-0.13829121,-0.26038593,9.77847
68891557179420,-0.12819715,-0.25564992,9.830354
68891577034397,-0.1766463,-0.27721643,9.836554
68891596891190,-0.21745338,-0.27461278,9.795943
68891616746167,-0.20713693,-0.2231473,9.846505
68891636601144,-0.18191345,-0.2184981,9.815525
68891656456121,-0.15083775,-0.18407433,9.792297
68891676311098,-0.13518047,-0.19888689,9.753015
68891696165947,-0.10840396,-0.24264291,9.742514
68891716020248,-0.09494371,-0.24088104,9.715964
68891735875225,-0.112704925,-0.21397345,9.735537
68891755730202,-0.16380863,-0.20672318,9.705571
68891775585051,-0.19431134,-0.25986466,9.718125
68891795440028,-0.15354906,-0.262767,9.722177
68891815303289,-0.08772928,-0.25327218,9.747752
68891835158394,-0.062396634,-0.2492357,9.7775
68891855013499,-0.08810022,-0.2396462,9.786713
68891874868604,-0.14883228,-0.2474411,9.800344
68891894725655,-0.1708191,-0.24895057,9.795362
68891914580760,-0.1233754,-0.19491501,9.799883
68891934435971,-0.10702158,-0.1756647,9.810534
68891954291076,-0.123024255,-0.20733075,9.773311
68891974146309,-0.1495709,-0.22526598,9.772704
68891994001414,-0.14628656,-0.22261353,9.758558
68892013859103,-0.09714064,-0.2243068,9.728698
68892033714336,-0.06995354,-0.2267865,9.728057
68892053569569,-0.050110336,-0.21076162,9.738102
68892073424930,-0.10825185,-0.19343,9.746504
68892093280163,-0.15699892,-0.2046395,9.771604
68892113128720,-0.15729673,-0.19428273,9.790505
68892132983825,-0.1044089,-0.20556611,9.795398
68892152839058,-0.07926966,-0.19879554,9.752631
68892172694163,-0.07500761,-0.17201279,9.767158
68892192549268,-0.08076696,-0.14894424,9.800553
68892212404501,-0.12629415,-0.15658987,9.787335
68892232260376,-0.15087087,-0.13019407,9.77036
68892252115609,-0.12563108,-0.17900097,9.758961
68892271970714,-0.06877381,-0.20774814,9.785015
68892291825819,-0.043676898,-0.19777134,9.781765
68892311684154,-0.08495872,-0.17821006,9.780714
68892331539387,-0.12297075,-0.2093895,9.765638
68892351394620,-0.10431605,-0.21004528,9.762953
68892371249853,-0.05159083,-0.16133471,9.788381
68892391105086,-0.059058335,-0.13828807,9.812052
68892410959378,-0.11450003,-0.15376525,9.8023615
68892430814611,-0.14795516,-0.16773312,9.797651
68892450669844,-0.10309623,-0.14039567,9.777917
68892470525077,-0.04383369,-0.13934901,9.772815
68892490380310,-0.043743756,-0.14304231,9.755113
68892510235543,-0.10916173,-0.16622585,9.710037
68892530095348,-0.12790652,-0.16187666,9.730423
68892549950709,-0.10262428,-0.15656732,9.753099
68892569806070,-0.048988715,-0.13935181,9.72418
68892589661431,-0.008532472,-0.13383059,9.700549
68892609510544,-0.057852592,-0.12632231,9.736321
68892629365777,-0.11122155,-0.14954127,9.817699
68892649221010,-0.1490012,-0.18158445,9.94118
68892669076243,-0.1221764,-0.17279592,9.93527
68892688931476,-0.06134524,-0.11802046,9.842486
68892708786617,-0.038082417,-0.10702836,9.766424
68892728641850,-0.059897453,-0.11785778,9.679454
68892748496955,-0.062049612,-0.15830728,9.655154
68892768352188,-0.030993592,-0.12267317,9.644312
68892788207293,-0.028138375,-0.05402356,9.598245
68892808062398,-0.03370152,-0.03447521,9.689412
68892827913365,-0.06785768,-0.18349238,9.774774
68892847768470,-0.06873243,-0.2596953,9.8535385
68892867623575,-0.07115977,-0.23446131,9.894602
68892887478532,-0.07531162,-0.15579334,9.90636
68892907336917,-0.09237622,-0.15214539,9.90227
68892927192022,-0.11207318,-0.17470829,9.852112
68892947047127,-0.042527333,-0.12563848,9.802043
68892966902232,-0.032845557,-0.11265215,9.750773
68892986757337,-0.052264422,-0.14436181,9.6940975
68893006612442,-0.011898116,-0.13514721,9.688168
68893026465001,0.024841333,-0.118526876,9.678729
68893046320106,-0.006453401,-0.14743456,9.671315
68893066175211,-0.06786298,-0.1862115,9.713445
68893086030316,-0.090964966,-0.15034842,9.7492695
68893105885293,-0.07563405,-0.15123628,9.785503
68893125730822,-0.046399195,-0.1629662,9.826987
68893145585671,-0.0130341,-0.14530516,9.849396
68893165440520,-0.062623635,-0.13100784,9.847458
68893185295497,-0.09626685,-0.13952224,9.831564
68893205150382,-0.042409495,-0.1286087,9.8185425
68893225005359,-0.01271597,-0.10384059,9.800887
68893244860208,-0.038380265,-0.09667151,9.785326
68893264715057,-0.060791396,-0.13981873,9.753383
68893284569906,-0.041046266,-0.12203371,9.734541
68893304424883,-0.016120732,-0.10702787,9.722463
68893324274894,0.0058747097,-0.10787578,9.683216
68893344129615,7.192144E-4,-0.103587806,9.725396
68893363984314,-0.021155473,-0.106495924,9.766399
68893383839035,-0.04251533,-0.07575026,9.725849
68893403693884,-0.055784456,-0.083751336,9.748839
68893423548635,-0.04610087,-0.12029166,9.790863
68893443403356,0.01607174,-0.15521254,9.842539
68893463258205,0.026191434,-0.15325853,9.852551
68893483112926,-0.007136631,-0.119522505,9.802891
68893502975419,-0.015336903,-0.07587245,9.769438
68893522830396,-0.032555923,-0.06761977,9.758878
68893542685245,-0.025512796,-0.07498168,9.781838
68893562540222,-0.041787803,-0.099072725,9.721644
68893582395071,-0.028394947,-0.09561378,9.685669
68893602250048,-0.037989564,-0.11150747,9.73398
68893622108237,-0.035916783,-0.1765717,9.751457
68893641963214,0.009944309,-0.17662653,9.82656
68893661818319,-0.024443224,-0.16139404,9.812512
68893681673296,-0.073841795,-0.15333599,9.807014
68893701528273,-0.1039003,-0.16604997,9.834144
68893721380982,-0.08213535,-0.15823826,9.823227
68893741235959,-0.02412277,-0.11642451,9.840074
68893761090808,-0.0138598,-0.1202226,9.824716
68893780945657,-0.042659182,-0.12302987,9.768443
68893800800634,-0.09892373,-0.114210494,9.719328
68893820655483,-0.06583918,-0.09090761,9.672182
68893840512538,-0.04547632,-0.09154148,9.679223
68893860367515,-0.06578335,-0.14678386,9.666989
68893880222492,-0.06920875,-0.19750178,9.708989
68893900077341,-0.059373073,-0.18482928,9.755004
68893919932338,-0.046589706,-0.161018,9.73973
68893939787315,-0.069821626,-0.1720728,9.83525
68893959642292,-0.11340206,-0.18642277,9.850012
68893979497269,-0.15997677,-0.16268402,9.796213
68893999352118,-0.17422317,-0.14178355,9.773308
68894019213081,-0.11820306,-0.1996272,9.760061
68894039068186,-0.031961236,-0.19439694,9.75552
68894058923163,-0.019700479,-0.15314086,9.757992
68894078778268,-0.07354097,-0.16447876,9.77337
68894098633373,-0.11297487,-0.20289351,9.788638
68894118488350,-0.12806427,-0.20951784,9.755918
68894138340029,-0.06908795,-0.1439354,9.784338
68894158195134,-0.03424193,-0.12266923,9.739244
68894178050111,-0.07777992,-0.14022571,9.714494
68894197905216,-0.09439802,-0.14996774,9.727459
68894217764887,-0.055509765,-0.14514376,9.774288
68894237619992,-0.05407743,-0.18979272,9.79301
68894257475097,-0.08869832,-0.22243744,9.748443
68894277330202,-0.122760125,-0.21683887,9.749694
68894297185307,-0.14589633,-0.23315883,9.798026
68894317044785,-0.13627371,-0.21654178,9.783915
68894336900018,-0.08179513,-0.17180142,9.76481
68894356755251,-0.087341,-0.15696812,9.76752
68894376610484,-0.09668256,-0.18351774,9.760373
68894396465717,-0.09958489,-0.1986486,9.767405
68894416321078,-0.07391724,-0.15357187,9.751
68894436172495,-0.030002462,-0.0938906,9.7809
68894456027728,-0.045544207,-0.08555339,9.76061
68894475882833,-0.08205882,-0.10926162,9.771203
68894495738066,-0.10433238,-0.1565893,9.743375
68894515604003,-0.049331393,-0.12929367,9.706524
68894535459492,-0.035649214,-0.0765115,9.769468
68894555314853,-0.07297906,-0.12702134,9.804444
68894575170342,-0.12468131,-0.1555938,9.753432
68894595025831,-0.14097555,-0.12544292,9.688403
68894614881320,-0.10704319,-0.12492775,9.729625
68894634741509,-0.059474498,-0.17799252,9.8316765
68894654597126,-0.048582688,-0.2563848,9.800451
68894674452743,-0.0617696,-0.21698058,9.741932
68894694308232,-0.062760726,-0.13111821,9.75253
68894714163849,-0.119697504,-0.1505619,9.7932415
68894734013604,-0.16276114,-0.18078516,9.819743
68894753868965,-0.17109671,-0.18677221,9.784656
68894773724454,-0.14738739,-0.18917003,9.725648
68894793579793,-0.08180915,-0.1721629,9.74771
68894813434740,-0.028614761,-0.13883835,9.763063
68894833290229,0.012161933,-0.08834764,9.766995
68894853145590,-0.017098835,-0.12686701,9.784605
68894873001079,-0.11745013,-0.16840927,9.787578
68894892856440,-0.1501689,-0.15073462,9.808028
68894912711929,-0.116797596,-0.0816135,9.78373
68894932560530,-0.04214719,-0.031267714,9.775224
68894952415891,-0.0312833,-0.053060595,9.783392
68894972271124,-0.06953158,-0.1313312,9.752541
68894992126357,-0.07942651,-0.1403731,9.743681
68895011981718,-0.013499364,-0.081964225,9.7366905
68895031827443,0.053166267,-0.045730498,9.757338
68895051682420,0.012210056,-0.035802968,9.771585
68895071537525,-0.07613587,-0.028938122,9.756418
68895091392502,-0.13517432,-0.09010435,9.779899
68895111244121,-0.038481295,-0.094125554,9.771183
68895131099226,0.052865524,-0.034587637,9.790983
68895150954203,0.0031407482,-0.012604999,9.861002
68895170809180,-0.051303618,-0.062484726,9.794005
68895190664285,-0.0907532,-0.05173434,9.698879
68895210519262,-0.022309326,-0.017961808,9.723939
68895230372343,0.06563202,-0.010352093,9.773354
68895250227320,0.033645917,-0.070603445,9.777336
68895270082276,0.13873033,0.0012648747,9.749016
68895289937253,0.12622765,-0.042601984,9.788969
68895309792230,0.12335661,0.0043968665,9.816847
68895329643087,0.0727897,0.06530452,9.794961
68895349497936,-0.0041258205,0.06470545,9.726731
68895369352913,-0.0125728715,0.040514067,9.715616
68895389207762,0.071259975,-0.046372823,9.741927
68895409062611,0.13709007,-0.050122757,9.773343
68895428917460,0.063271515,-0.0022725828,9.756261
68895448769383,-0.037503187,0.05959089,9.751876
68895468624232,-0.0014219604,0.06635176,9.801601
68895488479081,0.11787776,0.044096027,9.840918
68895508333802,0.14164567,0.012741597,9.822972
68895528186371,0.047034252,0.008073457,9.78221
68895548041092,-0.0018392007,-0.0018834819,9.7956085
68895567895813,0.060901593,0.013885435,9.760054
68895587750534,0.11923365,0.021355797,9.728362
68895607605255,0.083501756,0.043987308,9.712453
68895627457838,0.017238101,0.09226168,9.733091
68895647312559,0.066693306,0.079295605,9.755724
68895667167152,0.10794178,0.057790574,9.753635
68895687021873,0.12368169,0.037515853,9.765157
68895706876594,0.1081268,0.028834436,9.800003
68895726731315,0.07156632,0.05699292,9.881072
68895746587130,0.0932779,-0.003314249,9.817738
68895766441723,0.12671624,-0.045206867,9.764662
68895786296316,0.067193314,0.0036530027,9.788024
68895806150909,0.045682456,0.030453252,9.737326
68895826010068,0.013274541,0.031056002,9.733292
68895845864789,0.10541223,-0.030445728,9.711924
68895865719510,0.15676962,0.0071484805,9.725844
68895885574231,0.13907613,0.041691724,9.742334
68895905428952,0.108913705,0.037580334,9.755109
68895925287867,0.121051006,-0.0048852903,9.776387
68895945142588,0.166609,-0.049548496,9.757773
68895964997437,0.13380417,0.006238173,9.790772
68895984852158,0.113548644,0.038548626,9.800493
68896004706879,0.10246802,0.029448844,9.768705
68896024561728,0.10314561,-0.006627752,9.782044
68896044421277,0.09630656,-0.006213813,9.792973
68896064276126,0.08445314,0.008720464,9.782362
68896084130975,0.08042773,0.016587434,9.797393
68896103985696,0.12716214,0.035994366,9.786013
68896123844161,0.12735187,-0.0071506235,9.7510195
68896143699010,0.12140762,-0.029003756,9.7528515
68896163553987,0.13985096,-0.025409842,9.761634
68896183408964,0.10997339,0.07740718,9.716991
68896203263941,0.056402065,0.082576565,9.745735
68896223118896,-0.13257411,0.12529272,9.743547
68896242979829,-0.15752779,0.203754,9.744666
68896262834934,-0.16567996,0.18697006,9.734995
68896282690039,-0.1583968,0.09081563,9.73974
68896302545272,-0.15325946,0.060075533,9.779862
68896322400377,-0.17881444,0.14658795,9.838693
68896342252374,-0.19787584,0.21271425,9.846763
68896362107479,-0.18548684,0.20846228,9.841919
68896381962712,-0.16342273,0.12761682,9.830766
68896401817817,-0.179769,0.09207262,9.779894
68896421672380,-0.17773886,0.12692933,9.769883
68896441527613,-0.1512684,0.14221682,9.780351
68896461382718,-0.13702576,0.13114254,9.705711
68896481237951,-0.10708111,0.07084238,9.659966
68896501093056,-0.13020216,0.0464636,9.684995
68896520948161,-0.19794197,0.10467051,9.73183
68896540811288,-0.2068951,0.19225599,9.742178
68896560666649,-0.18891571,0.22127828,9.779266
68896580522010,-0.18641964,0.18996157,9.82143
68896600377371,-0.19074775,0.13168709,9.833094
68896620232604,-0.17659003,0.11903271,9.8365965
68896640085173,-0.1818602,0.20091446,9.816372
68896659940534,-0.1954934,0.25850376,9.770028
68896679795767,-0.16820791,0.16929008,9.723919
68896699651107,-0.12539133,0.010885218,9.754756
68896719506244,-0.1559755,0.011301236,9.761487
68896739361605,-0.21008189,0.11591461,9.737569
68896759216838,-0.18177505,0.19384375,9.6935
68896779072071,-0.15481272,0.1749652,9.716613
68896798927304,-0.13416214,0.09709233,9.754743
68896818782665,-0.18137994,0.092824735,9.780776
68896838633248,-0.21013841,0.126827,9.775832
68896858488481,-0.19781874,0.1529653,9.771395
68896878343586,-0.18022908,0.13752463,9.792615
68896898198819,-0.16420104,0.14974001,9.826332
68896918054052,-0.17541572,0.16111161,9.847959
68896937912167,-0.21845081,0.1733013,9.846817
68896957767400,-0.2049532,0.14306661,9.834173
68896977622633,-0.1410337,0.094269834,9.792715
68896997477866,-0.12652348,0.11589825,9.7329
68897017333099,-0.17930886,0.16229087,9.7058
68897037188204,-0.15786873,0.15981293,9.695145
68897057042975,-0.12141519,0.09225391,9.664696
68897076898208,-0.12944238,0.080866046,9.7201
68897096753441,-0.19059779,0.13047877,9.77662
68897116608546,-0.18675204,0.17957604,9.774016
68897136453941,-0.116915256,0.13770956,9.779463
68897156309046,-0.12142395,0.13578978,9.798293
68897176164001,-0.17776428,0.109186,9.8261175
68897196018978,-0.20566611,0.12629643,9.8325615
68897215873955,-0.20008601,0.14593466,9.803688
68897235719486,-0.169543,0.11112962,9.766647
68897255574207,-0.16531458,0.04495658,9.755038
68897275428928,-0.16170199,0.021928806,9.778416
68897295283777,-0.16854729,0.05759137,9.756452
68897315138498,-0.17748548,0.11773192,9.750333
68897334993219,-0.17458989,0.15678844,9.708122
68897354843496,-0.12518212,0.113401584,9.701672
68897374698089,-0.13835289,0.091698065,9.731646
68897394552810,-0.18565433,0.06585772,9.753006
68897414407531,-0.21317601,0.07257527,9.784242
68897434259144,-0.21322937,0.13627018,9.799144
68897454113737,-0.17240821,0.14435628,9.80399
68897473968330,-0.17247811,0.12027655,9.83647
68897493822923,-0.17628874,0.08310236,9.839455
68897513677516,-0.17784922,0.1143621,9.803994
68897533538925,-0.18891205,0.14046209,9.776697
68897553393646,-0.16775915,0.107359745,9.735423
68897573248367,-0.16704434,0.04354675,9.735269
68897593102960,-0.18084921,0.034000415,9.715976
68897612957681,-0.20072423,0.08235446,9.700919
68897632812402,-0.21914947,0.13733682,9.739523
68897652669435,-0.17886429,0.113847286,9.753469
68897672524156,-0.17370757,0.07763369,9.735588
68897692379005,-0.15532675,0.04361607,9.759099
68897712233726,-0.17449674,0.077736884,9.776855
68897732090959,-0.18741474,0.12316678,9.776078
68897751945808,-0.1936437,0.13567676,9.806368
68897771800657,-0.19784665,0.093567625,9.835585
68897791655378,-0.18575534,0.07029149,9.787084
68897811510227,-0.119588725,0.052202255,9.785059
68897831365076,-0.17508657,0.101628765,9.810422
68897851222773,-0.26220652,0.13187283,9.801036
68897871077750,-0.26653066,0.1373649,9.780644
68897890932599,-0.19832896,0.09015844,9.762468
68897910787448,-0.14729962,0.025819829,9.707312
68897930642297,-0.16537392,0.037707858,9.6988735
68897950498902,-0.18616857,0.06858366,9.723698
68897970353751,-0.20674025,0.07731161,9.727035
68897990208600,-0.19611782,0.08658016,9.8043585
68898010063449,-0.17380595,0.06068111,9.801654
68898029928374,-0.17164977,0.09790457,9.80869
68898049783351,-0.18485929,0.13821195,9.742172
68898069638328,-0.14427635,0.045957282,9.719689
68898089493433,-0.18975842,0.02640171,9.731101
68898109348410,-0.2618592,0.045055,9.746633
68898129203363,-0.22840509,0.010673201,9.792512
68898149066368,-0.20979863,0.016064359,9.827757
68898168921601,-0.22128224,1.1946025E-5,9.849457
68898188776834,-0.25818157,0.010013733,9.811422
68898208632067,-0.23000765,0.039686296,9.761579
68898228487300,-0.16219658,0.05988158,9.716183
68898248338083,-0.15709454,0.048785545,9.6728735
68898268193188,-0.18442306,-0.015240225,9.716786
68898288048421,-0.19434841,-0.013724266,9.749134
68898307903526,-0.19650453,0.01001636,9.754451
68898327753669,-0.20942335,0.036839116,9.804201
68898347608902,-0.24504459,0.026408441,9.836319
68898367464007,-0.25674832,0.022392903,9.855968
68898387319112,-0.23043282,0.053440377,9.842372
68898407174217,-0.21216367,0.08115427,9.754115
68898427029450,-0.21841937,0.06440248,9.776743
68898446882661,-0.19313838,0.0020618925,9.791323
68898466737766,-0.12652577,-0.017686006,9.710194
68898486592871,-0.100725226,0.0029244625,9.747289
68898506447976,-0.21874192,0.01772865,9.743367
68898526302953,-0.24716596,0.031147238,9.777638
68898546161994,-0.18210167,0.024928223,9.764911
68898566017227,-0.17729956,0.032775473,9.7685
68898585872460,-0.26089495,0.07332149,9.769321
68898605727673,-0.16416897,0.19466029,9.762992
68898625582906,-0.1551337,0.114758655,9.770852
68898645438139,-0.15928185,0.09226535,9.784142
68898665295238,-0.14658129,0.1558384,9.7714
68898685150599,-0.10259203,0.18894751,9.795416
68898705005960,-0.09321464,0.16170464,9.79669
68898724861321,-0.10577771,0.11882731,9.773721
68898744713446,-0.12931095,0.115289114,9.767724
68898764568679,-0.14235124,0.10471377,9.759135
68898784423912,-0.14201558,0.08379236,9.773034
68898804279145,-0.14759499,0.063892744,9.771278
68898824134378,-0.14153238,0.043940704,9.759257
68898843984387,-0.11512375,0.014009582,9.717277
68898863839492,-0.07316937,0.008509977,9.705097
68898883694597,-0.06165858,0.061342195,9.710058
68898903549702,-0.10344348,0.08749939,9.761999
68898923404807,-0.0812085,0.07845622,9.810172
68898943259912,-0.08126816,0.097349,9.81839
68898963105637,-0.10936324,0.13378043,9.818192
68898982960486,-0.148511,0.12090927,9.876117
68899002815335,-0.16435681,0.08528475,9.915324
68899022670184,-0.14525181,0.10043469,9.905063
68899042518785,-0.11633939,0.140963,9.870033
68899062373506,-0.089639194,0.18637736,9.744184
68899082228207,0.06554397,0.11973401,9.654612
68899102082800,-7.65531E-4,0.102070354,9.635895
68899121937521,-0.02786931,0.0966332,9.602815
68899141789074,0.014496998,0.10010374,9.616777
68899161643667,0.056500714,0.18324825,9.643258
68899181498388,0.027891602,0.20767249,9.728922
68899201352981,0.012126304,0.19312504,9.828849
68899221207574,0.09383189,0.22391994,9.874407
68899241062167,0.1552157,0.253799,9.912839
68899260912694,0.15698989,0.25497672,9.890731
68899280767159,0.070118695,0.22053261,9.853124
68899300621624,0.069281675,0.16627333,9.819032
68899320476217,0.11541181,0.1753173,9.729811
68899340328914,0.13047035,0.25375196,9.669556
68899360183379,0.08840754,0.2720082,9.680903
68899380037844,0.019960035,0.22726317,9.654865
68899399892181,-0.02614527,0.20384865,9.64447
68899419746646,-0.019244198,0.21587984,9.673945
68899439601111,0.07380425,0.31739,9.731187
68899459454938,0.13472192,0.42744118,9.823407
68899479309403,0.15385868,0.46135992,9.8513975
68899499163740,0.063740484,0.34028822,9.839014
68899519018077,0.036605638,0.24111512,9.849456
68899538872542,0.06256387,0.27277145,9.84622
68899558730594,0.08548925,0.27942607,9.788014
68899578585059,0.028755292,0.20657153,9.760234
68899598439524,0.05585861,0.11984596,9.731625
68899618293989,0.116776,0.11616824,9.719482
68899638156166,0.1569706,0.10743713,9.6889925
68899658010887,0.12560429,0.09567326,9.647624
68899677865480,0.042664576,0.0606462,9.71312
68899697720201,0.03304155,0.111244306,9.740694
68899717574794,0.06016729,0.13294642,9.768169
68899737429515,0.13436072,0.15007676,9.830033
68899757287272,0.15513258,0.15597098,9.853096
68899777141993,0.114432804,0.114920475,9.855972
68899796996842,0.09346965,0.08518646,9.824999
68899816851563,0.07642892,0.14415447,9.751406
68899836706412,0.059301943,0.14391328,9.780821
68899856561091,0.11467003,0.15747623,9.804589
68899876415812,0.14333673,0.13080329,9.745791
68899896270661,0.16193768,0.1497634,9.725187
68899916125382,0.10632255,0.2400042,9.731571
68899935982121,0.03596994,0.23188967,9.741048
68899955836842,-0.020965414,0.17744973,9.709987
68899975691563,0.023079319,0.136781,9.772737
68899995546284,0.1410845,0.16828816,9.790223
68900015401133,0.16928253,0.13883132,9.792748
68900035255831,0.1959254,0.11683581,9.790947
68900055112948,0.1420641,0.16543569,9.800673
68900074967797,0.09326356,0.1659523,9.791465
68900094822518,0.06333437,0.19182883,9.788945
68900114677367,0.07273152,0.16450542,9.790559
68900134532088,0.088179484,0.09628047,9.764661
68900154389533,0.10001101,0.09386509,9.747294
68900174244382,0.12034267,0.11387731,9.786439
68900194099231,0.09428336,0.07912578,9.755021
68900213954208,0.07332299,0.0670424,9.736476
68900233809057,0.10612683,0.10484008,9.730446
68900253663906,0.032037754,0.23727232,9.741816
68900273526705,0.16129346,0.2383262,9.767633
68900293381810,0.17186756,0.20905572,9.732996
68900313236787,0.03601681,0.19171795,9.800406
68900333091892,0.08599254,0.22682095,9.776725
68900352946443,0.17965868,0.23453882,9.813372
68900372801548,0.30352393,0.17970397,9.873346
68900392656653,0.30868948,0.17396967,9.835053
68900412511758,0.13324247,0.1610829,9.760586
68900432366863,0.029619178,0.14657712,9.745185
68900452226930,0.08834999,0.17172255,9.754284
68900472082163,0.14894237,0.17831874,9.776151
68900491937396,0.13257407,0.13582717,9.752744
68900511792606,0.15108721,0.09500901,9.75237
68900531647839,0.124885164,0.095896065,9.803185
68900551503072,0.15480234,0.12434275,9.827598
68900571360445,0.19782758,0.11172434,9.799207
68900591215678,0.1600821,0.119850114,9.745061
68900611071039,0.10373505,0.12514329,9.714898
68900630926272,0.041075252,0.099673636,9.753696
68900650782743,0.034345083,0.093970925,9.820989
68900670638104,0.07851533,0.07987462,9.797616
68900690493465,0.14244933,0.0930557,9.721762
68900710348698,0.12732463,0.08961675,9.677337
68900730204059,0.055810776,0.08764316,9.6862135
68900750065144,0.020536037,0.08571509,9.738271
68900769920505,0.021577984,0.12835798,9.787166
68900789775994,0.060656067,0.14133726,9.7695
68900809631355,0.13026555,0.12112251,9.788813
68900829486844,0.11154961,0.10326207,9.851831
68900849342205,0.081182756,0.09979157,9.8623085
68900869191062,0.11428195,0.119702965,9.761182
68900889046423,0.04892282,0.14078395,9.719436
68900908901656,0.03454753,0.09071613,9.741118
68900928757017,0.09630478,0.058972795,9.750828
68900948602152,0.18474355,0.07528995,9.750314
68900968457257,0.15719062,0.106848106,9.749892
68900988312340,0.08584934,0.09353536,9.778311
68901008167445,0.10206821,0.13018855,9.797757
68901028022550,0.09219873,0.117109954,9.793473
68901047877655,0.1597033,0.071415454,9.825658
68901067730920,0.26233086,0.11712856,9.8205595
68901087586025,0.23549524,0.16800053,9.785995
68901107441002,0.17213456,0.122108415,9.750717
68901127296107,0.107619114,0.090237826,9.786427
68901147151084,0.15879636,0.076823026,9.773747
68901167000455,0.22562073,0.10924687,9.737723
68901186855432,0.19667196,0.13343622,9.731909
68901206710409,0.11728251,0.12630521,9.738409
68901226565386,0.13185245,0.10781266,9.739875
68901246423087,0.15210168,0.07553187,9.777045
68901266278064,0.22222446,0.100230366,9.751651
68901286133041,0.24608651,0.1167304,9.773507
68901305988018,0.22903743,0.094737194,9.810301
68901325843123,0.22793442,0.12566891,9.820171
68901345698100,0.23273265,0.16984838,9.805463
68901365550785,0.19382136,0.18069053,9.812467
68901385405634,0.19248156,0.16557789,9.775996
68901405260611,0.15655945,0.15846817,9.773341
68901425115588,0.10572748,0.14959954,9.76756
68901444970437,0.089044675,0.17121609,9.756068
68901464822736,0.034500826,0.15561768,9.740537
68901484677585,-0.0025936745,0.10960538,9.707005
68901504532434,-0.0046367524,0.07969661,9.709763
68901524387283,-4.090291E-4,0.075751394,9.7637
68901544244344,0.06085813,0.09452343,9.788028
68901564099193,0.05536593,0.13341874,9.779392
68901583954042,0.015260938,0.17108655,9.802518
68901603808891,0.025415067,0.14503151,9.791628
68901623663868,0.069775425,0.07964098,9.78507
68901643518717,0.128353,-2.1891849E-4,9.72157
68901663370646,0.1477131,-0.001607662,9.722928
68901683225495,0.09220511,0.058116037,9.726331
68901703080344,0.048653446,0.14961332,9.764938
68901722935193,0.049859613,0.1771928,9.767498
68901742789914,0.017961042,0.13972017,9.778424
68901762645343,0.054825403,0.09767457,9.792772
68901782500064,0.123890884,0.113750994,9.770774
68901802354913,0.14344966,0.11309859,9.757389
68901822209634,0.12661618,0.101621576,9.770205
68901842064483,0.10417788,0.070036165,9.791668
68901861919204,0.12053039,0.10931327,9.788794
68901881774359,0.12420217,0.18751101,9.782633
68901901629208,0.08832503,0.19319373,9.771929
68901921484057,0.07116136,0.15680462,9.759765
68901941338757,0.033828624,0.09552334,9.743854
68901961189084,0.13024811,0.14428726,9.770386
68901981043677,0.12977129,0.16312416,9.788952
68902000898398,0.078490704,0.15752243,9.778489
68902020753119,0.041458838,0.19030261,9.765907
68902040607712,0.06740748,0.19954185,9.739591
68902060465353,0.062429864,0.20069335,9.75405
68902080320074,0.058451083,0.21889874,9.748454
68902100174795,0.08296556,0.2311649,9.748378
68902120029516,0.05680291,0.18855122,9.829247
68902139884365,0.0392214,0.17877802,9.826354
68902159739086,0.06608851,0.17625476,9.782645
68902179596265,0.07442936,0.20245901,9.758437
68902199450986,0.053408258,0.21921639,9.758198
68902219305835,0.010799425,0.16211283,9.742127
68902239160556,-1.753896E-4,0.12144377,9.751903
68902259018691,0.027892178,0.16563141,9.709648
68902278873540,0.023436362,0.20267373,9.722618
68902298728389,-0.0047699297,0.18521003,9.73096
68902318583238,0.044973128,0.1946516,9.714009
68902338438215,0.11820825,0.19971578,9.699941
68902358293790,0.10192169,0.18442056,9.676114
68902378148767,0.04411648,0.15376423,9.706656
68902398003744,-0.0014606937,0.15701154,9.718874
68902417858698,-0.019280342,0.20004371,9.697435
68902437713803,0.035215165,0.21242428,9.645761
68902457568780,0.015430839,0.1476712,9.63458
68902477424495,-0.011252569,0.13291903,9.62666
68902497279472,-0.03674201,0.15136123,9.647045
68902517134449,-0.01521138,0.18555331,9.602795
68902536989426,0.026813863,0.18095775,9.595061
68902556844055,0.03710933,0.17130068,9.618924
68902576699032,-0.002259437,0.15054591,9.628713
68902596554009,-0.013091704,0.16348733,9.623719
68902616408858,0.024487792,0.20466067,9.622486
68902636263835,0.04725875,0.21157399,9.561131
68902656118812,0.04232592,0.16038084,9.552876
68902675978173,0.043201588,0.11527085,9.534002
68902695833150,0.07893154,0.1569811,9.508303
68902715688127,0.09781775,0.2266684,9.489415
68902735543232,0.05463806,0.24798499,9.503931
68902755398209,0.016693788,0.18898049,9.503393
68902775257690,0.04634844,0.14710937,9.562598
68902795112795,0.10591959,0.2005254,9.589043
68902814967900,0.15135156,0.23546252,9.525886
68902834822877,0.10000088,0.15386857,9.4510765
68902854676288,-0.014678278,0.1011036,9.42295
68902874531393,-0.1006006,0.10149787,9.469077
68902894386476,-0.16979945,0.024410428,9.444402
68902914241581,-0.09835556,0.107386455,9.412281
68902934096686,-0.03060653,0.12146163,9.421643
68902953951791,-0.06320332,0.090758465,9.455549
68902973801674,-0.11514085,0.039650023,9.43462
68902993656651,-0.106754564,0.03527722,9.360901
68903013511756,-0.052084267,0.08117008,9.295147
68903033366733,-0.0480358,0.14601664,9.3196945
68903053221710,-0.08164026,0.11967421,9.350659
68903073066271,-0.11687461,0.06359562,9.330292
68903092921120,-0.093607254,0.06665938,9.319062
68903112775841,-0.07240013,0.11673632,9.325584
68903132630690,-0.09331316,0.17176066,9.351922
68903152486661,-0.096533634,0.12176962,9.362769
68903172341510,-0.12144993,0.07365559,9.340924
68903192196359,-0.12845774,0.07928387,9.302911
68903212051208,-0.13253976,0.123567514,9.264648
68903231906057,-0.15275341,0.12659854,9.198053
68903251760906,-0.09600879,0.094799645,9.189977
68903271618345,-0.052874207,0.083547406,9.217027
68903291473194,-0.1156316,0.16633111,9.283257
68903311328043,-0.19922526,0.23144409,9.240704
68903331182892,-0.16280238,0.11659982,9.163266
68903351037741,-0.102527834,0.061868805,9.1843405
68903370888916,-0.11365766,-0.080354296,9.207489
68903390743765,-0.15881883,-0.12633824,9.242756
68903410598614,-0.11624518,-0.05268289,9.298164
68903430453463,-0.12726939,0.009019607,9.261054
68903450308184,-0.22264001,-0.022060746,9.183302
68903470163033,-0.14825462,-0.060603943,9.12355
68903490020516,-0.08243012,-0.062843345,9.099037
68903509875365,-0.17562012,-0.0761854,9.096654
68903529730214,-0.18365452,-0.10319978,9.136046
68903549585063,-0.13990167,-0.07425293,9.22234
68903569438024,-0.12201072,-0.0770958,9.296847
68903589292745,-0.11372879,-0.13932733,9.316581
68903609147466,-0.08868177,-0.12377468,9.301922
68903629002315,-0.15179676,-0.06213343,9.215265
68903648857036,-0.24436097,-0.036383975,9.169339
68903668713317,-0.2875372,-0.06730308,9.160588
68903688568038,-0.17628537,-0.15624097,9.159276
68903708422887,-0.04834717,-0.185404,9.152847
68903728277608,-0.08589856,-0.13838235,9.142488
68903748132457,-0.21826145,-0.14746802,9.162992
68903767987178,-0.23638457,-0.13730684,9.188979
68903787848135,-0.13340852,-0.13848564,9.217329
68903807702984,-0.06959025,-0.109780535,9.215957
68903827557961,-0.07872268,-0.10989548,9.231926
68903847412788,-0.062325038,-0.10459432,9.27613
68903867269203,-0.16144119,-0.10187642,9.232685
68903887124180,-0.16604693,-0.16146329,9.188632
68903906979157,-0.045738906,-0.17085023,9.199949
68903926834134,0.07819985,-0.13674419,9.177318
68903946688983,0.08482002,-0.1486123,9.148797
68903966543674,-0.040535603,-0.16997634,9.09822
68903986398651,-0.08556124,-0.1619053,9.083807
68904006253500,-0.13986796,-0.13743387,9.135033
68904026108477,-0.14659314,-0.17880803,9.159537
68904045963326,-0.11826947,-0.15265952,9.203501
68904065818175,-0.04895607,-0.21183373,9.239185
68904085671452,-0.004916579,-0.30980843,9.190017
68904105526301,-0.09570592,-0.23496269,9.144235
68904125381150,-0.19739868,-0.12235596,9.213754
68904145235999,-0.21704835,0.019732347,9.307344
68904165094994,-0.1954927,-0.0056855795,9.262387
68904184949971,-0.1418683,-0.086503044,9.124033
68904204804948,-0.11087028,-0.1804264,9.104343
68904224659925,-0.10045081,-0.1801378,9.194533
68904244514902,-0.07351143,-0.109849066,9.236099
68904264369879,-0.024041904,-0.05858731,9.1536455
68904284226076,0.009188181,-0.09671246,9.131165
68904304081181,-0.033469565,-0.14793691,9.145798
68904323936137,-0.0025017643,-0.27734938,9.165914
68904343791242,-0.010207662,-0.28591603,9.2204685
68904363646219,-0.049741197,-0.22854577,9.226206
68904383508132,-0.0229113,-0.17116839,9.199262
68904403363365,0.026131434,-0.20340534,9.163695
68904423218598,0.032625344,-0.27106324,9.159141
68904443073831,0.036490966,-0.31133047,9.15452
68904462925902,8.614732E-4,-0.2946368,9.157996
68904482781135,-0.0069752526,-0.24845973,9.166138
68904502636368,0.028483802,-0.19261695,9.201996
68904522491601,0.011094749,-0.20643097,9.202312
68904542346834,-0.04728671,-0.27186403,9.228374
68904562202067,-0.106887825,-0.20046192,9.251459
68904582056178,-0.022419808,-0.10536581,9.19852
68904601911283,-0.13386688,-0.043186992,9.196535
68904621766516,0.014206134,-0.18563013,9.193717
68904641621749,-0.019147435,-0.26344904,9.166165
68904661476854,0.48309442,-0.56841755,9.13181
68904681331215,0.22284552,-0.42764232,9.260152
68904701186320,0.17818409,0.14457683,9.163271
68904721041425,-0.07809291,0.47429946,9.329204
68904740896530,-0.2577201,0.094422095,9.358577
68904760749491,-0.6136963,-0.11324649,9.136263
68904780604468,-0.45081103,-0.19650894,8.9416895
68904800459552,0.6006843,-0.05859147,9.126725
68904820314657,0.4299869,0.07907959,9.284182
68904840169634,0.3471413,0.10535802,9.095579
68904860024739,0.124831855,0.014974608,9.443295
68904879883008,-0.017530764,-0.0021859969,9.572235
68904899738241,2.3970912E-4,-0.16577561,9.320068
68904919593346,0.24967983,-0.33961332,9.233663
68904939448451,0.057414353,-0.37677258,9.30996
68904959303684,0.06312691,-0.34082857,9.124287
68904979149877,0.17194702,-0.22863613,9.267153
68904999004854,0.04537155,-0.07899993,9.345548
68905018859703,0.23149051,-0.046321638,9.373975
68905038714680,0.07112267,-0.14472131,9.3654995
68905058569657,0.17502578,-0.07877565,9.186709
68905078424506,0.2782772,0.043425452,9.372891
68905098273907,0.1515486,0.0012559808,9.248623
68905118128756,0.40399757,-0.2667204,9.176277
68905137983605,0.10832885,-0.46471623,10.170399
68905157838454,-0.81462204,-0.45660418,10.190902
68905177693303,-1.4073802,-0.64994884,9.815085
68905197542612,-1.9647522,-0.86272013,9.612503
68905217397333,-2.065273,-0.7705082,9.55868
68905237251926,-1.6679244,-1.1142148,9.422745
68905257106647,-1.4667546,-1.8410149,9.461735
68905276961345,1.2528031,-3.8321087,9.020583
68905296812452,1.9108907,-3.5532088,8.75773
68905316667045,11.172943,-0.27596042,0.86462224
68905336521638,12.199971,-3.4381645,6.9424067
68905356376231,-3.7027361,0.40458238,13.827759
68905376230824,-4.164983,11.184602,11.913964
68905396083515,-0.77990234,1.6147821,9.250199
68905415938108,-1.2423401,-1.3587071,9.495351
68905435792701,-0.37300637,2.4809983,9.173207
68905455647294,-0.7663791,-2.2094934,9.159696
68905475501887,-1.6357192,-6.4961224,11.670944
68905495355036,-1.3981336,-4.06239,11.710087
68905515209501,-1.5182517,3.7072923,9.859874
68905535064094,-3.3790655,3.6978002,10.771945
68905554918559,-4.5987215,3.3351285,11.889954
68905574773152,0.08441484,5.1454444,9.568791
68905594629507,3.4603417,3.7376378,8.054239
68905614484100,2.7070935,1.6833426,9.814634
68905634338693,2.1181228,0.75622773,10.90784
68905654193286,1.7815701,0.43740693,10.376565
68905674047879,2.2424004,0.2615499,8.763079
68905693904794,2.299581,0.8324647,7.9139433
68905713759387,2.6063173,0.91925025,8.323194
68905733613852,4.1532545,-1.4478542,9.173762
68905753468425,1.3066435,-0.9677438,8.206847
68905773323018,-0.38223577,-0.10618009,6.865487
68905793182099,2.523336,0.0019632035,7.9924707
68905813036692,3.1114788,-0.85737616,7.2403936
68905832891413,0.9255356,-0.811457,7.0546675
68905852746006,0.87469155,-1.3123397,8.596285
68905872600599,0.32297012,0.968004,9.434896
68905892452918,-0.341485,3.2194147,11.821765
68905912307511,-0.25718242,1.6525522,14.697799
68905932162104,-0.7084028,0.8770082,11.744956
68905952016697,0.20986642,0.25603786,8.7956295
68905971871290,2.6592705,-1.1686884,8.665638
68905991732943,1.7959735,0.603828,11.065939
68906011587664,0.35490364,1.3272797,9.365303
68906031442385,-1.646847,-0.057070028,8.41708
68906051297106,-4.6591315,0.20805648,10.66032
68906071151827,-3.860008,1.3738436,11.404742
68906091008754,-3.6647592,1.3993394,12.233993
68906110863475,-3.1802547,-1.3029149,13.199446
68906130718196,-2.693837,0.875712,11.689783
68906150573045,-2.591941,1.99583,11.763693
68906170427766,-0.9963565,4.0329742,13.491882
68906190288405,-3.3088162,3.1169837,17.959063
68906210143254,-2.8321059,-1.377598,13.143274
68906229998082,-0.9221473,2.1733541,-0.004618502
68906249853059,2.6200206,1.2160579,-1.9836248
68906269707908,7.40044,-3.7777417,6.4330134
68906289567641,6.04911,-1.1715866,15.70938
68906309422618,-1.8957635,2.119949,16.664722
68906329277723,-4.7538214,2.7982612,9.886876
68906349132700,-3.8898392,0.21647942,6.4261127
68906368987805,-1.1525996,1.4750433,8.953059
68906388847036,0.12635675,3.738989,11.66787
68906408702269,-0.3617703,1.338188,12.8183
68906428557374,0.28550175,-0.32073286,11.9319
68906448412479,2.4781377,1.6142963,9.216211
68906468267712,1.4686557,1.825468,8.548471
68906488129949,-0.16483323,-0.4252378,8.785594
68906507985310,-0.4243947,0.44335797,10.468636
68906527840799,0.75810647,-2.608496,12.371017
68906547696160,0.5681979,0.31992212,6.50767
68906567551521,-1.6444803,1.3352526,3.051504
68906587404960,1.5787405,-1.5457042,6.6702514
68906607260321,3.4351947,-1.4254636,10.738515
68906627115682,-2.3714135,-12.71934,20.430347
68906646971043,2.9591646,1.7482041,8.48666
68906666826404,2.2965508,4.10464,1.8221321
68906686681011,3.964608,-0.17595427,-0.15706316
68906706536350,8.711594,10.756459,6.1484957
68906726391711,2.496839,-6.3935723,13.997722
68906746247072,-4.679285,-18.622553,15.663832
68906766102433,-8.640023,-7.841602,9.272241
68906785957794,-8.289619,-3.9455228,6.180543
68906805814795,-5.165856,-5.1829596,8.240308
68906825670156,-1.9723529,-9.245861,11.084815
68906845525645,0.34370196,-13.740247,11.005049
68906865381006,3.1575332,-11.792772,9.750177
68906885236367,5.812701,-3.9182851,5.879198
68906905090612,3.4031413,1.4466338,7.0177083
68906924945973,3.7775161,-2.6071632,9.79211
68906944801334,0.7509579,-5.3373876,10.902758
68906964656695,-0.75682735,-5.4035063,11.882853
68906984512056,2.324184,-2.93789,11.701368
68907004359525,8.9835615,-0.4242366,9.089994
68907024214758,8.976131,1.990293,9.238209
68907044069991,7.4436526,0.43056273,9.749887
68907063925096,3.9224713,1.1910408,10.352251
68907083780329,-2.4017851,4.0052013,12.645721
68907103620372,0.5777339,2.4180067,11.58428
68907123475221,9.573504,-0.7419499,7.9517365
68907143330070,11.130508,-0.23844561,6.994561
68907163185047,4.2239823,2.1847708,8.659585
68907183039874,-4.296986,6.616266,3.4046397
68907202889773,-2.2279387,3.6745007,7.586119
68907222744494,-0.94313645,1.8619123,7.6289487
68907242599343,0.5709988,2.4207833,6.3967943
68907262454064,1.2907729,2.3612077,8.616688
68907282308913,1.5670066,-0.7203032,10.403172
68907302160794,3.531185,-1.8856907,10.427811
68907322015515,3.9261312,0.12872462,9.545699
68907341870236,2.1322773,2.470357,8.94733
68907361724957,1.4250151,2.7239294,8.750396
68907381579678,2.3559668,2.742072,10.077416
68907401429005,2.292032,1.4945173,12.317844
68907421283598,0.6023079,-0.2774782,12.982034
68907441138191,-0.39548156,-0.11542151,11.642285
68907460992784,-0.5714582,2.690169,10.3794155
68907480847377,-0.40503734,4.25392,10.810259
68907500703416,-1.8101022,1.9916642,11.204762
68907520558009,-2.2553215,-0.74971575,9.317957
68907540412474,-1.3468693,-0.2966094,6.828773
68907560267067,-1.7907608,0.08340213,7.2669764
68907580121532,-2.7751274,0.6323183,10.612022
68907599969889,-3.532362,1.6324624,10.881897
68907619824354,-3.8462372,0.044297513,7.4986835
68907639678691,-2.3060372,-0.87216204,7.066453
68907659533134,1.374595,2.3265512,8.764496
68907679387471,0.060641933,3.0911896,7.7543025
68907699243898,0.97381884,-0.50262684,8.271531
68907719098363,3.5063262,-1.5741351,12.586599
68907738952700,3.1380267,0.74138343,12.786763
68907758807165,1.9978799,0.92722124,10.000169
68907778661502,2.0289218,-0.27782363,10.460873
68907798523171,1.2964401,1.5259256,8.753807
68907818377764,0.7045371,3.2521021,7.7576656
68907838232229,0.30803525,0.90651566,8.041152
68907858086822,0.38172272,-0.35415384,8.729289
68907877941278,0.37531298,0.08284338,8.885649
68907897799626,-0.25966427,0.04041848,8.560969
68907917654218,-0.92971605,0.74963707,7.540171
68907937508810,-1.5638739,2.4746137,7.5510907
68907957363402,-1.5477186,2.1859798,6.3597198
68907977222901,-1.2891701,1.5022601,5.6511164
68907997077494,-0.59361243,0.59188026,6.439106
68908016932213,-0.21566536,-0.9324064,8.222833
68908036786933,0.8709279,-1.3820024,10.588507
68908056641526,1.1080711,-1.4502904,11.101606
68908076496245,0.8874454,-0.860314,10.793639
68908096348119,0.4416704,-0.33966428,9.302989
68908116202712,1.0541077,0.24031977,11.086754
68908136057431,1.4305688,0.028849298,12.786415
68908155912023,0.9985488,0.3028432,11.832522
68908175766744,0.3121174,0.3479299,10.092064
68908195623810,-0.37518284,0.5191503,9.1471815
68908215478530,-0.093806535,0.73765576,9.616259
68908235333251,0.20519628,0.68437934,10.574462
68908255187970,-0.013101785,0.26466063,11.056236
68908275049897,-0.2290813,0.23942155,10.805823
68908294904746,-0.5711454,0.33402124,10.299553
68908314759721,-0.87895244,0.7010994,9.414183
68908334614569,-0.7363988,0.7225358,9.26379
68908354469418,-0.33197668,0.31311905,9.932418
68908374324265,0.048392817,-0.20343347,10.075846
68908394183299,0.15553449,-0.42114583,10.195054
68908414038276,-0.018613048,-0.33442074,10.358596
68908433893379,-0.41102973,0.04142105,10.044841
68908453748355,-0.5448863,0.6171085,9.1382065
68908473603460,-0.5469978,1.071346,8.937059
68908493460209,-0.12676542,0.80575705,10.683013
68908513315313,0.12649496,0.3517143,11.193989
68908533170546,-0.41462278,0.34674338,9.982273
68908553025649,-0.9887063,-0.2144088,10.38628
68908572881369,-0.4246972,1.0605079,11.097052
68908592736602,-0.6716644,1.8667446,11.463519
68908612591833,-0.2467164,0.84792626,10.493457
68908632446937,0.35702226,-0.875359,8.27008
68908652302170,-0.9959599,-1.8014086,8.732351
68908672157401,-1.925985,-0.43574983,11.391687
68908692006911,0.60599947,0.9022779,11.48159
68908711861888,2.4683475,0.6255312,11.676055
68908731716863,3.0278196,0.28509846,11.639033
68908751571967,1.304055,-0.08272739,10.922105
68908771426944,-0.2915988,-0.23846366,9.469571
68908791284967,-0.14115131,0.23552734,8.02452
68908811139943,0.12711953,-0.27543405,8.5814085
68908830995048,0.42657742,-0.11154918,9.264255
68908850850151,0.85265994,-0.024469635,9.194
68908870705255,0.47086704,0.12265554,8.928414
68908890560232,0.30210388,0.5630321,8.937042
68908910410863,0.31850722,0.33069572,8.611484
68908930265839,-0.74369055,-1.3400655,8.413063
68908950120816,-1.1481988,-0.768237,7.992137
68908969975919,-0.086915374,0.4258175,7.913967
68908989828872,0.44760075,-0.47352532,9.551931
68909009683849,0.54630655,0.71293396,10.160145
68909029538696,-0.58613396,1.9561963,9.498161
68909049393672,-0.2791334,1.4403437,9.990648
68909069248521,0.31700778,0.67191994,10.330739
68909089103285,-0.098339975,0.73429966,9.728171
68909108958261,-0.5093122,1.0333977,9.1190605
68909128813238,-0.33269244,0.78792894,9.391096
68909148668213,-0.027593883,0.75104755,9.683078
68909168523189,-0.17192726,0.8494003,9.415575
68909188378038,-0.060779303,0.67996156,9.751136
68909208226481,0.061173875,0.24357788,10.307934
68909228081201,0.1566926,-0.1592794,10.1681385
68909247935922,0.2843098,-0.0032691865,9.841444
68909267790769,0.24999498,0.29164994,9.872422
68909287644789,0.17183341,0.50145835,10.006471
68909307499510,-0.11799913,0.4094709,9.69817
68909327354229,-0.045632683,0.044940677,9.815312
68909347208949,0.039739605,-0.06431769,9.967699
68909367063670,0.04392217,0.07599131,9.870151
68909386918641,0.06963502,0.010854562,9.973179
68909406773361,0.028795708,0.06547552,9.972866
68909426628210,-0.11973161,0.248518,9.631425
68909446482929,-0.15425982,0.28397167,9.737311
68909466342007,-0.14013685,0.14276764,9.737354
68909486196728,-0.09061794,-0.27837443,9.87948
68909506052097,0.14702407,-0.22404498,10.136259
68909525906817,0.13352963,0.24513707,10.12043
68909545761538,-0.13358085,0.4245327,9.843755
68909565616385,-0.16841137,0.38454506,9.64773
68909585476322,-0.20342574,0.40368676,9.540564
68909605331299,-0.21500392,0.2723892,9.75908
68909625186146,0.24768603,-0.13294971,9.949328
68909645041122,0.2019416,-0.2512484,9.750229
68909664895971,0.14818403,0.27485904,9.9412985
68909684750818,0.25177407,0.85357255,9.726692
68909704603746,-0.2368987,0.017051186,8.7328615
68909724458467,-0.51250595,-0.5084702,8.987923
68909744313314,-0.18838242,0.48465937,9.458358
68909764168162,0.20884834,0.7038203,10.624106
68909784022883,0.7457844,0.20512494,10.583667
