UPTIMENANO,Ax,Ay,Az
86612411611855,-1.0442286,9.627979,-0.7544312
86612431470159,-1.101709,9.663903999999999,-0.7664063
86612451319582,-1.0538087,9.78605,-0.71371585
86612471177630,-0.94603276,9.81,-0.7424561
86612491035678,-1.0011181999999998,9.759705,-0.67539555
86612510893854,-0.9651929,9.7142,-0.7209009
86612530751902,-0.9412427,9.544153,-0.72569096
86612550607469,-1.0011181999999998,9.553733,-0.5556446
86612570465517,-1.0202783000000002,9.589659,-0.51732427
86612590323565,-0.9436377,9.6686945,-0.83586186
86612610181613,-0.9532178,9.965676,-0.84065187
86612630039661,-1.0466236,9.865086,-0.7089258
86612649896624,-1.1088941,9.70941,-0.69216067
86612669754672,-1.1448194,9.599238,-0.6586304000000001
86612689612720,-1.1496094,9.517808,-0.7161109
86612709470768,-1.0849438999999999,9.613608000000001,-0.6466553
86612729328816,-1.0753639,9.666299,-0.78556645
86612749191564,-1.1208692,9.80521,-0.79035646
86612769049612,-1.1112891000000003,9.690249,-0.7568262
86612788907788,-1.1735597,9.74773,-0.7113208000000001
86612808765964,-1.0585986,9.68067,-0.69216067
86612828624012,-1.0729688,9.64714,-0.80712163
86612848480433,-1.1783496,9.77647,-0.4263135
86612868338354,-0.98435307,9.644744000000001,-0.6849755999999999
86612888196401,-0.9915381,9.73815,-0.81191164
86612908054449,-1.096919,9.587264,-0.6227050999999999
86612927912497,-0.97956306,9.690249,-0.7232959
86612947771166,-0.99393314,9.699829,-0.5724097
86612967629214,-0.98914313,9.642349000000001,-0.76880133
86612987487262,-1.0250684,9.788445,-0.70174074
86613007345182,-0.87178713,9.654325,-0.7807764
86613027203230,-0.89573735,9.754914999999999,-0.74006104
86613047066776,-1.0562036,9.625584,-0.82388675
86613066924952,-1.099314,9.699829,-0.7065308000000001
86613086783000,-1.0011181999999998,9.534574000000001,-0.7496411000000001
86613106641176,-0.977168,9.673484,-0.68018556
86613126499352,-0.92208254,9.685459,-0.5963599
86613146355975,-0.8430469,9.625584,-0.71371585
86613166214023,-0.7783814,9.7740755,-0.5963599
86613186072199,-0.6466553,9.697434,-0.73048097
86613205930375,-0.81191164,10.073453,-1.0490186000000001
86613225788551,-0.7664063,10.121353,-1.7818946
86613245649098,-1.4418018,9.316627,0.23950197
86613265507274,-1.9112256999999997,9.508227999999999,0.09101075
86613285365579,-0.7185059,9.4435625,-1.5974781999999998
86613305223756,-1.0011181999999998,9.637559,-1.1567944
86613325081933,-1.2765454,9.582474000000001,-0.9244776
86613344942558,-1.2454101999999998,9.627979,-0.7209009
86613364800863,-0.92926764,9.695039999999999,-0.7185059
86613384659163,-0.87897223,9.745335,-0.92208254
86613404517467,-1.0322535,9.817185,-0.8382569
86613424375771,-1.0825489,9.75252,-0.83586186
86613444235251,-1.2070899,9.649534,-0.68737066
86613464093555,-1.2406201000000001,9.546548,-0.6682104999999999
86613483951859,-1.0705738,9.496253,-0.68737066
86613503810164,-0.78556645,9.544153,-0.76161623
86613523668469,-0.6586304000000001,9.867481,-0.9436377
86613543529790,-0.6849755999999999,9.996812,-1.0250684
86613563388095,-0.8765772,9.848321,-0.4167334
86613583246400,-1.0609937,9.618399,-0.4526587
86613603104705,-1.0083033000000001,9.678274,-1.0394385
86613622963010,-0.852627,9.410032000000001,-0.7831714
86613642823051,-0.8885523000000001,9.419611999999999,-0.76161623
86613662681484,-0.91250247,9.960887,-1.0921290000000001
86613682539917,-1.2094848999999999,10.233919,-0.85023195
86613702398350,-1.3436059999999999,9.994417,-0.65384036
86613722256655,-1.1663746000000002,9.599238,-0.8885523000000001
86613742115368,-1.1424243,9.7142,-0.9580079
86613761973673,-1.2669654,9.721385,-0.78556645
86613781832093,-1.1807446000000001,9.623189,-0.8885523000000001
86613801690525,-1.089734,9.359736,-0.9699829
86613821548829,-1.0681788,9.513017999999999,-0.8669971
86613841412600,-0.95561284,9.6615095,-0.7951465
86613861271160,-0.79754156,9.690249,-0.92926764
86613881129720,-0.7232959,9.481883,-0.9316626
86613900988408,-0.8861573,9.457932000000001,-0.9651929
86613920846968,-1.0753639,9.941727,-0.96040285
86613940705528,-1.0322535,9.769285,-0.8669971
86613960565958,-1.1783496,9.704619000000001,-0.8286768
86613980424518,-1.2837305,9.642349000000001,-1.0106983
86614000283206,-1.0681788,9.546548,-1.094524
86614020141894,-0.95561284,9.539363,-0.9651929
86614040000454,-1.1184741000000002,9.627979,-1.0609937
86614059854613,-1.2717555,9.64714,-1.1448194
86614079713173,-1.346001,9.77647,-1.1735597
86614099571605,-1.2669654,9.718989,-1.0178833
86614119430165,-1.2310401000000002,9.73815,-0.9987232
86614139288725,-1.334026,9.77647,-0.9867481
86614159140830,-1.2382251,10.054293,-1.2621753
86614178999262,-1.0035132,9.335787,-0.8382569
86614198857566,-1.1927198,8.710687,-0.6658155
86614218715998,-1.1160791,10.051897,-1.1160791
86614238574302,-0.728086,10.142908,-0.98195803
86614258434648,-1.0250684,9.6686945,-0.81909674
86614278293080,-0.95561284,9.850716,-0.8167017
86614298151512,-0.87178713,9.7740755,-1.0418334999999999
86614318009816,-0.9148975,9.515413,-0.6993457
86614337868248,-1.1687696,9.639954,-0.6562354
86614357726144,-1.2334352,9.72857,-0.9412427
86614377584576,-1.101709,9.6758795,-1.0011181999999998
86614397441489,-1.0274634,9.671089,-0.81909674
86614417299793,-1.0059083,9.644744000000001,-0.81191164
86614437158225,-1.0346485,9.604028999999999,-0.87178713
86614457009806,-1.1328443000000001,9.72378,-0.8310718
86614476868110,-1.1160791,9.73815,-0.7232959
86614496726414,-1.0705738,9.733359,-0.8334668
86614516584590,-1.1041040000000002,9.75252,-0.87178713
86614536442894,-1.0083033000000001,9.618399,-0.9148975
86614556287227,-0.9532178,9.704619000000001,-0.8095166
86614576145147,-0.98195803,9.651928999999999,-0.6514453
86614596003195,-0.9388476999999998,9.524992999999998,-0.76401126
86614615861115,-0.9388476999999998,9.620794,-0.728086
86614635719164,-0.9987232,9.75252,-0.7664063
86614655580919,-1.0633887,9.814791,-0.84065187
86614675439093,-1.0490186000000001,9.6686945,-0.7065308000000001
86614695297141,-1.1424243,9.656719,-0.75203615
86614715155189,-1.2502003000000002,9.750125,-0.7041358
86614735013365,-1.2118799999999998,9.637559,-0.72569096
86614754875119,-1.2430152,9.642349000000001,-0.75203615
86614774733167,-1.2717555,9.642349000000001,-0.7161109
86614794591215,-1.2549903,9.711803999999999,-0.74724615
86614814449263,-1.2118799999999998,9.692644,-0.81191164
86614834307311,-1.1184741000000002,9.683064,-0.9148975
86614854166298,-1.1615845,9.678274,-0.7113208000000001
86614874024474,-1.0250684,9.620794,-0.6179150999999999
86614893882522,-0.9388476999999998,9.702225,-0.5245093000000001
86614913740570,-0.9532178,9.642349000000001,-0.5628295999999999
86614933598618,-0.96040285,9.599238,-0.7232959
86614953453606,-1.0226734,9.616004,-0.84065187
86614973311654,-0.977168,9.536968,-0.82388675
86614993169702,-1.0801538,9.673484,-0.62749517
86615013027622,-1.1064991000000002,9.831555,-0.62749517
86615032885670,-1.0298585,9.783655,-0.7544312
86615052745297,-1.1041040000000002,9.7740755,-0.63707525
86615072603217,-1.1711646,9.702225,-0.7185059
86615092461265,-1.1711646,9.639954,-0.7664063
86615112319186,-1.1520045,9.582474000000001,-0.7185059
86615132177235,-1.0873389,9.553733,-0.7376661
86615152040000,-1.1184741000000002,9.6686945,-0.9651929
86615171898176,-1.1615845,9.81958,-0.96040285
86615191756352,-1.1999048,9.800421,-0.8143066999999999
86615211614400,-1.2070899,9.750125,-0.62749517
86615231472576,-1.2046948999999998,9.671089,-0.51013917
86615251331045,-1.1041040000000002,9.515413,-0.7424561
86615271189093,-1.0059083,9.477093,-1.0753639
86615291047269,-1.1304493,9.639954,-1.0585986
86615310905317,-1.1520045,9.745335,-0.974773
86615330763493,-1.101709,9.718989,-0.69695073
86615350621466,-1.089734,9.711803999999999,-0.28979737
86615370479642,-1.0825489,9.800421,-0.2083667
86615390337690,-1.096919,9.80521,-0.51732427
86615410195866,-1.096919,9.651928999999999,-0.7807764
86615430054042,-1.0657837,9.520203,-0.7209009
86615449916462,-1.0562036,9.699829,-0.6586304000000001
86615469774638,-1.22625,9.862691,-0.7831714
86615489632942,-1.3076807,9.589659,-0.8861573
86615509491118,-1.3028906999999998,9.445957,-0.6442603
86615529349422,-1.1208692,9.448353,-0.6179150999999999
86615549210125,-1.0466236,9.678274,-0.7089258
86615569068429,-1.1256591999999999,9.877061,-0.7592211999999999
86615588926733,-1.346001,9.848321,-0.7376661
86615608785037,-1.4226416000000002,9.651928999999999,-0.7879615
86615628643341,-1.3292358999999998,9.575289,-0.84544194
86615648503406,-1.3627661,9.6758795,-0.76161623
86615668361711,-1.3412110000000002,9.656719,-0.855022
86615688220144,-1.3867163999999998,9.656719,-0.8167017
86615708078449,-1.4849122,9.718989,-0.75203615
86615727936882,-1.4681469999999999,9.635164,-0.8167017
86615747796283,-1.3939015,9.685459,-0.8167017
86615767654716,-1.1735597,9.7812605,-0.6179150999999999
86615787513015,-0.855022,9.711803999999999,-0.5604346
86615807371447,-0.7424561,9.608819,-0.6394701999999999
86615827229751,-0.9388476999999998,9.568104,-0.6730005
86615847085958,-1.0226734,9.673484,-0.69216067
86615866944390,-1.0011181999999998,9.826766000000001,-0.5364844
86615886802822,-0.9508228000000001,9.78605,-0.5245093000000001
86615906661254,-1.0729688,9.759705,-0.50774413
86615926519686,-1.0562036,9.532178,-0.6322852
86615946374680,-1.089734,9.522598,-0.68737066
86615966233112,-1.1136841999999998,9.742939999999999,-0.62989014
86615986091416,-1.0777588,9.855506,-0.6442603
86616005949848,-1.2334352,9.807606,-0.6059399999999999
86616025808152,-1.1567944,9.544153,-0.69695073
86616045666942,-0.98195803,9.572892999999999,-0.6777906
86616065525374,-1.0130934,9.666299,-0.58198977
86616085383678,-1.1639795,9.70941,-0.6466553
86616105242110,-1.3507911,9.735755000000001,-0.6442603
86616125100414,-1.3196558,9.716595,-0.7041358
86616144958718,-1.1927198,9.733359,-0.5843848
86616164808405,-1.1400293,9.685459,-0.64186525
86616184666452,-1.1543995,9.637559,-0.62749517
86616204524500,-1.1472143999999997,9.704619000000001,-0.73048097
86616224382548,-1.1424243,9.663903999999999,-0.71371585
86616244240724,-1.1711646,9.6686945,-0.6682104999999999
86616264103691,-1.1591895,9.656719,-0.7161109
86616283962590,-1.1184741000000002,9.544153,-0.6658155
86616303820639,-1.1400293,9.546548,-0.5388794
86616323678816,-1.0298585,9.457932000000001,-0.5556446
86616343536993,-1.1543995,9.671089,-0.5221143
86616363392688,-1.0849438999999999,9.891430999999999,-0.5748047
86616383250737,-0.9627979,9.850716,-0.5484595
86616403108914,-1.0035132,9.831555,-0.5891748
86616422967091,-0.9915381,9.718989,-0.6849755999999999
86616442825268,-1.0514137,9.671089,-0.6490503000000001
86616462680141,-1.089734,9.642349000000001,-0.5364844
86616482538318,-1.0346485,9.524992999999998,-0.59156984
86616502396367,-1.1759547,9.618399,-0.62510014
86616522254416,-1.2382251,9.7812605,-0.65384036
86616542112593,-1.099314,9.697434,-0.6945557
86616561964400,-1.1064991000000002,9.651928999999999,-0.71371585
86616581822449,-1.0681788,9.64714,-0.68018556
86616601680370,-0.9963281999999999,9.592053,-0.5221143
86616621538291,-1.0346485,9.613608000000001,-0.50534916
86616641396212,-1.1232642,9.860296,-0.5628295999999999
86616661252371,-1.0011181999999998,9.948912,-0.6346801999999999
86616681110292,-0.9532178,9.72378,-0.5891748
86616700968085,-0.93405765,9.6686945,-0.5292993
86616720826006,-0.852627,9.663903999999999,-0.57001466
86616740683927,-0.8813671999999999,9.584868,-0.5388794
86616760543849,-1.0801538,9.6686945,-0.4742139
86616780401770,-1.1831397,9.77647,-0.5412744
86616800259689,-1.1520045,9.853110000000001,-0.57959473
86616820117609,-1.0753639,9.862691,-0.5843848
86616839975529,-0.9627979,9.663903999999999,-0.62031007
86616859830845,-0.95561284,9.501043,-0.5963599
86616879688765,-0.9963281999999999,9.395662,-0.7041358
86616899546557,-1.1807446000000001,9.639954,-0.6610254
86616919404477,-1.2478052,9.798025,-0.5748047
86616939262397,-1.1711646,9.860296,-0.55803955
86616959116507,-1.0657837,9.807606,-0.5029541000000001
86616978974299,-0.8765772,9.630374,-0.6346801999999999
86616998832091,-0.8933423,9.606423,-0.6059399999999999
86617018689883,-0.96758795,9.695039999999999,-0.5556446
86617038547547,-1.1041040000000002,9.718989,-0.51971924
86617058406015,-1.219065,9.690249,-0.6179150999999999
86617078263807,-1.2166698999999999,9.656719,-0.70174074
86617098121599,-1.1831397,9.750125,-0.6442603
86617117979391,-1.0514137,9.70941,-0.5628295999999999
86617137837183,-0.9987232,9.699829,-0.57001466
86617157696060,-1.0849438999999999,9.733359,-0.6059399999999999
86617177553853,-1.0154883,9.601633999999999,-0.7424561
86617197411644,-0.9627979,9.592053,-0.61073
86617217269436,-0.85741705,9.733359,-0.4766089
86617237127228,-0.68737066,9.798025,-0.51013917
86617256989598,-0.7113208000000001,9.831555,-0.5508545
86617276847390,-0.77359134,9.695039999999999,-0.62989014
86617296705310,-0.80233157,9.6615095,-0.6825806
86617316563231,-0.79754156,9.697434,-0.61552006
86617336421152,-0.728086,9.735755000000001,-0.62989014
86617356280187,-0.7185059,9.721385,-0.6059399999999999
86617376138108,-0.75203615,9.72857,-0.6706055000000001
86617395996029,-0.7879615,9.750125,-0.68976563
86617415853950,-0.7759864000000001,9.659114,-0.7065308000000001
86617435711871,-0.84544194,9.604028999999999,-0.69216067
86617455569164,-0.9053174,9.683064,-0.6514453
86617475427085,-0.9580079,9.77168,-0.56522465
86617495285006,-1.0059083,9.829161000000001,-0.5484595
86617515142927,-0.974773,9.77168,-0.5748047
86617535000848,-0.94603276,9.697434,-0.6179150999999999
86617554867825,-0.98914313,9.592053,-0.6179150999999999
86617574725746,-0.92926764,9.5561285,-0.68737066
86617594583795,-0.9699829,9.7621,-0.6322852
86617614441844,-0.98435307,9.970467,-0.5460645000000001
86617634299893,-0.9316626,9.80521,-0.6346801999999999
86617654159796,-1.0011181999999998,9.683064,-0.7161109
86617674017845,-0.9364527,9.587264,-0.6777906
86617693876022,-0.8909473,9.570497999999999,-0.6849755999999999
86617713734071,-0.9867481,9.730965,-0.6562354
86617733592248,-0.97237796,9.845925,-0.6562354
86617753457573,-0.8933423,9.903406,-0.61552006
86617773315856,-0.852627,9.759705,-0.49816409999999994
86617793174033,-0.79993653,9.687855,-0.58677983
86617813032338,-0.8167017,9.529783,-0.7664063
86617832890643,-0.8382569,9.623189,-0.7951465
86617852747695,-0.87897223,9.7621,-0.57959473
86617872605999,-0.8669971,9.881851,-0.5987549
86617892464303,-0.8885523000000001,9.853110000000001,-0.8047266
86617912322607,-0.86220706,9.678274,-0.97237796
86617932180911,-0.79754156,9.311836,-0.96040285
86617952040721,-0.96758795,9.620794,-0.96758795
86617971899025,-1.099314,9.829161000000001,-0.96758795
86617991757457,-0.8981324,9.604028999999999,-0.89573735
86618011615761,-1.0130934,9.764495,-0.62510014
86618031474193,-1.0250684,9.77168,-0.79035646
86618051339068,-0.90771246,9.81,-0.9412427
86618071197628,-0.88376224,9.687855,-0.8214916999999999
86618091056060,-0.9148975,9.5489435,-0.81909674
86618110914620,-0.8885523000000001,9.659114,-0.8167017
86618130773052,-0.7161109,9.750125,-0.6227050999999999
86618150633631,-0.7185059,9.881851,-0.59156984
86618170492191,-0.73048097,9.716595,-0.73048097
86618190350623,-0.76401126,9.606423,-0.72569096
86618210209183,-0.6993457,9.596844,-0.71371585
86618230067743,-0.62989014,9.630374,-0.7065308000000001
86618249929156,-0.7089258,9.778865,-0.5987549
86618269787844,-0.7209009,9.7621,-0.6562354
86618289646404,-0.7065308000000001,9.769285,-0.6993457
86618309504964,-0.6849755999999999,9.783655,-0.6610254
86618329363652,-0.62749517,9.7812605,-0.6849755999999999
86618349222106,-0.65384036,9.695039999999999,-0.7496411000000001
86618369080794,-0.79035646,9.611214,-0.80233157
86618388939482,-0.852627,9.568104,-0.7376661
86618408798042,-0.8382569,9.678274,-0.63707525
86618428654292,-0.8478370000000001,9.783655,-0.7376661
86618448504989,-0.9651929,9.901011,-0.8478370000000001
86618468363550,-0.974773,9.814791,-0.87418216
86618488221983,-0.87897223,9.594449000000001,-0.80233157
86618508080544,-0.8861573,9.5633135,-0.8382569
86618527938977,-0.9915381,9.663903999999999,-0.8646021
86618547797538,-1.0130934,9.735755000000001,-0.8813671999999999
86618567655471,-0.9963281999999999,9.896221,-0.8909473
86618587514032,-0.91010743,9.70941,-0.91250247
86618607372465,-0.8262818000000001,9.649534,-0.9244776
86618627230898,-0.8214916999999999,9.448353,-1.1160791
86618647089459,-0.9268726,9.623189,-1.1472143999999997
86618666943600,-0.91729254,9.690249,-0.8885523000000001
86618686802033,-0.7376661,9.831555,-0.7927515
86618706660338,-0.7711963000000001,9.812395,-0.86220706
86618726518771,-0.81191164,9.7142,-0.93405765
86618746377204,-0.85741705,9.659114,-0.9316626
86618766231797,-0.8765772,9.589659,-0.8981324
86618786090102,-0.87897223,9.493857,-0.81909674
86618805948279,-0.93405765,9.7812605,-0.7448511
86618825806584,-0.81191164,9.83874,-0.79754156
86618845659598,-0.6586304000000001,9.929751,-0.84065187
86618865517774,-0.75203615,9.831555,-0.98914313
86618885375951,-0.8813671999999999,9.707015,-1.0059083
86618905234126,-0.94603276,9.592053,-0.87178713
86618925092302,-0.9148975,9.455538,-0.85741705
86618944950479,-0.9508228000000001,9.544153,-0.87418216
86618964804400,-0.9627979,9.73815,-0.90771246
86618984662448,-0.8981324,9.750125,-0.9484278
86619004520497,-0.98195803,9.7740755,-0.88376224
86619024378544,-0.92208254,9.7812605,-0.88376224
86619044232991,-0.8334668,9.666299,-0.81191164
86619064090912,-0.8646021,9.649534,-0.8047266
86619083948959,-0.9508228000000001,9.6758795,-0.86939216
86619103806879,-1.0609937,9.73815,-0.83586186
86619123664800,-1.0226734,9.735755000000001,-0.79035646
86619143525517,-1.0011181999999998,9.704619000000001,-0.8382569
86619163383565,-1.0322535,9.75252,-0.70174074
86619183241614,-0.84065187,9.716595,-0.76401126
86619203099661,-0.8382569,9.695039999999999,-0.8214916999999999
86619222957709,-0.91010743,9.764495,-0.87178713
86619242815758,-0.9148975,9.7740755,-0.8669971
86619262671160,-0.89573735,9.702225,-0.8095166
86619282529080,-0.87178713,9.651928999999999,-0.83586186
86619302387129,-0.8598120000000001,9.539363,-0.86220706
86619322245048,-0.8861573,9.577683,-0.7927515
86619342103132,-0.9532178,9.678274,-0.87897223
86619361961181,-0.9651929,9.7812605,-0.9148975
86619381819100,-0.8909473,9.802814999999999,-0.9244776
86619401677020,-0.8909473,9.769285,-0.86939216
86619421535069,-0.8286768,9.750125,-0.83586186
86619441386032,-0.92926764,9.584868,-0.83586186
86619461243696,-0.96758795,9.707015,-0.7376661
86619481101489,-0.9580079,9.683064,-0.8214916999999999
86619500959280,-0.8933423,9.616004,-0.8478370000000001
86619520816944,-0.95561284,9.656719,-0.977168
86619540674737,-0.8646021,9.692644,-0.87178713
86619560538306,-0.84065187,9.77168,-0.7711963000000001
86619580396226,-0.852627,9.577683,-0.8669971
86619600254019,-0.9867481,9.620794,-0.9436377
86619620111810,-0.99393314,9.671089,-0.8813671999999999
86619639967895,-0.92208254,9.666299,-0.91250247
86619659825688,-0.9412427,9.78605,-0.87178713
86619679683481,-0.9364527,9.702225,-0.97237796
86619699541274,-0.974773,9.644744000000001,-0.8933423
86619719399067,-0.9699829,9.651928999999999,-0.8933423
86619739256988,-1.0130934,9.639954,-0.90052736
86619759121065,-0.91010743,9.721385,-0.8909473
86619778978986,-0.90771246,9.77168,-0.95561284
86619798837027,-0.9484278,9.711803999999999,-0.9651929
86619818694947,-1.0418334999999999,9.697434,-0.9436377
86619838552868,-1.0514137,9.618399,-0.9053174
86619858413237,-1.0585986,9.570497999999999,-0.9148975
86619878271285,-1.0202783000000002,9.570497999999999,-0.9436377
86619898129334,-1.0514137,9.649534,-0.97237796
86619917987381,-0.99393314,9.766891000000001,-0.9627979
86619937843967,-0.9364527,9.730965,-1.0873389
86619957701888,-1.1160791,9.721385,-1.1064991000000002
86619977559935,-1.1376343,9.673484,-0.9963281999999999
86619997417983,-1.0609937,9.616004,-0.98195803
86620017276032,-0.9867481,9.632769,-1.101709
86620037134079,-1.0825489,9.616004,-1.1663746000000002
86620056996865,-1.0705738,9.692644,-1.0514137
86620076854914,-1.0490186000000001,9.707015,-1.0394385
86620096712961,-1.0274634,9.6758795,-1.1208692
86620116571137,-0.9915381,9.623189,-1.1807446000000001
86620136429186,-1.0106983,9.529783,-1.1855347
86620156288158,-1.1041040000000002,9.568104,-1.1208692
86620176146334,-1.0849438999999999,9.74773,-1.0538087
86620196004383,-1.0154883,9.718989,-1.0777588
86620215862558,-1.0538087,9.70941,-1.1376343
86620235725324,-1.0921290000000001,9.64714,-1.1831397
86620255583629,-1.0514137,9.608819,-1.0585986
86620275441804,-1.0418334999999999,9.606423,-0.96758795
86620295300108,-1.0442286,9.611214,-1.1136841999999998
86620315158285,-1.0657837,9.623189,-1.1352394
86620335016588,-1.1352394,9.611214,-1.1328443000000001
86620354878316,-1.1496094,9.721385,-1.0370435
86620374736621,-1.096919,9.72378,-1.0490186000000001
86620394595052,-1.099314,9.580078,-1.1112891000000003
86620414453356,-1.22625,9.558523,-1.089734
86620434311661,-1.1807446000000001,9.536968,-1.0442286
86620454159084,-1.1352394,9.592053,-1.089734
86620474017260,-1.1280543,9.6686945,-1.1352394
86620493875309,-1.0921290000000001,9.690249,-1.096919
86620513733484,-1.1280543,9.64714,-1.0777588
86620533595061,-1.1472143999999997,9.594449000000001,-1.094524
86620553453238,-1.1759547,9.572892999999999,-1.0633887
86620573311413,-1.1759547,9.73815,-0.9508228000000001
86620593169589,-1.1759547,9.77168,-0.98435307
86620613027766,-1.2382251,9.72857,-1.0011181999999998
86620632885941,-1.2454101999999998,9.699829,-1.0442286
86620652738241,-1.1472143999999997,9.616004,-1.0490186000000001
86620672596418,-1.1232642,9.536968,-0.99393314
86620692454465,-1.1903248,9.558523,-0.97956306
86620712312513,-1.219065,9.618399,-1.0035132
86620732170562,-1.1951148999999999,9.6615095,-0.96758795
86620752025354,-1.2286451,9.659114,-1.0753639
86620771883402,-1.22146,9.74773,-1.0609937
86620791741323,-1.1735597,9.608819,-0.97956306
86620811599370,-1.1208692,9.520203,-0.974773
86620831455325,-1.2094848999999999,9.520203,-1.0178833
86620851313374,-1.1879296999999998,9.584868,-0.92208254
86620871164887,-1.1352394,9.7142,-0.9148975
86620891022679,-1.1160791,9.692644,-1.0226734
86620910880600,-1.1879296999999998,9.692644,-1.0346485
86620930738519,-1.1160791,9.589659,-0.90052736
86620950594653,-1.089734,9.587264,-0.9148975
86620970452574,-1.1496094,9.697434,-0.92208254
86620990310365,-1.1184741000000002,9.78605,-0.9580079
86621010168157,-1.1448194,9.798025,-0.93405765
86621030026078,-1.1256591999999999,9.7812605,-0.9436377
86621049885094,-1.0562036,9.611214,-0.9244776
86621069742886,-1.0538087,9.553733,-0.9053174
86621089600679,-1.0274634,9.649534,-0.8214916999999999
86621109458470,-1.0585986,9.618399,-0.9484278
86621129316262,-1.1352394,9.718989,-0.9244776
86621149174055,-1.101709,9.623189,-1.0394385
86621169036869,-1.0681788,9.730965,-0.9484278
86621188894789,-1.0011181999999998,9.6686945,-0.91010743
86621208752710,-1.0394385,9.587264,-0.90771246
86621228610629,-1.0825489,9.630374,-0.8646021
86621248465268,-1.0154883,9.616004,-0.9412427
86621268323061,-1.1256591999999999,9.666299,-1.0681788
86621288180852,-1.1041040000000002,9.692644,-0.9436377
86621308038644,-1.0705738,9.687855,-0.9388476999999998
86621327896565,-1.0370435,9.606423,-0.91010743
86621347759494,-1.0753639,9.632769,-1.0322535
86621367617414,-1.1520045,9.692644,-0.91250247
86621387475335,-1.099314,9.656719,-0.90771246
86621407333254,-1.1160791,9.80521,-0.9651929
86621427191175,-1.0011181999999998,9.754914999999999,-1.0011181999999998
86621447049096,-0.94603276,9.659114,-1.0633887
86621466907997,-1.0059083,9.5489435,-1.0442286
86621486765918,-1.0106983,9.522598,-0.8981324
86621506623839,-1.0777588,9.616004,-0.9029224
86621526481760,-1.0538087,9.623189,-0.87897223
86621546346025,-0.9196875,9.671089,-0.9436377
86621566204074,-0.8646021,9.817185,-1.0801538
86621586062123,-0.97237796,9.7812605,-1.1711646
86621605920172,-1.0825489,9.654325,-1.0274634
86621625778093,-1.0777588,9.572892999999999,-0.91010743
86621645636142,-1.0418334999999999,9.489068,-1.0394385
86621665494369,-1.0538087,9.630374,-1.0729688
86621685352418,-0.9963281999999999,9.735755000000001,-1.1208692
86621705210467,-1.0298585,9.83874,-1.1112891000000003
86621725068516,-0.98914313,9.857901,-0.974773
86621744926565,-0.8214916999999999,9.654325,-1.0442286
86621764785906,-0.9196875,9.584868,-1.1232642
86621784643938,-1.0250684,9.594449000000001,-1.214275
86621804501987,-1.1543995,9.654325,-1.1424243
86621824360162,-1.1663746000000002,9.656719,-1.0178833
86621844220587,-1.0873389,9.599238,-1.1831397
86621864078764,-1.1112891000000003,9.632769,-1.3100758
86621883936939,-1.1663746000000002,9.718989,-1.22146
86621903795115,-1.1639795,9.635164,-1.0466236
86621923653292,-1.0801538,9.5489435,-1.1136841999999998
86621943511595,-1.096919,9.503438000000001,-1.2286451
86621963377378,-1.1208692,9.575289,-1.1663746000000002
86621983235683,-1.0394385,9.592053,-1.0442286
86622003094114,-0.97956306,9.546548,-1.1041040000000002
86622022952546,-1.0274634,9.5561285,-1.1543995
86622042810979,-1.0609937,9.551338000000001,-1.0490186000000001
86622062670434,-1.0538087,9.5561285,-1.0154883
86622082528738,-1.0681788,9.623189,-1.0609937
86622102387171,-1.0346485,9.604028999999999,-1.0705738
86622122245602,-1.0011181999999998,9.551338000000001,-1.0753639
86622142108831,-0.9651929,9.311836,-1.1711646
86622161967392,-0.9987232,9.335787,-1.2382251
86622181825951,-0.98435307,9.407638,-1.1807446000000001
86622201684511,-0.9580079,9.527389,-1.1208692
86622221543072,-1.0035132,9.637559,-1.1088941
86622241401631,-0.95561284,9.582474000000001,-1.1520045
86622261265884,-0.92926764,9.616004,-1.1280543
86622281124445,-0.974773,9.587264,-1.1328443000000001
86622300983132,-1.0011181999999998,9.484278,-1.0298585
86622320841820,-1.0418334999999999,9.462723,-0.9316626
86622340700509,-0.9963281999999999,9.484278,-1.0633887
86622360557572,-0.98195803,9.484278,-1.0729688
86622380416260,-0.91250247,9.534574000000001,-1.0298585
86622400274949,-0.8646021,9.498648,-1.0059083
86622420133636,-0.87897223,9.527389,-0.98195803
86622439984462,-0.9244776,9.539363,-0.98195803
86622459842895,-1.0035132,9.532178,-0.94603276
86622479701326,-0.977168,9.541758999999999,-0.87178713
86622499559886,-0.9244776,9.544153,-0.87897223
86622519418319,-0.9029224,9.587264,-0.86939216
86622539276750,-0.852627,9.465117,-0.9364527
86622559130434,-0.8430469,9.316627,-0.9388476999999998
86622578988739,-0.89573735,9.522598,-0.9580079
86622598847042,-0.91729254,9.570497999999999,-0.95561284
86622618705474,-0.9651929,9.666299,-0.87897223
86622638563779,-0.94603276,9.527389,-0.9148975
86622658415243,-0.974773,9.589659,-0.98435307
86622678273419,-0.9699829,9.460327000000001,-1.0322535
86622698131724,-0.9580079,9.448353,-1.0562036
86622717989899,-1.0562036,9.498648,-1.0226734
86622737845826,-0.9244776,9.455538,-0.96040285
86622757704003,-0.9412427,9.505833,-0.9963281999999999
86622777562178,-0.96758795,9.513017999999999,-1.0490186000000001
86622797420354,-0.91729254,9.501043,-0.8861573
86622817278531,-0.8478370000000001,9.515413,-0.8765772
86622837136706,-0.9196875,9.534574000000001,-0.9915381
86622856987131,-0.97237796,9.5561285,-0.93405765
86622876845180,-0.97237796,9.527389,-0.7496411000000001
86622896703099,-0.9316626,9.501043,-0.8167017
86622916561019,-0.9412427,9.520203,-0.9148975
86622936419068,-0.8382569,9.489068,-0.9364527
86622956273447,-0.8382569,9.481883,-0.9029224
86622976131367,-0.85023195,9.520203,-0.8909473
86622995989288,-0.8262818000000001,9.441168,-0.87418216
86623015847079,-0.8765772,9.565708,-0.7568262
86623035704999,-0.8765772,9.582474000000001,-0.79993653
86623055562920,-0.7592211999999999,9.479486999999999,-0.82388675
86623075409027,-0.732876,9.498648,-0.8430469
86623095266691,-0.77359134,9.407638,-0.95561284
86623115124356,-0.8334668,9.390872,-0.93405765
86623134981891,-0.87178713,9.479486999999999,-0.9244776
86623154839850,-0.8334668,9.467513,-0.977168
86623174697515,-0.8669971,9.5633135,-1.0250684
86623194555178,-0.8765772,9.558523,-1.0346485
86623214412842,-0.8214916999999999,9.419611999999999,-0.9915381
86623234270379,-0.732876,9.374106,-1.1304493
86623254130165,-0.6586304000000001,9.357342,-1.2525953
86623273987701,-0.62031007,9.378897,-1.2022998
86623293845366,-0.49097902,9.498648,-1.2981006000000002
86623313702901,-0.3305127,9.510622999999999,-1.3867163999999998
86623333560565,-0.17962648,9.467513,-1.2549903
86623353418102,-0.06227051,9.659114,-0.8909473
86623373280322,-0.1580713,9.8938265,-1.1184741000000002
86623393137858,-0.69695073,9.82437,-0.7424561
86623412995523,-1.2549903,9.467513,-0.53169435
86623432853186,-1.3699511999999998,9.596844,-0.8310718
86623452711380,-1.2765454,9.687855,-0.34248779999999995
86623472568917,-0.83586186,10.224339,0.16046631
86623492426580,-0.3065625,10.178833000000001,-0.22992188
86623512284116,0.06945557,9.898616,-0.7664063
86623532141653,-0.102985844,9.558523,-0.58198977
86623552007263,-0.32572266,9.263936,-0.45744875
86623571864927,-0.38320315,9.256751,-0.46702883
86623591722720,-0.3281177,9.342972,-0.1580713
86623611580383,-0.22513184,9.881851,0.38799320000000004
86623631438175,-0.08622070400000001,10.008787,1.1448194
86623651295840,0.028740235,9.968072,1.7651293999999997
86623671160794,0.20597169,10.490186,2.2513185
86623691018714,0.21555176,10.705738,2.8165430000000002
86623710876507,0.031135255,10.530901,3.4248781000000004
86623730734426,0.0071850587,11.984678,1.954336
86623750592346,0.4263135,13.072017,-0.84544194
86623770457745,0.9580079,10.947635,-1.477727
86623790315793,-0.8933423,10.097403,-1.2502003000000002
86623810173841,-2.0213966,11.053016,-0.44786867
86623830031889,-1.465752,12.4541025,-0.8765772
86623849889937,-2.4189699,13.366604999999998,1.1855347
86623869750879,-0.87897223,13.464801000000001,1.3028906999999998
86623889609055,-0.41912845,11.963123,-2.8907887999999997
86623909467359,-0.8478370000000001,10.492581,-3.3434474
86623929325535,-0.26105714,9.508227999999999,-1.2909156000000002
86623949183711,0.37362307,10.511742,1.583108
86623969050225,-1.7507593999999997,9.654325,3.5494192000000004
86623988908657,-2.8740237,8.159832000000002,1.7723145
86624008767089,-2.189048,6.737190200000001,0.54366946
86624028625521,-0.5891748,5.9156985,-2.7806177000000005
86624048483953,-1.0753639,5.822293,-1.7699194999999999
86624068342830,-0.28740236,5.767207,1.6693287
86624088201390,0.1580713,6.1959157,3.187771
86624108059822,-0.42870852,6.615044,2.4908203999999996
86624127918254,-1.0322535,6.619834399999999,3.0081446
86624147776814,-1.3076807,7.161108500000001,4.4691067
86624167636849,-0.68976563,8.272397999999999,7.048543
86624187495409,-0.12933107,9.297466,8.926238
86624207353969,0.22034179999999998,9.513017999999999,8.365803999999999
86624227212529,-0.28740236,9.062755000000001,4.3062453000000005
86624247071089,-0.25387207,8.514294999999999,0.66342044
86624266925029,-0.15328126,7.762258500000001,1.1951148999999999
86624286783461,-1.0083033000000001,10.109378,4.018843
86624306642021,-0.86939216,13.615685999999998,3.67875
86624326500453,-1.3028906999999998,14.425203,-1.6525636000000001
86624346358885,-2.6393116,14.856307000000001,-0.364043
86624366213349,-1.0370435,11.491304,2.6441016
86624386071781,0.3903882,6.691684700000001,-2.1531227000000004
86624405930213,1.7339942,4.991221,-2.6201515
86624425788645,2.3447242000000004,7.0030375,-2.5914113999999997
86624445647077,0.89573735,10.418335,-4.670287999999999
86624465498292,-0.5245093000000001,12.3415365,-4.8020144
86624485356596,-1.7699194999999999,12.19065,0.100590825
86624505214900,-1.2669654,10.490186,7.5012016
86624525073204,-0.6706055000000001,9.283096,0.48379397
86624544931508,0.34248779999999995,7.702383,0.8430469
86624564783612,-0.7065308000000001,7.537127000000001,2.5004005
86624584641789,-0.57719976,9.599238,-0.22273682
86624604499966,0.1580713,9.091495,-0.26345217
86624624358143,-0.50774413,8.866363,0.54366946
86624644216316,-1.5926881000000002,9.079519,-0.55803955
86624664068618,-0.6514453,8.698711,-1.1903248
86624683926538,-0.2682422,8.610096,-1.0753639
86624703784458,-0.24189699,8.820857,-1.0202783000000002
86624723642378,0.22034179999999998,9.82437,-0.25387207
86624743500298,0.19160157,11.088941,0.61073
86624763350032,-0.98195803,12.0182085,0.92208254
86624783207696,-1.2957056999999998,12.585828,2.8261232000000005
86624803065488,-0.2706372,12.533137,2.6441016
86624822923152,1.1711646,12.432547,0.06706055
86624842780944,2.1459377,12.19544,-1.6525636000000001
86624862636542,2.3423293,12.384646,-2.0549269
86624882489902,2.459685,13.409715,-1.5567628
86624902347566,0.9963281999999999,12.686419,-0.29937744
86624922205230,-0.5748047,11.134446,-0.8765772
86624942062766,-1.3100758,10.715318,-1.3028906999999998
86624961927220,-0.8430469,13.546231,-2.4453151
86624981785012,-0.31853762,13.651612,-1.8321900000000002
86625001642804,0.5628295999999999,11.723621000000001,0.09101075
86625021500596,1.8274,11.491304,3.1374757
86625041358260,2.9961696,12.370275999999999,3.1278956
86625061214199,3.8272413999999997,10.636282000000001,-0.059875492
86625081071864,2.6369166,7.846083999999999,-2.076482
86625100929655,2.5890162,6.5551686,-5.4750147
86625120787319,2.8883936,6.1935205,-5.604346
86625140644983,0.38320315,6.6413894,-1.8058448
86625160499057,-2.2824538,6.950347,-0.33290774
86625180356721,-3.5254687999999996,7.407796,-0.11496094
86625200214385,-3.3434474,7.173083999999999,0.69695073
86625220072050,-3.1422658,7.0102224,1.6166383
86625239929587,-3.7601807000000003,7.429351,1.219065
86625259787598,-3.5542092000000003,8.468789,1.1711646
86625279645263,-2.4860303,9.204061,2.1315675
86625299502800,-1.6765138,9.501043,2.3255641
86625319360459,-0.7879615,9.479486999999999,4.054768
86625339218123,0.21315674,11.282936999999999,8.698711
86625359074726,3.4464333,14.298267000000001,12.971426
86625378932390,9.513017999999999,12.585828,3.1111305000000002
86625398790054,6.68929,9.426797,-1.9734962
86625418647718,0.33530274,6.991061999999999,2.3950195
86625438505254,0.39517823,5.958809,2.929109
86625458366233,0.10538086,9.639954,1.4992822000000001
86625478223897,-2.1770728,12.995377000000001,-3.410508
86625498081561,-13.601316,20.055895,-0.15088624
86625517939225,-6.332432,15.179634,7.9035649999999995
86625537796889,0.81909674,5.520519999999999,0.8167017
86625557659525,2.8812087,4.021237999999999,-6.1216702000000005
86625577517317,3.4081129999999997,6.2653713,-5.920488400000001
86625597375109,3.5997144999999997,10.94045,-7.311995
86625617232901,2.574646,13.527071,-7.0221976999999995
86625637090693,-1.1448194,12.889996,-3.6571949999999998
86625656948667,-3.7170706,11.2302475,8.581355
86625676806459,-2.1698877999999997,9.290281,8.298743
86625696664379,-1.0633887,7.28565,0.11017089999999999
86625716522171,-0.97956306,8.073611,-0.22752686
86625736379963,-0.244292,9.623189,-0.7831714
86625756247068,1.3172607,9.80521,-1.1472143999999997
86625776104987,0.62749517,9.429193,-2.0118165
86625795963035,-1.8872755,9.663903999999999,-2.9410841
86625815821083,-2.7303224,8.880733,-2.3471193
86625835679131,-2.339934,8.636441,-1.5112573999999999
86625855537179,-1.5423926000000001,9.520203,-0.14849122
86625875395440,-0.80233157,10.298584,1.3531861
86625895253488,-0.84065187,10.078242,1.1591895
86625915111536,-0.6514453,9.594449000000001,0.14370118
86625934969584,-0.50534916,9.228010000000001,0.31374758
86625954827632,0.26345217,9.273516,0.17004639
86625974691592,1.4058765,9.934542,-0.43110353
86625994549768,1.8250049,10.801538,-1.2621753
86626014407944,1.2382251,11.1176815,-1.9854711999999999
86626034266120,0.15567628,11.074571,-1.4418018
86626054124296,-0.74724615,11.335628,1.1352394
86626073990402,-0.46942386,11.910433,1.7411792000000001
86626093848834,0.22752686,12.985797,1.1112891000000003
86626113707138,1.0298585,13.939014000000002,-0.45984375
86626133565442,1.2669654,12.523558,-2.9195290000000003
86626153423746,0.59156984,9.72857,-4.766089
86626173282806,-0.8981324,8.828042,-3.2572267000000004
86626193141111,-2.3566992,9.5561285,-0.5748047
86626212999542,-2.555486,10.406361,1.0873389
86626232857846,-1.0729688,10.427916,-0.2945874
86626252716150,-0.22273682,9.857901,-1.7339942
86626272579781,0.14370118,10.360855,-1.7315991999999998
86626292438341,-0.10777588,10.600357,-1.1711646
86626312296774,-0.25147706,9.592053,-0.6346801999999999
86626332155335,-0.32332766,9.307046000000001,0.24908204
86626352013768,-0.16525635,9.532178,0.19878663
86626371862741,-0.48139894,9.558523,-0.977168
86626391721046,-0.58198977,9.592053,-1.3172607
86626411579351,-0.8310718,9.707015,-1.5064673000000002
86626431437656,-0.3305127,9.527389,-2.7662477
86626451295961,0.19878663,9.057964,-1.463357
86626471150292,-0.91250247,8.890313,1.1591895
86626491008469,-2.7231374,8.454419,2.0525317
86626510866774,-3.2021412999999996,8.248447,1.6573536
86626530724951,-1.8106349,8.430469500000001,0.84544194
86626550583128,-0.66342044,8.672366,0.3903882
86626570440409,-0.51971924,8.52148,0.72569096
86626590298714,-0.8813671999999999,8.155042,2.0070264
86626610157019,-1.463357,7.996970699999999,2.4165747000000004
86626630015324,-1.3100758,8.555010000000001,2.699187
86626649873629,-0.7831714,9.441168,3.0009596000000003
86626669728124,0.46463382,9.987232,4.095484
86626689586301,2.2345533,10.020762,5.2977834
86626709444606,3.5757644,8.928633,2.8476784
86626729302783,2.692002,7.94907,1.3579761000000001
86626749161088,0.96040285,8.085587,2.327959
86626769009422,1.0394385,9.10347,2.7806177000000005
86626788867343,1.7627343999999998,11.912827499999999,2.794988
86626808725392,0.6730005,13.809682999999998,0.17483643
86626828583441,-2.6033863999999998,14.597645000000002,-3.0752053
86626848441358,-7.565867,16.149618,-1.1136841999999998
86626868293230,-4.2128396,9.798025,3.8056862000000002
86626888148294,-1.8944606,3.6092947,0.100590825
86626908006214,-2.1674929,4.5170069999999996,-2.579436
86626927864006,-1.6741188000000002,7.8987746,-2.9722195
86626947721926,-0.613125,11.354788000000001,-5.400769
86626967574939,0.21555176,12.74869,-4.387676
86626987432603,0.06945557,11.5823145,-1.4082716
86627007290267,-1.0753639,9.618399,6.2917166
86627027148059,-1.7507593999999997,9.273516,4.615203
86627047005723,-0.22992188,9.05557,-1.1759547
86627066863777,-0.36883304,9.524992999999998,-0.7544312
86627086721441,-0.26105714,9.223221,-0.06945557
86627106579105,-0.33530274,8.914263,-0.24908204
86627126436769,-0.8669971,9.508227999999999,0.035925295
86627146294561,-0.5987549,10.056687,1.0154883
86627166154535,-0.58677983,10.035132,2.3998096
86627186012327,-0.6394701999999999,10.154883,3.0057497000000004
86627205869991,-0.61073,10.691367999999999,2.5267458
86627225727655,-0.34488282,10.669812,1.0609937
86627245585319,-0.45505372,10.399175999999999,0.72569096
86627265443746,-0.76880133,10.047108,0.4143384
86627285301411,-1.2813355,10.612332,0.25387207
86627305158945,-1.8944606,12.329561,-0.39278322
86627325016609,-2.8859987,12.82054,-1.7196240000000003
86627344874273,-4.2511597000000005,11.699671,-0.16765137
86627364738168,-5.4414845000000005,11.1104965,4.4547367
86627384595832,-5.613926,8.602911,4.5720925
86627404453624,-4.9265550000000005,8.293953,-0.8262818000000001
86627424311417,-1.1831397,8.260423,-7.774234
86627444169210,3.671565,6.794670599999999,-7.4892262999999994
86627464028469,4.837939700000001,8.969349000000001,3.1853762000000003
86627483886262,0.9268726,11.144027000000001,6.847361
86627503743927,-2.339934,9.513017999999999,1.949546
86627523601720,-1.096919,7.7502837,-0.39757326
86627543459513,0.13172609,6.488108,0.07424561
86627563318408,-0.07664063,6.567144,1.0178833
86627583176201,-2.0213966,8.190968,1.7076490000000002
86627603033994,-2.804568,9.587264,1.9974464
86627622891787,-0.49816409999999994,9.275911,1.4130616000000003
86627642749580,0.22992188,9.663903999999999,1.0442286
86627662612737,-0.17723145,11.132050999999999,2.2752686
86627682470786,-0.69695073,11.6805105,5.2666483
86627702328707,-0.19399660000000002,10.820699000000001,7.3527102
86627722186756,0.51971924,10.152488,6.2845316
86627742044677,0.58677983,9.529783,2.8788134999999997
86627761903964,0.24668702,8.612491,0.06706055
86627781762013,0.613125,7.7574687,-0.9029224
86627801620062,0.6514453,7.398216000000001,0.81909674
86627821478091,0.87418216,7.91075,2.4956105
86627841336139,0.68976563,8.830438000000001,2.4668702999999996
86627861193847,-0.9436377,9.812395,0.974773
86627881052023,-3.4799635,11.934382000000001,-0.7951465
86627900910071,-4.873865,13.227694,0.119750984
86627920768247,-4.3493557,12.085269,2.5099807000000003
86627940626295,-2.6441016,11.953543,3.1326857000000006
86627960480363,-0.38799320000000004,10.887758999999999,2.0525317
86627980338283,0.27303225,8.408914,-1.4058765
86628000196331,-0.07664063,8.193361999999999,-2.4908203999999996
86628020054379,-0.30416748,8.150250999999999,-1.3196558
86628039912427,-0.7568262,8.449629,-0.4047583
86628059774230,-1.0130934,9.433982,1.3292358999999998
86628079632406,-0.73527104,12.262501,1.6669337
86628099490454,0.21555176,12.18107,0.9508228000000001
86628119348630,0.34967285,11.031461,-0.23950197
86628139206678,-0.37362307,10.571617,-0.39996827
86628159061124,-0.99393314,9.869876,0.32572266
86628178919172,-1.1567944,9.465117,-0.38799320000000004
86628198777220,-0.8262818000000001,9.19927,-1.2861254999999998
86628218635268,-0.61073,8.847202000000001,-0.91729254
86628238493316,-0.8334668,8.952583,-0.97956306
86628258355564,-1.7244141,9.613608000000001,-1.3651612
86628278213740,-2.2297632999999997,9.77168,0.1580713
86628298071789,-2.0357666,10.284214,1.8776953999999997
86628317929966,-1.6142433,10.842253999999999,1.8681153000000001
86628337788143,-0.7951465,10.823093,0.7185059
86628357645952,-0.07664063,10.859019,-0.20357667
86628377504129,-0.6514453,10.672208,-1.3100758
86628397362173,-1.9806811999999998,10.214758999999999,-1.7866846
86628417220221,-2.6608667,9.594449000000001,-1.0585986
86628437078397,-2.2608986,9.290281,-0.30177248
86628456936445,-1.2909156000000002,9.19927,0.09340577
86628476789934,-0.5221143,9.493857,-0.29698244
86628496647982,-0.47181886,9.788445,-1.2478052
86628516505902,-0.8669971,9.616004,-1.6238233
86628536363823,-1.5639478,9.299861,-0.62749517
86628556221872,-1.8633252,9.616004,0.6610254
86628576079767,-1.3507911,10.219549,0.98914313
86628595937688,-0.6490503000000001,10.236314,0.16286133
86628615795609,-0.6322852,9.77647,-1.2094848999999999
86628635653530,-1.3196558,9.599238,-1.22625
86628655511451,-1.7890796999999998,9.853110000000001,-0.22273682
86628675362666,-1.6453785,9.716595,0.19878663
86628695220459,-1.3891114,9.505833,-0.09340577
86628715078252,-1.3507911,9.64714,-0.5939649
86628734936045,-1.3244458000000001,9.79084,-0.9699829
86628754793838,-1.2741505,9.735755000000001,-0.8885523000000001
86628774655245,-1.2813355,9.635164,-0.50774413
86628794513154,-1.2573853000000002,9.6758795,-0.28979737
86628814370946,-1.2358301999999999,9.81958,-0.39757326
86628834228866,-1.3603711,9.953702,-0.69216067
86628854086658,-1.583108,10.027947,-0.76161623
86628873946894,-1.7459692999999998,10.023157000000001,-0.6777906
86628893805643,-1.7387843,9.927357,-0.6849755999999999
86628913663563,-1.5304176,9.685459,-0.50774413
86628933521483,-1.2765454,9.510622999999999,-0.62031007
86628953379403,-1.1951148999999999,9.671089,-0.8310718
86628973235909,-1.1591895,9.855506,-0.5987549
86628993093829,-1.0346485,9.865086,-0.6179150999999999
86629012951749,-1.0418334999999999,9.855506,-0.62749517
86629032809669,-1.1999048,9.929751,-0.59156984
86629052667589,-1.1663746000000002,9.948912,-0.70174074
86629072531374,-1.1687696,10.044711999999999,-0.62510014
86629092389422,-1.1328443000000001,9.992022,-0.39517823
86629112247470,-0.9196875,9.788445,-0.5125342
86629132105518,-0.9412427,9.764495,-0.6059399999999999
86629151963694,-1.0226734,9.934542,-0.5484595
86629171815135,-1.0202783000000002,10.042317,-0.5484595
86629191673183,-1.0705738,9.953702,-0.5628295999999999
86629211531103,-1.1999048,9.82437,-0.68018556
86629231389024,-1.1711646,9.72857,-0.57001466
86629251246943,-0.97956306,9.75252,-0.3903882
86629271110026,-0.89573735,9.862691,-0.51492923
86629290968074,-1.1041040000000002,9.778865,-0.61073
86629310826122,-1.214275,9.874666,-0.62749517
86629330684170,-1.1520045,9.766891000000001,-0.7041358
86629350542218,-1.1136841999999998,9.759705,-0.77359134
86629370399893,-1.1064991000000002,9.841136,-0.6322852
86629390257942,-1.0681788,9.83874,-0.59156984
86629410115991,-0.97956306,9.692644,-0.69216067
86629429974040,-1.1136841999999998,9.630374,-0.72569096
86629449832089,-1.1711646,9.721385,-0.73527104
86629469690150,-1.094524,9.860296,-0.6514453
86629489548071,-1.099314,9.944121,-0.5987549
86629509406120,-1.0490186000000001,9.946517,-0.7424561
86629529264169,-1.0801538,9.924961,-0.78556645
86629549122090,-1.1041040000000002,9.908196,-0.73048097
86629568978877,-1.089734,10.001602,-0.7209009
86629588836926,-1.2166698999999999,9.946517,-0.7041358
86629608694847,-1.3028906999999998,9.829161000000001,-0.49097902
86629628552768,-1.2334352,9.74773,-0.5628295999999999
86629648410689,-1.1208692,9.623189,-0.7185059
86629668267066,-0.9963281999999999,9.546548,-0.977168
86629688124987,-1.0226734,9.671089,-1.0274634
86629707982908,-1.1208692,9.7621,-0.7807764
86629727840829,-1.1520045,9.74773,-0.5939649
86629747698750,-1.1256591999999999,9.625584,-0.6777906
86629767557395,-1.1304493,9.510622999999999,-0.7759864000000001
86629787415316,-1.2094848999999999,9.64714,-0.7664063
86629807273237,-1.1496094,9.83874,-0.6993457
86629827131263,-1.0490186000000001,9.903406,-0.6849755999999999
86629846989183,-1.0035132,9.79084,-0.71371585
86629866849066,-1.0202783000000002,9.656719,-0.8478370000000001
86629886706986,-1.099314,9.5561285,-0.90052736
86629906565034,-1.1352394,9.654325,-0.7759864000000001
86629926423082,-1.089734,9.618399,-0.73048097
86629946281002,-1.0825489,9.520203,-0.7592211999999999
86629966138180,-1.1232642,9.699829,-0.87178713
86629985996228,-1.0873389,9.778865,-0.974773
86630005854276,-0.98914313,9.814791,-0.92926764
86630025712324,-1.0681788,9.649534,-0.7783814
86630045570244,-1.1041040000000002,9.616004,-0.8286768
86630065429583,-1.1160791,9.644744000000001,-0.80712163
86630085287631,-1.0609937,9.584868,-0.7759864000000001
86630105145551,-1.0250684,9.639954,-0.8286768
86630125003599,-1.0609937,9.733359,-0.8598120000000001
86630144861647,-1.0083033000000001,9.7812605,-0.92208254
86630164720384,-0.99393314,9.898616,-0.87178713
86630184578432,-1.0226734,9.7740755,-0.80712163
86630204436480,-1.0777588,9.740545,-0.79754156
86630224294528,-1.1112891000000003,9.625584,-0.8167017
86630244152576,-1.1328443000000001,9.484278,-0.76401126
86630264013483,-1.089734,9.570497999999999,-0.72569096
86630283871532,-1.0657837,9.656719,-0.7759864000000001
86630303729581,-0.9412427,9.702225,-0.87897223
86630323587627,-0.92926764,9.829161000000001,-0.8669971
86630343445675,-0.94603276,9.742939999999999,-0.8933423
86630363299399,-0.9532178,9.601633999999999,-0.9532178
86630383157447,-1.1376343,9.572892999999999,-0.9053174
86630403015367,-1.1615845,9.5633135,-0.76880133
86630422873415,-1.0921290000000001,9.580078,-0.78556645
86630442731464,-1.0705738,9.642349000000001,-0.8861573
86630462587573,-1.0154883,9.75731,-0.9412427
86630482445494,-0.977168,9.845925,-0.8909473
86630502303543,-0.9580079,9.793235000000001,-0.7783814
86630522161464,-0.98195803,9.697434,-0.7783814
86630542019513,-1.0490186000000001,9.637559,-0.80233157
86630561872142,-1.0394385,9.613608000000001,-0.8310718
86630581730063,-1.0585986,9.575289,-0.77359134
86630601587856,-0.9029224,9.594449000000001,-0.7879615
86630621445649,-0.89573735,9.802814999999999,-0.81191164
86630641303570,-0.87418216,9.848321,-0.7759864000000001
86630661159003,-0.8430469,9.754914999999999,-0.73527104
86630681016924,-0.89573735,9.711803999999999,-0.8167017
86630700874717,-0.9412427,9.692644,-0.79993653
86630720732510,-0.88376224,9.649534,-0.6825806
86630740590431,-0.90052736,9.616004,-0.6610254
86630760446926,-0.90052736,9.671089,-0.7568262
86630780304719,-0.8885523000000001,9.802814999999999,-0.81909674
86630800162512,-0.8813671999999999,9.960887,-0.76401126
86630820020177,-0.8885523000000001,9.829161000000001,-0.7161109
86630839877951,-0.93405765,9.623189,-0.74006104
86630859738705,-0.98195803,9.627979,-0.7376661
86630879596497,-0.974773,9.627979,-0.6945557
86630899451346,-0.94603276,9.524992999999998,-0.7232959
86630919309138,-0.98195803,9.582474000000001,-0.75203615
86630939166930,-0.9532178,9.81,-0.76161623
86630959027331,-0.87897223,9.972861,-0.77359134
86630978885123,-0.9148975,9.865086,-0.79035646
86630998743043,-0.9627979,9.68067,-0.732876
86631018600835,-0.96040285,9.582474000000001,-0.76161623
86631038458755,-1.0298585,9.639954,-0.70174074
86631058316463,-1.0011181999999998,9.5561285,-0.7424561
86631078174255,-0.9580079,9.5489435,-0.7496411000000001
86631098032175,-0.91250247,9.802814999999999,-0.8047266
86631117889967,-0.87897223,9.857901,-0.81909674
86631137747887,-0.9053174,9.829161000000001,-0.7496411000000001
86631157608343,-0.90771246,9.80521,-0.732876
86631177466263,-0.96758795,9.651928999999999,-0.76880133
86631197324183,-0.9532178,9.558523,-0.7831714
86631217182103,-0.9651929,9.536968,-0.8095166
86631237040023,-0.9508228000000001,9.644744000000001,-0.7376661
86631256897943,-0.8765772,9.81958,-0.68976563
86631276754815,-0.84065187,9.905801,-0.76161623
86631296612736,-0.9053174,9.912986,-0.8047266
86631316470657,-0.8765772,9.699829,-0.732876
86631336328447,-0.84065187,9.599238,-0.67539555
86631356186367,-0.8909473,9.632769,-0.73048097
86631376042072,-0.90771246,9.630374,-0.7232959
86631395899864,-0.9268726,9.742939999999999,-0.6394701999999999
86631415757784,-0.852627,9.817185,-0.62510014
86631435615576,-0.8382569,9.74773,-0.7185059
86631455473497,-0.8167017,9.821976,-0.68976563
86631475333294,-0.7879615,9.73815,-0.6849755999999999
86631495191215,-0.85023195,9.6615095,-0.6730005
86631515049008,-0.9244776,9.620794,-0.6993457
86631534906929,-0.96040285,9.618399,-0.6562354
86631554764850,-0.88376224,9.618399,-0.5556446
86631574614865,-0.80712163,9.78605,-0.61073
86631594472530,-0.8047266,9.81958,-0.62031007
86631614330323,-0.82388675,9.759705,-0.70174074
86631634187988,-0.8909473,9.702225,-0.62749517
86631654045653,-0.91250247,9.64714,-0.613125
86631673904426,-0.9196875,9.611214,-0.62989014
86631693762219,-0.9388476999999998,9.623189,-0.6490503000000001
86631713619884,-0.94603276,9.671089,-0.68737066
86631733477677,-0.94603276,9.716595,-0.6466553
86631753335470,-0.9268726,9.881851,-0.613125
86631773201381,-0.87418216,9.7812605,-0.5963599
86631793059302,-0.8143066999999999,9.671089,-0.6706055000000001
86631812917207,-0.90052736,9.6758795,-0.6730005
86631832775128,-0.90771246,9.663903999999999,-0.57959473
86631852633047,-0.9029224,9.589659,-0.6227050999999999
86631872492538,-0.96040285,9.654325,-0.5748047
86631892350586,-0.9532178,9.831555,-0.5556446
86631912208506,-0.86220706,9.908196,-0.6011499
86631932066554,-0.7951465,9.946517,-0.613125
86631951924602,-0.84544194,9.769285,-0.6466553
86631971788203,-0.8885523000000001,9.601633999999999,-0.6562354
86631991646251,-0.9580079,9.649534,-0.5843848
86632011504299,-0.95561284,9.584868,-0.52690434
86632031362475,-0.89573735,9.64714,-0.55803955
86632051220523,-0.82388675,9.881851,-0.5245093000000001
86632071074007,-0.6993457,9.932146000000001,-0.5748047
86632090932055,-0.7065308000000001,9.78605,-0.62510014
86632110790103,-0.7496411000000001,9.75731,-0.57959473
86632130648023,-0.7831714,9.685459,-0.5292993
86632150506071,-0.8143066999999999,9.671089,-0.48618898
86632170364674,-0.8430469,9.558523,-0.49816409999999994
86632190222722,-0.87418216,9.544153,-0.6658155
86632210080643,-0.8430469,9.697434,-0.61073
86632229938692,-0.77359134,9.8938265,-0.5891748
86632249796738,-0.7807764,9.843531,-0.5676197
86632269652075,-0.81909674,9.754914999999999,-0.6394701999999999
86632289509994,-0.90771246,9.72378,-0.56522465
86632309367914,-0.977168,9.627979,-0.5748047
86632329225834,-0.91250247,9.572892999999999,-0.5029541000000001
86632349083754,-0.86220706,9.594449000000001,-0.61552006
86632368946781,-0.86220706,9.745335,-0.69216067
86632388804829,-0.86220706,9.934542,-0.613125
86632408662749,-0.85023195,9.853110000000001,-0.48618898
86632428520797,-0.8310718,9.75252,-0.64186525
86632448378845,-0.9196875,9.707015,-0.732876
86632468230632,-0.91250247,9.6686945,-0.6706055000000001
86632488088552,-0.97237796,9.472302,-0.7185059
86632507946472,-1.0035132,9.594449000000001,-0.7951465
86632527804392,-0.98914313,9.833950999999999,-0.613125
86632547662312,-0.9316626,9.946517,-0.6227050999999999
86632567513210,-0.9412427,9.879456,-0.5556446
86632587371002,-0.9484278,9.707015,-0.62510014
86632607228794,-0.8909473,9.649534,-0.6586304000000001
86632627086586,-0.8382569,9.637559,-0.63707525
86632646944378,-0.87897223,9.68067,-0.6945557
86632666799945,-0.9029224,9.654325,-0.7113208000000001
86632686657737,-0.91250247,9.730965,-0.6777906
86632706515401,-0.9316626,9.83874,-0.6993457
86632726373193,-0.91010743,9.745335,-0.72569096
86632746230985,-0.8933423,9.735755000000001,-0.66342044
86632766094923,-0.9412427,9.625584,-0.7185059
86632785952844,-0.97956306,9.580078,-0.7807764
86632805810765,-0.9627979,9.656719,-0.7161109
86632825668555,-0.88376224,9.604028999999999,-0.7185059
86632845519855,-0.9029224,9.730965,-0.7759864000000001
86632865377520,-0.977168,9.924961,-0.75203615
86632885232358,-0.9627979,9.872271000000001,-0.7496411000000001
86632905090150,-0.8981324,9.666299,-0.66342044
86632924947943,-0.9388476999999998,9.613608000000001,-0.7927515
86632944805606,-1.0083033000000001,9.551338000000001,-0.8478370000000001
86632964670079,-0.9915381,9.685459,-0.7089258
86632984528000,-0.9029224,9.78605,-0.62510014
86633004385791,-0.73527104,9.764495,-0.7424561
86633024243711,-0.7376661,9.836346,-0.87897223
86633044101504,-0.8334668,9.77647,-0.86220706
86633063953262,-0.9029224,9.6758795,-0.88376224
86633083811054,-0.9867481,9.685459,-0.85741705
86633103668719,-1.2118799999999998,9.493857,-0.855022
86633123526510,-1.2334352,9.374106,-0.8310718
86633143385430,-1.1304493,9.735755000000001,-0.8909473
86633163243095,-0.9651929,9.901011,-0.96040285
86633183100758,-0.9627979,9.778865,-0.96040285
86633202958422,-1.0274634,9.75252,-0.90771246
86633222816087,-1.094524,9.733359,-0.85741705
86633242673878,-1.0801538,9.663903999999999,-0.74006104
86633262534529,-0.91250247,9.568104,-0.7592211999999999
86633282392194,-0.87897223,9.570497999999999,-0.8214916999999999
86633302249857,-0.852627,9.745335,-0.8861573
86633322107649,-0.7568262,9.821976,-0.8981324
86633341965314,-0.7376661,9.800421,-0.855022
86633361829905,-0.8143066999999999,9.733359,-0.79754156
86633381687825,-0.8262818000000001,9.697434,-0.84544194
86633401545746,-0.8981324,9.577683,-0.8478370000000001
86633421403667,-0.92208254,9.606423,-0.79035646
86633441261228,-0.87418216,9.704619000000001,-0.7783814
86633461119149,-0.84065187,9.74773,-0.8382569
86633480977070,-0.8286768,9.7812605,-0.8669971
86633500834863,-0.8909473,9.841136,-0.84544194
86633520692784,-0.88376224,9.793235000000001,-0.84065187
86633540550577,-0.8981324,9.659114,-0.7424561
86633560411436,-0.8813671999999999,9.601633999999999,-0.7831714
86633580269485,-0.88376224,9.599238,-0.86220706
86633600127406,-0.83586186,9.733359,-0.8310718
86633619985455,-0.8334668,9.75252,-0.81191164
86633639843504,-0.852627,9.742939999999999,-0.84544194
86633659698883,-0.8646021,9.733359,-0.7927515
86633679556804,-0.87418216,9.704619000000001,-0.82388675
86633699414853,-0.87418216,9.642349000000001,-0.86939216
86633719272774,-0.9268726,9.611214,-0.84544194
86633739130695,-0.9627979,9.599238,-0.79035646
86633758988616,-0.9651929,9.711803999999999,-0.76401126
86633778855163,-0.9316626,9.8866415,-0.7879615
86633798713340,-0.9412427,9.920172,-0.85741705
86633818571517,-0.9532178,9.750125,-0.80233157
86633838429544,-0.94603276,9.625584,-0.7783814
86633858289963,-0.96040285,9.539363,-0.7783814
86633878148140,-0.9244776,9.604028999999999,-0.7927515
86633898006315,-0.9268726,9.707015,-0.76161623
86633917864491,-0.8813671999999999,9.807606,-0.82388675
86633937722668,-0.855022,9.80521,-0.8095166
86633957584078,-0.855022,9.77168,-0.7711963000000001
86633977442382,-0.85741705,9.745335,-0.7496411000000001
86633997300815,-0.8646021,9.596844,-0.76161623
86634017159118,-0.9148975,9.570497999999999,-0.7568262
86634037017422,-0.9508228000000001,9.570497999999999,-0.7592211999999999
86634056875855,-0.8646021,9.778865,-0.79754156
86634076738095,-0.8262818000000001,9.850716,-0.79035646
86634096596527,-0.7951465,9.783655,-0.87897223
86634116454832,-0.85741705,9.718989,-0.8167017
86634136313263,-0.8933423,9.685459,-0.79993653
86634156171543,-0.9963281999999999,9.685459,-0.8143066999999999
86634176029976,-1.0442286,9.6615095,-0.74006104
86634195888279,-1.0633887,9.599238,-0.7089258
86634215746711,-1.0059083,9.659114,-0.7759864000000001
86634235605016,-0.9148975,9.721385,-0.80233157
86634255467599,-0.9053174,9.764495,-0.90052736
86634275326030,-0.9867481,9.7812605,-0.855022
86634295184463,-1.0585986,9.671089,-0.7927515
86634315043022,-1.0442286,9.644744000000001,-0.7711963000000001
86634334901454,-1.0250684,9.625584,-0.76161623
86634354759887,-0.9699829,9.6686945,-0.7759864000000001
86634374617854,-0.87897223,9.735755000000001,-0.73527104
86634394476414,-0.79035646,9.77168,-0.8167017
86634414334847,-0.8167017,9.745335,-0.84065187
86634434193408,-0.8933423,9.70941,-0.75203615
86634454044563,-0.88376224,9.685459,-0.6825806
86634473902868,-0.88376224,9.642349000000001,-0.7783814
86634493761173,-0.8933423,9.642349000000001,-0.81191164
86634513619478,-0.8765772,9.716595,-0.7711963000000001
86634533477783,-0.9388476999999998,9.70941,-0.77359134
86634553336088,-0.95561284,9.735755000000001,-0.84544194
86634573191741,-0.9508228000000001,9.6758795,-0.7759864000000001
86634593050174,-0.97237796,9.635164,-0.80712163
86634612908479,-0.96040285,9.604028999999999,-0.82388675
86634632766784,-0.9651929,9.659114,-0.79035646
86634652625089,-0.96040285,9.68067,-0.7951465
86634672475470,-0.9508228000000001,9.742939999999999,-0.7711963000000001
86634692333647,-0.9029224,9.865086,-0.8646021
86634712191696,-0.9268726,9.862691,-0.90771246
86634732049873,-0.9148975,9.718989,-0.80233157
86634751905690,-0.9148975,9.522598,-0.8885523000000001
86634771763739,-0.97237796,9.508227999999999,-0.8765772
86634791621770,-0.95561284,9.644744000000001,-0.8646021
86634811479818,-0.96040285,9.72378,-0.7664063
86634831337995,-0.9316626,9.812395,-0.9148975
86634851196042,-1.0083033000000001,9.778865,-1.0202783000000002
86634871046264,-1.0274634,9.843531,-0.9029224
86634890904185,-1.0394385,9.690249,-0.8047266
86634910759533,-1.0346485,9.582474000000001,-0.85741705
86634930617453,-1.1400293,9.558523,-0.87897223
86634950475374,-1.096919,9.625584,-0.91729254
86634970334793,-1.0729688,9.704619000000001,-0.90052736
86634990192841,-1.0059083,9.802814999999999,-0.90052736
86635010050762,-0.9388476999999998,9.77168,-0.9244776
86635029908681,-0.9867481,9.735755000000001,-0.88376224
86635049757812,-1.0562036,9.659114,-0.852627
86635069615477,-1.0657837,9.580078,-0.8310718
86635089473268,-1.0585986,9.572892999999999,-0.85023195
86635109331060,-0.9532178,9.745335,-0.852627
86635129188725,-0.8981324,9.7142,-0.9029224
86635149046516,-0.8981324,9.7621,-0.91010743
86635168902804,-0.9196875,9.742939999999999,-0.7831714
86635188760469,-0.92926764,9.707015,-0.81191164
86635208618132,-0.95561284,9.659114,-0.8598120000000001
86635228475796,-0.9484278,9.572892999999999,-0.89573735
86635248333461,-0.93405765,9.6686945,-0.91250247
86635268188610,-0.96758795,9.843531,-0.79993653
86635288046146,-0.8861573,9.79084,-0.852627
86635307903683,-0.8478370000000001,9.7812605,-0.9364527
86635327761346,-0.8861573,9.730965,-0.9580079
86635347618882,-0.9436377,9.642349000000001,-0.87418216
86635367476419,-1.0083033000000001,9.594449000000001,-0.855022
86635387339904,-1.0154883,9.546548,-0.8885523000000001
86635407197441,-0.96758795,9.68067,-0.8933423
86635427055106,-0.9196875,9.814791,-0.83586186
86635446912771,-0.9053174,9.841136,-0.8430469
86635466769150,-0.9627979,9.73815,-0.8310718
86635486626815,-0.9508228000000001,9.678274,-0.855022
86635506484352,-0.95561284,9.635164,-0.7664063
86635526342017,-0.97956306,9.582474000000001,-0.75203615
86635546199554,-0.97956306,9.606423,-0.7831714
86635566057353,-0.90771246,9.695039999999999,-0.87178713
86635585915018,-0.8933423,9.924961,-0.8478370000000001
86635605772555,-0.86220706,9.927357,-0.74006104
86635625630092,-0.8430469,9.683064,-0.7424561
86635645487629,-0.87418216,9.575289,-0.8143066999999999
86635665345166,-0.92926764,9.572892999999999,-0.8214916999999999
86635685208585,-0.9508228000000001,9.6686945,-0.7664063
86635705066250,-0.87418216,9.704619000000001,-0.76161623
86635724923915,-0.82388675,9.644744000000001,-0.86220706
86635744781580,-0.83586186,9.769285,-0.8885523000000001
86635764643939,-0.9388476999999998,9.939331,-0.7664063
86635784501860,-0.97956306,9.730965,-0.69216067
86635804359653,-0.9651929,9.625584,-0.85741705
86635824217422,-1.0753639,9.601633999999999,-0.8430469
86635844075215,-0.97956306,9.613608000000001,-0.81191164
86635863938175,-0.9268726,9.718989,-0.79035646
86635883796223,-0.974773,9.742939999999999,-0.7376661
86635903654272,-0.9963281999999999,9.754914999999999,-0.7568262
86635923512191,-0.974773,9.72378,-0.74724615
86635943370239,-0.9651929,9.575289,-0.86220706
86635963228160,-0.97237796,9.639954,-0.8669971
86635983091871,-0.9364527,9.73815,-0.7041358
86636002950047,-0.977168,9.6758795,-0.7496411000000001
86636022808224,-1.0418334999999999,9.77647,-0.7544312
86636042666271,-0.94603276,9.702225,-0.77359134
86636062524659,-0.9148975,9.651928999999999,-0.7759864000000001
86636082382836,-0.92208254,9.68067,-0.7544312
86636102241011,-0.94603276,9.616004,-0.7664063
86636122099187,-0.9532178,9.697434,-0.76880133
86636141957364,-0.86220706,9.75731,-0.7185059
86636161819311,-0.8669971,9.750125,-0.74724615
86636181677487,-0.85023195,9.7812605,-0.8047266
86636201535792,-0.87418216,9.702225,-0.76161623
86636221393967,-0.93405765,9.70941,-0.7951465
86636241252271,-0.9699829,9.702225,-0.6682104999999999
86636261110448,-0.9316626,9.654325,-0.73048097
86636280967374,-0.93405765,9.6686945,-0.85023195
86636300825550,-0.8813671999999999,9.742939999999999,-0.8310718
86636320683855,-0.84544194,9.759705,-0.77359134
86636340542030,-0.87178713,9.795630000000001,-0.7185059
86636360396615,-0.84544194,9.707015,-0.76161623
86636380254792,-0.8598120000000001,9.592053,-0.8646021
86636400112967,-0.9364527,9.637559,-0.81909674
86636419971143,-0.9699829,9.666299,-0.67539555
86636439829448,-0.92926764,9.697434,-0.732876
86636459687623,-0.92926764,9.766891000000001,-0.9364527
86636479538498,-0.98195803,9.702225,-0.9627979
86636499396419,-0.9148975,9.707015,-0.8143066999999999
86636519254468,-0.93405765,9.580078,-0.7209009
86636539112517,-1.0083033000000001,9.5489435,-0.9148975
86636558970566,-1.0801538,9.692644,-0.8430469
86636578821519,-1.0106983,9.877061,-0.8286768
86636598679440,-0.9364527,9.707015,-0.8286768
86636618537361,-0.91250247,9.687855,-0.9316626
86636638395282,-0.9580079,9.6758795,-0.92926764
86636658244711,-0.9699829,9.620794,-0.78556645
86636678102376,-1.0394385,9.606423,-0.81909674
86636697960041,-1.1136841999999998,9.613608000000001,-0.8382569
86636717817706,-1.0538087,9.75252,-0.9244776
86636737675499,-0.98195803,9.853110000000001,-0.8310718
86636757533164,-0.977168,9.766891000000001,-0.90771246
86636777393639,-0.98914313,9.616004,-0.9148975
86636797251304,-1.0657837,9.5489435,-0.86220706
86636817108953,-1.0466236,9.630374,-0.7711963000000001
86636836966745,-1.0011181999999998,9.620794,-0.88376224
86636856824410,-1.0154883,9.649534,-0.98914313
86636876677502,-1.0442286,9.802814999999999,-0.86220706
86636896535166,-0.92926764,9.807606,-0.77359134
86636916392703,-0.9580079,9.72378,-0.9196875
86636936251212,-1.0154883,9.671089,-0.8813671999999999
86636956108961,-1.0226734,9.613608000000001,-0.87178713
86636975966498,-1.0178833,9.627979,-0.8430469
86636995824161,-1.0226734,9.632769,-0.9029224
86637015681697,-0.98914313,9.685459,-0.8885523000000001
86637035539362,-0.97956306,9.783655,-0.87897223
86637055396897,-1.0011181999999998,9.78605,-0.91250247
86637075248388,-1.0394385,9.7740755,-0.9364527
86637095105797,-1.0298585,9.644744000000001,-0.8095166
86637114963204,-0.9987232,9.587264,-0.84544194
86637134820612,-0.9867481,9.64714,-0.855022
86637154678149,-0.9532178,9.695039999999999,-0.977168
86637174540390,-0.9627979,9.695039999999999,-0.98195803
86637194397926,-0.9627979,9.704619000000001,-0.85741705
86637214255463,-0.97237796,9.659114,-0.9196875
86637234112870,-0.97956306,9.627979,-0.97237796
86637253977221,-1.0106983,9.651928999999999,-0.9580079
86637273834758,-1.0059083,9.6686945,-0.9148975
86637293692421,-0.9268726,9.766891000000001,-0.90771246
86637313549957,-0.9316626,9.833950999999999,-1.0178833
86637333407622,-0.96040285,9.75252,-1.0250684
86637353265285,-0.92926764,9.584868,-0.8598120000000001
86637373119137,-0.88376224,9.467513,-0.8765772
86637392976674,-0.9388476999999998,9.582474000000001,-0.9987232
86637412834211,-0.9268726,9.800421,-0.96040285
86637432691748,-0.89573735,9.80521,-0.90052736
86637452549285,-0.8669971,9.745335,-0.98435307
86637472410650,-0.8598120000000001,9.766891000000001,-0.9412427
86637492268187,-0.9484278,9.740545,-0.9244776
86637512125852,-0.98435307,9.544153,-0.9484278
86637531983389,-1.0562036,9.551338000000001,-0.9388476999999998
86637551841054,-0.9364527,9.697434,-0.8885523000000001
86637571698591,-0.87897223,9.73815,-1.0059083
86637591562850,-0.9388476999999998,9.733359,-0.977168
86637611420515,-0.8981324,9.821976,-0.92926764
86637631278308,-0.8478370000000001,9.742939999999999,-0.8885523000000001
86637651136101,-0.88376224,9.654325,-0.9532178
86637670998008,-0.9580079,9.599238,-0.91010743
86637690855929,-0.9580079,9.654325,-0.8909473
86637710713722,-0.9388476999999998,9.79084,-0.8334668
86637730571515,-0.8861573,9.77168,-0.91010743
86637750429436,-0.83586186,9.707015,-0.9699829
86637770293537,-0.8430469,9.812395,-0.8981324
86637790151586,-0.855022,9.6686945,-0.85741705
86637810009635,-0.8885523000000001,9.656719,-0.91729254
86637829867663,-0.9412427,9.601633999999999,-0.90771246
86637849725839,-0.8981324,9.673484,-0.91010743
86637869583888,-0.8669971,9.75731,-0.87897223
86637889442540,-0.84544194,9.7740755,-0.8765772
86637909300588,-0.8669971,9.75252,-0.8981324
86637929158765,-0.83586186,9.690249,-0.8286768
86637949016812,-0.9053174,9.584868,-0.9364527
86637968883260,-0.9316626,9.627979,-0.8933423
86637988741565,-0.8813671999999999,9.651928999999999,-0.8310718
86638008599740,-0.8478370000000001,9.716595,-0.87897223
86638028458044,-0.8861573,9.78605,-0.8669971
86638048316349,-0.8933423,9.78605,-0.8310718
86638068173575,-0.8095166,9.6758795,-0.8310718
86638088031879,-0.855022,9.592053,-0.87418216
86638107890184,-0.92926764,9.616004,-0.8765772
86638127748487,-0.86220706,9.78605,-0.8143066999999999
86638147606791,-0.88376224,9.754914999999999,-0.7831714
86638167465096,-0.87897223,9.764495,-0.91250247
86638187329129,-0.85741705,9.72857,-0.8214916999999999
86638207187561,-0.8478370000000001,9.630374,-0.8334668
86638227045866,-0.8669971,9.580078,-0.81909674
86638246904297,-0.90052736,9.6686945,-0.855022
86638266762181,-0.8669971,9.848321,-0.84065187
86638286620486,-0.80712163,9.81,-0.8310718
86638306478917,-0.7879615,9.690249,-0.87178713
86638326337221,-0.85023195,9.754914999999999,-0.8478370000000001
86638346195654,-0.8310718,9.699829,-0.7496411000000001
86638366053957,-0.8598120000000001,9.587264,-0.84544194
86638385908889,-0.90052736,9.608819,-0.87897223
86638405767194,-0.79993653,9.635164,-0.9388476999999998
86638425625625,-0.85741705,9.865086,-0.87897223
86638445483929,-0.84065187,9.867481,-0.7209009
86638465342362,-0.79035646,9.623189,-0.9148975
86638485194407,-0.8885523000000001,9.627979,-0.9053174
86638505052584,-0.91729254,9.642349000000001,-0.82388675
86638524910889,-0.8981324,9.687855,-0.83586186
86638544769066,-0.9053174,9.70941,-0.85023195
86638564613613,-0.855022,9.671089,-1.0178833
86638584471534,-0.8861573,9.745335,-0.9412427
86638604329583,-0.9148975,9.699829,-0.8382569
86638624187504,-0.91010743,9.601633999999999,-0.89573735
86638644045553,-0.9029224,9.659114,-0.85023195
86638663903474,-0.8909473,9.671089,-0.92208254
86638683750843,-0.8933423,9.798025,-0.9412427
86638703608508,-0.85741705,9.81,-0.88376224
86638723466173,-0.855022,9.79084,-0.87897223
86638743323838,-0.84544194,9.733359,-0.84065187
86638763181503,-0.8430469,9.589659,-0.8885523000000001
86638783039394,-0.9316626,9.604028999999999,-0.9316626
86638802897059,-0.95561284,9.704619000000001,-0.8334668
86638822754724,-0.87897223,9.704619000000001,-0.82388675
86638842612499,-0.79035646,9.73815,-0.92208254
86638862470413,-0.8143066999999999,9.70941,-1.0011181999999998
86638882328078,-0.8861573,9.716595,-0.9053174
86638902185869,-0.8765772,9.6686945,-0.85023195
86638922043533,-0.93405765,9.577683,-0.90771246
86638941901198,-0.96040285,9.656719,-0.8933423
86638961751254,-0.86939216,9.73815,-0.8382569
86638981607602,-0.90771246,9.7812605,-0.9412427
86639001465139,-0.8646021,9.867481,-0.88376224
86639021322802,-0.855022,9.683064,-0.855022
86639041180338,-0.9029224,9.575289,-0.88376224
86639061038003,-0.9316626,9.64714,-0.91010743
86639080893611,-0.9148975,9.73815,-0.7927515
86639100751147,-0.8909473,9.80521,-0.8478370000000001
86639120608684,-0.8885523000000001,9.6686945,-0.90052736
86639140466219,-0.83586186,9.697434,-0.9053174
86639160325360,-0.8214916999999999,9.742939999999999,-0.79035646
86639180182897,-0.852627,9.644744000000001,-0.9316626
86639200040432,-0.9651929,9.72378,-0.85023195
86639219897968,-0.90771246,9.683064,-0.86220706
86639239755505,-0.9244776,9.683064,-0.90052736
86639259613042,-0.8933423,9.711803999999999,-0.85023195
86639279474703,-0.86939216,9.6615095,-0.8095166
86639299332240,-0.86220706,9.651928999999999,-0.87897223
86639319189775,-0.90771246,9.632769,-0.81909674
86639339047439,-0.91250247,9.711803999999999,-0.84544194
86639358904976,-0.8765772,9.7740755,-0.7568262
86639378761704,-0.8430469,9.72857,-0.8167017
86639398619240,-0.8981324,9.72857,-0.8430469
86639418476777,-0.8861573,9.673484,-0.76401126
86639438334440,-0.87178713,9.673484,-0.8334668
86639458191976,-0.9364527,9.685459,-0.8047266
86639478049513,-0.90771246,9.6758795,-0.87418216
86639497907030,-0.86220706,9.769285,-0.7951465
86639517764566,-0.8933423,9.853110000000001,-0.80712163
86639537622103,-0.83586186,9.798025,-0.78556645
86639557479638,-0.7879615,9.64714,-0.78556645
86639577344960,-0.91729254,9.536968,-0.87418216
86639597202753,-0.9651929,9.651928999999999,-0.8214916999999999
86639617060416,-0.8981324,9.72378,-0.6179150999999999
86639636918208,-0.83586186,9.735755000000001,-0.6849755999999999
86639656775873,-0.87178713,9.78605,-0.7711963000000001
86639676635261,-0.7879615,9.83874,-0.7711963000000001
86639696493053,-0.80233157,9.79084,-0.6562354
86639716350718,-0.83586186,9.6758795,-0.69216067
86639736208509,-0.9268726,9.565708,-0.7496411000000001
86639756066173,-0.9651929,9.627979,-0.70174074
86639775923966,-0.8909473,9.685459,-0.69695073
86639795787939,-0.8430469,9.745335,-0.7711963000000001
86639815645859,-0.8262818000000001,9.759705,-0.7448511
86639835503780,-0.83586186,9.754914999999999,-0.7161109
86639855361827,-0.8885523000000001,9.654325,-0.7113208000000001
86639875228153,-0.96758795,9.6686945,-0.7209009
86639895086330,-1.0106983,9.759705,-0.7089258
86639914944505,-0.9364527,9.750125,-0.6945557
86639934802681,-0.9244776,9.618399,-0.70174074
86639954660858,-0.9436377,9.613608000000001,-0.74724615
86639974520264,-0.9364527,9.750125,-0.6610254
86639994378440,-0.9388476999999998,9.733359,-0.7209009
86640014236745,-0.96758795,9.695039999999999,-0.7185059
86640034095048,-0.91729254,9.695039999999999,-0.7161109
86640053953224,-0.9316626,9.695039999999999,-0.68737066
86640073811529,-0.90771246,9.7142,-0.69695073
86640093664104,-0.9364527,9.80521,-0.6945557
86640113522280,-0.9029224,9.544153,-0.7544312
86640133380585,-0.93405765,9.457932000000001,-0.84544194
86640153238762,-1.0154883,9.592053,-0.7065308000000001
86640173101197,-0.9029224,9.7621,-0.6825806
86640192959374,-0.91250247,9.860296,-0.6706055000000001
86640212817677,-0.9053174,9.826766000000001,-0.72569096
86640232675853,-0.9196875,9.692644,-0.7759864000000001
86640252534030,-0.91250247,9.606423,-0.7568262
86640272392205,-0.92208254,9.604028999999999,-0.7448511
86640292256550,-1.0130934,9.68067,-0.728086
86640312114855,-0.974773,9.740545,-0.69216067
86640331973030,-0.9412427,9.77647,-0.7664063
86640351831334,-0.974773,9.829161000000001,-0.83586186
86640371689639,-0.9364527,9.72378,-0.7879615
86640391547380,-0.9508228000000001,9.608819,-0.79993653
86640411405684,-1.0059083,9.575289,-0.8214916999999999
86640431263989,-1.0466236,9.635164,-0.80712163
86640451122292,-1.0226734,9.745335,-0.7592211999999999
86640470972867,-0.9388476999999998,9.702225,-0.7424561
86640490831044,-0.9388476999999998,9.718989,-0.9029224
86640510689219,-0.9963281999999999,9.718989,-0.82388675
86640530547395,-0.97956306,9.673484,-0.855022
86640550405444,-1.0633887,9.589659,-0.8646021
86640570263619,-1.0346485,9.599238,-0.87178713
86640590117510,-1.0106983,9.671089,-0.8334668
86640609975687,-1.0250684,9.72857,-0.80233157
86640629833734,-0.98914313,9.72378,-0.86220706
86640649691782,-0.98435307,9.6758795,-0.85023195
86640669549959,-0.974773,9.64714,-0.8909473
86640689397638,-1.0633887,9.73815,-0.8382569
86640709255430,-1.0083033000000001,9.853110000000001,-0.79035646
86640729113351,-0.9987232,9.740545,-0.8885523000000001
86640748971270,-1.0298585,9.632769,-0.9268726
86640768828136,-1.0562036,9.630374,-0.855022
86640788685929,-1.0154883,9.611214,-0.8382569
86640808543720,-0.99393314,9.584868,-0.855022
86640828401640,-0.9987232,9.735755000000001,-0.93405765
86640848259433,-1.0130934,9.78605,-0.8861573
86640868117352,-0.96040285,9.817185,-0.9388476999999998
86640887973588,-1.0322535,9.78605,-0.8310718
86640907831509,-0.9532178,9.75731,-0.8478370000000001
86640927689300,-0.977168,9.5489435,-0.9436377
86640947547092,-1.0681788,9.527389,-0.8262818000000001
86640967404885,-0.977168,9.589659,-0.8262818000000001
86640987263496,-0.9053174,9.6686945,-0.8861573
86641007121288,-0.91729254,9.769285,-0.9388476999999998
86641026979081,-0.9196875,9.77168,-0.83586186
86641046836872,-0.9508228000000001,9.740545,-0.80712163
86641066693188,-0.974773,9.692644,-0.7831714
86641086550853,-0.9963281999999999,9.6686945,-0.852627
86641106408644,-1.0274634,9.707015,-0.7807764
86641126266436,-0.9508228000000001,9.6615095,-0.78556645
86641146124101,-0.9268726,9.740545,-0.78556645
86641165981892,-0.88376224,9.7740755,-0.7376661
86641185838575,-0.86939216,9.678274,-0.87178713
86641205696240,-0.9987232,9.630374,-0.8167017
86641225553903,-0.9963281999999999,9.671089,-0.7711963000000001
86641245411695,-0.94603276,9.72857,-0.71371585
86641265269360,-0.9148975,9.721385,-0.7496411000000001
86641285128937,-0.9412427,9.6686945,-0.8310718
86641304986729,-0.9532178,9.807606,-0.78556645
86641324844394,-0.88376224,9.72378,-0.7161109
86641344702185,-0.91729254,9.64714,-0.7783814
86641364559849,-0.93405765,9.659114,-0.7544312
86641384417514,-0.91010743,9.764495,-0.76880133
86641404273147,-0.8909473,9.795630000000001,-0.7161109
86641424130811,-0.9244776,9.678274,-0.8598120000000001
86641443988348,-0.95561284,9.697434,-0.732876
86641463846011,-0.8669971,9.616004,-0.6730005
86641483711410,-0.8909473,9.539363,-0.82388675
86641503569203,-1.0322535,9.6758795,-0.852627
86641523426994,-0.9627979,9.934542,-0.6777906
86641543284786,-0.9029224,9.857901,-0.6825806
86641563142579,-0.86220706,9.620794,-0.91729254
86641583002083,-0.95561284,9.635164,-0.81191164
86641602860003,-0.8885523000000001,9.72857,-0.6322852
86641622717796,-0.87418216,9.553733,-0.75203615
86641642575587,-0.9532178,9.592053,-0.8167017
86641662433507,-0.9316626,9.659114,-0.7927515
86641682291300,-0.8813671999999999,9.75731,-0.7759864000000001
86641702148650,-0.9029224,9.843531,-0.7065308000000001
86641722006442,-0.87178713,9.699829,-0.74724615
86641741864235,-0.86939216,9.618399,-0.8885523000000001
86641761721898,-0.94603276,9.678274,-0.7424561
86641781592886,-0.9532178,9.687855,-0.74724615
86641801450935,-0.9412427,9.671089,-0.75203615
86641821309110,-0.8981324,9.72378,-0.7376661
86641841167158,-0.90052736,9.692644,-0.76401126
86641861025207,-0.87418216,9.613608000000001,-0.76401126
86641880883254,-0.91010743,9.620794,-0.7065308000000001
86641900751564,-0.9029224,9.750125,-0.73527104
86641920609997,-0.8861573,9.7740755,-0.7592211999999999
86641940468428,-0.91250247,9.788445,-0.7879615
86641960326732,-0.9244776,9.75252,-0.73048097
86641980185165,-0.8885523000000001,9.711803999999999,-0.7161109
86642000038092,-0.9029224,9.608819,-0.7496411000000001
86642019896396,-0.8885523000000001,9.560919,-0.69695073
86642039754829,-0.86939216,9.678274,-0.7568262
86642059613132,-0.852627,9.7621,-0.7568262
86642079464329,-0.82388675,9.788445,-0.8310718
86642099322506,-0.8646021,9.833950999999999,-0.7783814
86642119180681,-0.87897223,9.73815,-0.7759864000000001
86642139038985,-0.8909473,9.659114,-0.74006104
86642158897162,-0.9053174,9.558523,-0.7424561
86642178755465,-0.9508228000000001,9.5561285,-0.76161623
86642198613629,-0.9029224,9.718989,-0.7783814
86642218471934,-0.7927515,9.826766000000001,-0.74006104
86642238330109,-0.81909674,9.869876,-0.86220706
86642258188413,-0.8430469,9.78605,-0.7759864000000001
86642278046590,-0.7951465,9.616004,-0.7592211999999999
86642297901187,-0.92208254,9.608819,-0.8095166
86642317759363,-0.9987232,9.649534,-0.77359134
86642337617412,-0.8981324,9.793235000000001,-0.6945557
86642357475587,-0.81909674,9.7621,-0.7376661
86642377333848,-0.7831714,9.718989,-0.9148975
86642397191897,-0.81191164,9.718989,-0.88376224
86642417050072,-0.7951465,9.7621,-0.7041358
86642436908120,-0.8813671999999999,9.704619000000001,-0.7209009
86642456766297,-0.92926764,9.726174,-0.78556645
86642476624344,-0.8430469,9.637559,-0.79035646
86642496480332,-0.87178713,9.654325,-0.91250247
86642516338381,-0.85023195,9.721385,-0.78556645
86642536196428,-0.7568262,9.692644,-0.8047266
86642556054476,-0.8598120000000001,9.6758795,-0.84065187
86642575912525,-0.91729254,9.671089,-0.8813671999999999
86642595766403,-0.9053174,9.735755000000001,-0.77359134
86642615624451,-0.85023195,9.735755000000001,-0.7544312
86642635482372,-0.8286768,9.666299,-0.9364527
86642655340419,-0.87897223,9.659114,-1.0059083
86642675181991,-0.852627,9.707015,-0.80712163
86642695039528,-0.8861573,9.716595,-0.78556645
86642714897191,-0.852627,9.68067,-0.88376224
86642734754855,-0.9029224,9.75731,-0.96758795
86642754612520,-0.93405765,9.862691,-0.86939216
86642774470183,-0.84065187,9.826766000000001,-0.87897223
86642794328310,-0.85023195,9.683064,-0.89573735
86642814185847,-0.8909473,9.592053,-0.8669971
86642834043510,-0.8598120000000001,9.613608000000001,-0.8478370000000001
86642853901046,-0.8669971,9.6615095,-0.90052736
86642873758711,-0.855022,9.651928999999999,-0.9699829
86642893616053,-0.85023195,9.72378,-0.8861573
86642913473589,-0.7927515,9.78605,-0.9148975
86642933331254,-0.81191164,9.733359,-1.0466236
86642953188789,-0.8669971,9.642349000000001,-0.96040285
86642973046325,-0.9364527,9.524992999999998,-0.8286768
86642992903862,-0.9388476999999998,9.644744000000001,-0.8646021
86643012763574,-0.84065187,9.726174,-0.92208254
86643032621110,-0.81191164,9.795630000000001,-0.93405765
86643052478647,-0.81909674,9.75252,-0.81909674
86643072336182,-0.76401126,9.70941,-0.8933423
86643092193311,-0.8286768,9.560919,-0.90052736
86643112050848,-0.855022,9.572892999999999,-0.8382569
86643131908383,-0.8669971,9.718989,-0.80233157
86643151765919,-0.8310718,9.884246000000001,-0.84065187
86643171623456,-0.7544312,9.72857,-0.9316626
86643191480746,-0.8262818000000001,9.659114,-0.91729254
86643211338282,-0.8813671999999999,9.695039999999999,-0.8095166
86643231195819,-0.80712163,9.733359,-0.76161623
86643251053354,-0.7951465,9.683064,-0.7831714
86643270910762,-0.7592211999999999,9.695039999999999,-0.79754156
86643290768299,-0.78556645,9.663903999999999,-0.7831714
86643310628656,-0.7568262,9.7740755,-0.8095166
86643330486192,-0.732876,9.75252,-0.8382569
86643350343729,-0.75203615,9.70941,-0.8478370000000001
86643370201264,-0.84544194,9.642349000000001,-0.7927515
86643390064596,-0.8765772,9.702225,-0.81191164
86643409922389,-0.8382569,9.764495,-0.8430469
86643429780052,-0.85023195,9.718989,-0.87897223
86643449637716,-0.8334668,9.735755000000001,-0.8286768
86643469495509,-0.79035646,9.699829,-0.8765772
86643489358602,-0.7927515,9.721385,-0.9196875
86643509216522,-0.87418216,9.711803999999999,-0.84544194
86643529074443,-0.8310718,9.673484,-0.85023195
86643548932234,-0.7951465,9.584868,-0.8813671999999999
86643568790154,-0.8095166,9.630374,-0.977168
86643588648075,-0.855022,9.836346,-0.95561284
86643608505799,-0.7711963000000001,9.953702,-0.8981324
86643628363719,-0.728086,9.692644,-0.99393314
86643648221512,-0.855022,9.558523,-1.0490186000000001
86643668079431,-0.94603276,9.601633999999999,-0.9364527
86643687935102,-0.8861573,9.649534,-0.8047266
86643707792895,-0.7759864000000001,9.639954,-0.9651929
86643727650686,-0.7807764,9.702225,-1.089734
86643747508478,-0.75203615,9.740545,-0.9412427
86643767366271,-0.6730005,9.659114,-1.0083033000000001
86643787232071,-0.7927515,9.589659,-1.096919
86643807089991,-0.9436377,9.659114,-0.97956306
86643826948040,-1.0298585,9.77168,-0.9580079
86643846805959,-1.0801538,9.726174,-1.0921290000000001
86643866663879,-1.0274634,9.6615095,-1.0394385
86643886521928,-0.9867481,9.618399,-1.0130934
86643906385589,-0.974773,9.544153,-1.0011181999999998
86643926243765,-1.0226734,9.546548,-0.9915381
86643946101814,-1.0514137,9.742939999999999,-0.99393314
86643965959989,-1.0562036,9.821976,-1.0322535
86643985825967,-1.0106983,9.721385,-1.099314
86644005684272,-1.0346485,9.690249,-1.0154883
86644025542575,-0.9244776,9.716595,-0.9508228000000001
86644045400879,-0.87178713,9.627979,-0.98195803
86644065259184,-0.852627,9.575289,-0.9532178
86644085117615,-0.84544194,9.599238,-1.094524
86644104976114,-0.8430469,9.630374,-1.0585986
86644124834547,-0.8598120000000001,9.695039999999999,-0.93405765
86644144692978,-0.8669971,9.718989,-0.91250247
86644164551282,-0.82388675,9.608819,-0.9867481
86644184409715,-0.8885523000000001,9.505833,-0.96758795
86644204267049,-0.9963281999999999,9.484278,-0.8885523000000001
86644224125353,-0.9580079,9.498648,-0.8214916999999999
86644243983786,-0.8933423,9.575289,-0.81909674
86644263842217,-0.85023195,9.5633135,-0.9196875
86644283697248,-0.8478370000000001,9.515413,-0.977168
86644303555425,-0.90771246,9.570497999999999,-0.92208254
86644323413728,-0.8214916999999999,9.412427000000001,-0.8646021
86644343271904,-0.9029224,9.405242,-0.9963281999999999
86644363130209,-0.90771246,9.453142,-0.98914313
86644382988384,-0.9436377,9.534574000000001,-1.0921290000000001
86644402851430,-1.0106983,9.651928999999999,-0.9508228000000001
86644422709735,-0.97956306,9.666299,-0.94603276
86644442568166,-0.96040285,9.630374,-1.0130934
86644462426470,-1.096919,9.644744000000001,-1.0346485
86644482284903,-1.1352394,9.565708,-0.9508228000000001
86644502132544,-1.0825489,9.472302,-0.96040285
86644521990720,-1.0490186000000001,9.419611999999999,-1.0226734
86644541848897,-1.0346485,9.431587,-1.0729688
86644561707072,-1.0274634,9.4435625,-0.9532178
86644581559277,-0.97237796,9.472302,-0.95561284
86644601417326,-1.0250684,9.587264,-1.0154883
86644621275373,-1.0202783000000002,9.589659,-1.0178833
86644641133421,-1.0083033000000001,9.582474000000001,-1.0633887
86644660991598,-1.089734,9.654325,-1.0202783000000002
86644680849647,-1.0226734,9.635164,-0.95561284
86644700704892,-0.9987232,9.364527,-0.93405765
86644720562813,-1.0681788,9.304651,-1.0011181999999998
86644740420857,-0.9987232,9.441168,-0.98435307
86644760278777,-0.96040285,9.666299,-1.0490186000000001
86644780136826,-1.0106983,9.639954,-0.94603276
86644799994756,-0.96758795,9.544153,-1.0035132
86644819852676,-0.977168,9.496253,-0.9627979
86644839710597,-0.9651929,9.5633135,-0.9699829
86644859568644,-1.0346485,9.539363,-0.977168
86644879418957,-1.0633887,9.522598,-0.9580079
86644899276750,-1.0729688,9.539363,-0.9699829
86644919134541,-1.0753639,9.587264,-0.91729254
86644938992333,-1.0274634,9.663903999999999,-0.9196875
86644958850254,-1.0035132,9.568104,-0.9484278
86644978708045,-1.0729688,9.501043,-0.9580079
86644998557634,-1.1472143999999997,9.455538,-0.89573735
86645018415299,-1.1208692,9.469908,-0.86939216
86645038272962,-1.0753639,9.527389,-0.8765772
86645058130754,-1.0370435,9.524992999999998,-0.88376224
86645077988419,-1.0442286,9.544153,-0.90771246
86645097839962,-1.089734,9.587264,-0.8909473
86645117697498,-1.1088941,9.594449000000001,-0.8598120000000001
86645137555035,-1.1927198,9.534574000000001,-0.7831714
86645157412570,-1.2334352,9.457932000000001,-0.7185059
86645177270106,-1.2310401000000002,9.4435625,-0.75203615
86645197127643,-1.2286451,9.517808,-0.73048097
86645216986080,-1.1639795,9.508227999999999,-0.6706055000000001
86645236843616,-1.1304493,9.460327000000001,-0.74724615
86645256701025,-1.1663746000000002,9.422008,-0.8047266
86645276558560,-1.1711646,9.393267,-0.7831714
86645296417126,-1.1184741000000002,9.4507475,-0.6586304000000001
86645316274535,-1.0849438999999999,9.5561285,-0.51492923
86645336132072,-1.1112891000000003,9.596844,-0.51492923
86645355989481,-1.1280543,9.625584,-0.48379397
86645375846890,-1.1112891000000003,9.517808,-0.44068359999999995
86645395709029,-1.101709,9.477093,-0.40954837
86645415566566,-1.1064991000000002,9.635164,-0.31853762
86645435424103,-1.1208692,9.7740755,-0.102985844
86645455281640,-1.089734,9.83874,0.09580079
86645475139177,-1.1759547,9.879456,0.36883304
86645494996714,-1.2957056999999998,10.001602,0.6394701999999999
86645514858091,-1.1256591999999999,10.013577,0.68976563
86645534715628,-1.0035132,9.992022,0.60833496
86645554573293,-1.0130934,10.066267999999999,0.79035646
86645574430830,-1.1208692,10.394385,1.1807446000000001
86645594291483,-1.1208692,10.923684,1.2981006000000002
86645614149148,-0.85741705,11.1248665,0.5987549
86645634006813,-0.16286133,10.289003999999998,-0.41194338
86645653864606,-0.2802173,9.7740755,-0.69216067
86645673722271,-0.20357667,9.644744000000001,0.76401126
86645693580064,0.45744875,8.981323,0.18920656
86645713440179,-0.15328126,9.072334,0.9388476999999998
86645733297972,-0.81909674,8.919053,2.4716603999999998
86645753155765,-1.0394385,8.758587,2.2058132
86645773013408,-0.76401126,9.060359,2.0094216
86645792871201,-0.11496094,9.613608000000001,2.6967921
86645812737764,0.6322852,9.192085,2.1171973
86645832595685,0.5843848,8.53585,2.193838
86645852453603,0.035925295,8.341853,2.9195290000000003
86645872311523,-0.014370117,8.547825,3.1734009999999997
86645892169443,0.3903882,8.983719,3.3218922999999996
86645912035744,0.5748047,9.352551,3.5685792000000003
86645931893920,0.5005590999999999,9.541758999999999,4.102669000000001
86645951751968,0.25147706,9.716595,4.4355764
86645971610144,-0.14370118,9.879456,4.90979
86645991468320,-0.26345217,9.405242,5.5803957
86646011335139,-0.09580079,8.701106,5.8175025
86646031193571,-0.11496094,7.9706254,5.949229
86646051052003,-0.14370118,7.549102,6.679710000000001
86646070910435,1.1663746000000002,6.466553,7.2832546
86646090768867,2.9003687,4.3493557,7.070098
86646110619887,3.2189064,3.0344898999999996,4.603227599999999
86646130478063,-0.9316626,6.502478,-3.2045362
86646150336367,-6.5120583,23.25564,-3.4464333
86646170194671,-3.151846,24.489076999999998,7.158714
86646190052847,-0.81191164,0.2562671,-4.4283915
86646209912407,-4.0930886,0.009580079,1.3603711
86646229770711,-5.357659,8.224497999999999,2.2704787
86646249629015,-2.799778,13.41211,-3.4895437000000005
86646269487319,-0.64186525,13.756992000000002,-3.9350172999999997
86646289345623,2.6824220000000003,11.706856,-1.0202783000000002
86646309207908,2.5530908,10.839858999999999,1.1064991000000002
86646329066341,-0.28740236,9.208851,-0.38320315
86646348924771,-1.0083033000000001,8.538245,-1.3364209999999999
86646368783203,-0.4263135,8.183782,-0.7664063
86646388641507,0.09580079,8.224497999999999,0.23231691
86646408497184,-1.2621753,9.6686945,1.0562036
86646428355488,-0.8310718,9.259146000000001,1.6238233
86646448213920,0.21315674,9.702225,0.4526587
86646468072353,0.91729254,10.483001,-0.58198977
86646487930786,0.18681154,10.186019,0.31374758
86646507782397,-0.4742139,9.338181500000001,0.059875492
86646527640702,-0.34488282,9.235196,-0.016765138
86646547498879,-0.488584,9.453142,1.2645704
86646567357184,-0.58198977,9.019644,0.8478370000000001
86646587215489,0.07903565,8.684341,-1.089734
86646607062968,0.4382886,8.231683,-2.1842580000000003
86646626921017,0.5843848,8.361013,-1.4968873
86646646779066,-0.06706055,9.405242,-0.7185059
86646666637115,-0.48139894,10.540482,-0.62031007
86646686495164,-1.2837305,11.03625,0.5939649
86646706348079,-1.5256275,11.144027000000001,0.84544194
86646726206000,-0.28979737,11.112891000000001,0.30895755
86646746063793,0.8095166,11.316467999999999,-0.29937744
86646765921714,1.0130934,11.223061999999999,-0.20357667
86646785779635,1.4513819,12.068503999999999,-0.8047266
86646805637824,1.7531544,13.42169,-1.2525953
86646825495729,1.6717237,13.476775,-1.4968873
86646845353521,1.477727,12.822935000000001,-1.3747413
86646865211441,1.5304176,11.596685,-1.7842896000000001
86646885069233,0.11017089999999999,10.439891000000001,-2.047742
86646904926033,-1.9782863000000002,10.087823,-1.6046631000000002
86646924783953,-2.3782544,9.091495,-0.28261232
86646944641745,-1.9758912,11.000325,1.0705738
86646964499537,-0.34727785,12.092454,-1.4968873
86646984357329,1.7627343999999998,10.648257000000001,-3.2236965
86647004209264,2.1459377,10.219549,-3.295547
86647024066862,2.1459377,10.2315235,-0.95561284
86647043924654,1.5447876,10.619517,2.6704468999999995
86647063782318,0.43589357,9.917776,1.3507911
86647083639982,1.8824854,9.429193,-1.583108
86647103492874,2.339934,9.742939999999999,-2.4644752
86647123350410,2.7854077999999998,9.204061,-2.914739
86647143207946,2.5004005,8.452024,-3.7003052000000003
86647163065610,0.67539555,7.417375999999999,-2.9770092999999997
86647182923146,-1.1615845,7.304810000000001,-1.6980689999999998
86647202779195,-3.420088,7.6041875,0.8861573
86647222636603,-3.8200562000000007,7.671247999999999,0.8885523000000001
86647242494139,-3.9637575,7.719148,1.3579761000000001
86647262351676,-4.1625442999999995,8.054451,2.6057813
86647282209085,-3.05844,8.571775,2.675237
86647302074228,-1.7962648,8.538245,3.5302589999999996
86647321931890,-0.5340894,9.182506,4.6199927
86647341789426,1.7747096000000002,10.863809,6.4426026
86647361646962,5.618716200000001,12.23855,9.72857
86647381504626,9.793235000000001,10.38241,4.550537
86647401364849,7.158714,8.708291000000001,0.58677983
86647421222513,1.9208057,7.556286999999999,1.2046948999999998
86647441080177,0.89573735,9.994417,0.033530276
86647460937841,-0.5005590999999999,14.681470000000001,-5.757626999999999
86647480795505,-12.149935000000001,17.818947,-3.7458107000000003
86647500659799,-6.912027,10.557246000000001,8.868757
86647520517591,0.16046631,4.8666797,-0.9316626
86647540375383,0.72569096,7.779023599999999,-6.9719024
86647560233303,-0.49816409999999994,11.206297,-5.5061502
86647580091095,0.89573735,12.391831,-7.0748880000000005
86647599946723,-0.17962648,12.660074,-5.345683999999999
86647619804515,-1.4609618999999998,12.3415365,6.251001400000001
86647639662307,-0.7496411000000001,9.575289,4.746928700000001
86647659520099,0.67539555,6.6749196,-1.3867163999999998
86647679377891,-0.5460645000000001,6.332432,3.1087356
86647699242680,-1.0921290000000001,9.2256155,0.5364844
86647719100600,-0.23950197,9.592053,-0.68737066
86647738958392,-0.50534916,8.866363,0.24908204
86647758816312,-2.0980372000000003,8.796907000000001,-0.5676197
86647778674232,-2.203418,8.667575999999999,-1.6789087
86647798532152,-0.90052736,8.823253,-1.096919
86647818393205,-0.22273682,9.216036,-0.7951465
86647838251125,0.5125342,10.221944,-0.19399660000000002
86647858109173,0.7592211999999999,10.760823,1.4920973
86647877967221,0.19160157,10.684182,-0.059875492
86647897825269,-1.1735597,11.302097,-0.5388794
86647917684518,-1.7028589,11.534414,1.3939015
86647937542566,-0.51971924,11.534414,2.064507
86647957400614,1.2094848999999999,11.50328,-0.6514453
86647977258790,1.3507911,13.747413,-2.6153615
86647997116838,0.9508228000000001,14.741345,-2.9410841
86648016982548,0.3161426,12.315191,-2.6249416
86648036840852,-1.6046631000000002,10.061478,0.0071850587
86648056699156,-2.1219873,9.922566,0.38320315
86648076557332,-0.97956306,11.199112,-0.92208254
86648096415636,0.098195806,12.308005999999999,-0.32332766
86648116276410,0.65384036,11.024275999999999,0.19878663
86648136134714,1.5783178999999998,10.597961,-0.95561284
86648155993146,2.6225464,10.641072,-0.122146
86648175851450,1.7124390999999999,9.78605,0.76401126
86648195709754,0.9388476999999998,8.873548,0.9987232
86648215568034,0.06706055,8.54543,-0.05748047
86648235426338,0.38559815,8.174202000000001,-1.7387843
86648255284642,1.2094848999999999,7.510782000000001,-3.04886
86648275142946,0.22513184,8.116721,-3.2284865000000003
86648295001250,-0.6322852,8.765772,-1.8202148999999999
86648314856354,-1.705254,8.583751,-0.48379397
86648334714658,-3.4967287000000002,8.49274,0.9651929
86648354572834,-4.766089,8.50711,1.9758912
86648374431138,-3.7050953,8.389753,1.7675245
86648394289442,-1.7004639,8.806486999999999,1.4130616000000003
86648414145361,-0.62749517,8.734636,2.0621118999999997
86648434003665,-0.44307864,8.849598,2.5075855
86648453861969,-0.45505372,8.784932000000001,3.4560134
86648473720273,0.27542725,9.0891,5.364844000000001
86648493578449,2.095642,10.535691,5.079837
86648513428463,3.0704152999999996,11.505674,1.8489552
86648533286639,2.315984,11.491304,0.014370117
86648553144687,0.8430469,13.139078,-0.028740235
86648573002863,-0.8214916999999999,13.989309,-2.2680835999999998
86648592861039,-3.6691701,11.376344,-3.3937428
86648612708871,-3.422483,8.552615,-0.16046631
86648632566791,-3.0009596000000003,6.7683253,1.0801538
86648652424711,-3.2452517000000003,6.6844997,-1.1352394
86648672282503,-2.8213332,8.856783,-2.9410841
86648692140423,-0.5221143,11.726016,-4.540957499999999
86648711987798,-0.102985844,13.309123999999999,-4.248765000000001
86648731845334,1.0322535,11.347603,1.3507911
86648751702998,1.334026,9.932146000000001,4.5002417999999995
86648771560662,-0.7951465,9.644744000000001,0.51492923
86648791418326,-0.62749517,9.0891,1.4465919
86648811275777,-0.48379397,9.115445,0.4766089
86648831133313,-0.5628295999999999,9.189691,-1.2861254999999998
86648850990849,-0.73048097,8.978928999999999,-1.7842896000000001
86648870848513,-0.5724097,8.976534,-1.7028589
86648890706049,-0.48618898,9.453142,-1.6046631000000002
86648910569221,-0.24908204,9.759705,-1.5974781999999998
86648930426885,-0.5939649,10.035132,-0.80712163
86648950284677,-0.81191164,10.018367,-0.10538086
86648970142341,-0.8262818000000001,9.678274,-0.42391850000000003
86648990000005,-0.9532178,9.6758795,-1.0154883
86649009855560,-0.5963599,9.455538,-1.3148658000000002
86649029713096,-0.8885523000000001,9.352551,-0.8262818000000001
86649049569488,-1.3675561999999999,9.599238,-0.39996827
86649069427152,-1.2957056999999998,9.429193,-0.19399660000000002
86649089284688,-0.56522465,9.477093,-0.19639161
86649109141736,-0.11496094,9.881851,-0.059875492
86649128999400,0.011975098,10.214758999999999,-0.19639161
86649148856936,-0.20597169,10.277028999999999,-0.2562671
86649168714600,-0.0047900393,10.157278,-0.6514453
86649188572264,0.21794678,10.518927,-0.62749517
86649208430391,0.5340894,11.464959,-0.5939649
86649228287927,0.62989014,12.0110235,-1.1591895
86649248145463,-0.35925296,12.269686,-0.9316626
86649268002999,-1.6597486000000001,12.315191,-0.6825806
86649287860535,-2.440525,11.235037,-0.51971924
86649307721406,-2.0932472,9.692644,-0.8334668
86649327579070,-1.6741188000000002,8.581355,-1.1328443000000001
86649347436734,-1.8824854,8.576566,-0.5005590999999999
86649367294398,-2.2417382999999997,9.508227999999999,0.031135255
86649387151934,-2.3135889,10.126142999999999,0.35925296
86649407008591,-2.2441335,10.025552000000001,0.6466553
86649426866255,-2.6393116,9.941727,0.22034179999999998
86649446723791,-2.3423293,9.857901,0.44547364
86649466581327,-1.334026,9.690249,0.88376224
86649486438991,-0.8262818000000001,9.80521,0.22034179999999998
86649506298892,-0.732876,9.766891000000001,0.5724097
86649526156556,-0.7376661,9.733359,1.2502003000000002
86649546014092,-0.45984375,9.388477,1.1088941
86649565871756,-0.63707525,9.297466,0.44786867
86649585729292,-0.47181886,9.101074,-0.0023950195999999997
86649605591966,-0.9508228000000001,8.528665,1.0226734
86649625449630,-2.0094216,8.598121,2.3950195
86649645307422,-2.047742,8.119117,2.6345215
86649665165214,-1.9471509999999999,7.6209526,2.9698243
86649685022878,-1.6070582,7.776629,3.1159205
86649704883370,-1.5615528,8.485555,3.5374440000000003
86649724741290,-1.5519726999999999,9.108259,4.6583133000000005
86649744599082,-1.0490186000000001,8.681946,4.0691385
86649764456874,-0.24189699,8.145462,2.3016137999999997
86649784314794,0.80712163,9.19927,1.8154249
86649804182521,2.1291726000000004,10.485396000000001,2.2393433999999997
86649824040569,1.8681153000000001,9.970467,2.4668702999999996
86649843898745,0.17244141,8.404124000000001,3.1302907
86649863756793,-1.4801221000000002,7.999366,5.144501999999999
86649883614841,-1.8537452,8.099956500000001,5.039121
86649903476034,-1.8633252,7.965835,3.527864
86649923334210,-1.9950514,8.090376,3.2045362
86649943192386,-1.3148658000000002,8.291558,3.151846
86649963050562,-0.728086,8.739427000000001,3.535049
86649982908738,-0.33769777,8.919053,4.5649076
86650002771295,0.22992188,8.981323,4.7636943
86650022629599,0.40954837,9.649534,3.7194655
86650042487903,0.023950197000000003,12.571458,2.0836669999999997
86650062346207,-1.2502003000000002,17.150736,-0.1460962
86650082204512,-3.2452517000000003,17.785416,0.12693603
86650102056744,-2.2896388,10.9644,2.5890162
86650121915048,-1.7363893,4.737349,1.1735597
86650141773224,-3.0416749,3.9637575,-1.8513502
86650161631400,-2.3878345000000003,5.901328599999999,-1.099314
86650181489576,-1.7555493999999998,9.029224000000001,-0.5292993
86650201341053,-0.91250247,10.818304,-1.8729054
86650221199102,-0.21794678,11.632610000000001,-2.6153615
86650241057151,0.76880133,11.852952,-0.5005590999999999
86650260915200,1.4441968,11.9056425,2.2896388
86650280773249,0.20597169,10.657836999999999,1.2070899
86650300633558,-0.5340894,9.663903999999999,0.8861573
86650320491607,-0.70174074,9.407638,0.09340577
86650340349656,-1.1687696,9.441168,-0.7424561
86650360207705,-1.4920973,9.259146000000001,-0.8981324
86650380065754,-1.3651612,8.935819,-0.9484278
86650399921383,-0.17244141,8.976534,-0.8262818000000001
86650419779432,0.1820215,9.896221,-0.20597169
86650439637353,0.098195806,10.310559,-0.081430666
86650459495402,-0.33530274,9.651928999999999,-0.36883304
86650479353451,-1.1208692,9.14658,-0.098195806
86650499206910,-1.2478052,9.067544,0.28500733
86650519064831,-1.0657837,9.560919,0.49576905
86650538922752,-0.7209009,9.733359,0.48139894
86650558780801,-0.68018556,9.721385,0.023950197000000003
86650578638722,-0.81909674,10.042317,-1.2454101999999998
86650598496643,-0.97237796,10.049502,-0.4023633
86650618348334,-0.74724615,9.81,1.5615528
86650638206127,-1.0633887,9.905801,1.6741188000000002
86650658063920,-1.4298267,9.685459,1.1687696
86650677921819,-1.5352076000000001,9.376502,0.8262818000000001
86650697779612,-0.5939649,8.504715,-0.11256592
86650717628335,0.5125342,8.880733,-1.0083033000000001
86650737485872,1.0394385,9.877061,-0.6610254
86650757343537,0.7209009,10.911710000000001,0.8214916999999999
86650777201074,-0.040715333,10.528506,1.2525953
86650797058739,-1.8345851000000002,9.692644,0.5005590999999999
86650816918468,-3.3362625,11.56076,-1.2693603999999998
86650836776126,-1.9758912,13.713882,-0.8861573
86650856633790,-0.023950197000000003,12.513978,-0.9029224
86650876491454,-0.30416748,9.201666000000001,-1.4202466
86650896349118,-0.9699829,6.320457,-0.22034179999999998
86650916206434,-1.6908839,6.878496000000001,0.24908204
86650936064098,-1.7794994999999998,9.529783,1.1088941
86650955921762,-0.62031007,10.174044,0.7568262
86650975779298,-1.0753639,9.503438000000001,-0.0071850587
86650995636962,-2.2968237,9.362132,-0.62989014
86651015498496,-3.3338672999999996,9.280700999999999,-0.12933107
86651035356160,-3.5110989000000004,10.384805,1.1328443000000001
86651055214948,-1.4106666,10.435101,-0.30895755
86651075072612,-0.45505372,10.425521,-0.8933423
86651094930148,-0.5388794,10.466236,0.72569096
86651114785811,-1.7028589,9.16574,1.2789403999999998
86651134643475,-2.44771,8.430469500000001,1.1879296999999998
86651154501011,-2.3566992,7.956255400000001,0.6011499
86651174358675,-1.8729054,7.8676395,0.4023633
86651194216212,-1.2885206,8.344249000000001,0.728086
86651214074375,-1.3052857,9.13221,0.24908204
86651233931912,-1.3579761000000001,9.448353,-0.13651612
86651253789449,-1.3603711,9.695039999999999,-0.21076173
86651273647110,-1.3052857,10.851834,0.244292
86651293504646,-1.0059083,12.571458,3.9661524
86651313366709,-1.1663746000000002,11.673326,6.4186525
86651333224373,-1.5974781999999998,9.005274,1.0801538
86651353082037,-0.7592211999999999,7.5874224,-4.3110349999999995
86651372939701,-0.5748047,7.814949,-4.9217653
86651392797237,-0.8813671999999999,8.837622999999999,-4.018843
86651412654188,-2.1962330000000003,9.611214,-0.43589357
86651432511853,-4.040398000000001,9.807606,3.65959
86651452369518,-4.524192,9.297466,2.9913795
86651472227183,-3.5709742999999996,8.971744000000001,-0.8382569
86651492084848,-3.1063403999999997,10.157278,-1.7962648
86651511948747,-2.4644752,10.770403,-0.10777588
86651531806540,-0.852627,10.078242,0.30895755
86651551664333,0.8286768,9.642349000000001,-0.3544629
86651571522126,1.2406201000000001,10.162068,-1.1136841999999998
86651591380047,0.51492923,10.439891000000001,-1.453777
86651611235672,-0.18681154,9.517808,-1.3747413
86651631093593,-1.0370435,9.594449000000001,0.14370118
86651650951386,-0.9651929,11.723621000000001,-0.24668702
86651670809179,0.19399660000000002,11.175161,-2.2513185
86651690666972,0.7424561,11.050621000000001,1.2022998
86651710523991,0.6322852,11.227852,2.7566676
86651730381784,0.17483643,9.946517,1.6381934999999999
86651750239577,-0.7424561,9.81958,0.46463382
86651770097370,-1.5807129,9.79084,-0.7592211999999999
86651789955163,-2.7662477,9.19927,-0.79754156
86651809809610,-3.8464015,8.789722,-0.58198977
86651829667403,-2.3782544,9.005274,-1.0801538
86651849525047,-1.0753639,9.73815,-0.11256592
86651869382711,-0.22273682,10.013577,0.6777906
86651889240503,0.37122804,9.687855,-0.081430666
86651909099801,0.100590825,9.64714,-0.9412427
86651928957593,0.35685793,9.831555,-2.0166066000000002
86651948815385,1.223855,9.750125,-2.5363257000000003
86651968673305,1.3627661,9.541758999999999,-1.7028589
86651988531097,1.0825489,9.831555,-0.44786867
86652008391681,0.89573735,9.984836999999999,-0.91010743
86652028249601,0.5221143,9.922566,-1.4010864
86652048107521,-0.3305127,10.226734,-1.5567628
86652067965313,-0.8143066999999999,10.487791,-0.90771246
86652087823233,-1.5184423999999999,10.420731,0.24189699
86652107679528,-2.198628,9.730965,0.42152345
86652127537320,-2.6153615,9.017249000000001,0.4622388
86652147395240,-3.0392799999999998,8.998089,-0.09580079
86652167253032,-3.1207106,9.424402,0.05508545
86652187110952,-2.9889846,9.845925,0.74006104
86652206968980,-2.5578809,10.097403,0.51971924
86652226826772,-1.8250049,10.219549,-0.18681154
86652246684693,-1.3986914,10.248289,-0.7161109
86652266542486,-1.590293,9.989627,-0.69695073
86652286400276,-2.304009,9.821976,-0.12933107
86652306264602,-2.4644752,9.951306,0.37362307
86652326122522,-2.6225464,10.291399,0.5891748
86652345980314,-3.032095,10.152488,0.5676197
86652365838234,-3.1470559,9.570497999999999,0.22273682
86652385696154,-2.8883936,8.943004,-0.17244141
86652405552396,-2.7854077999999998,8.674761,-0.39996827
86652425410317,-2.5411158,9.16095,-0.17004639
86652445268110,-2.327959,9.7740755,0.4382886
86652465126031,-2.2106032000000004,9.716595,1.0777588
86652484983824,-1.5926881000000002,9.438772,1.590293
86652504843901,-0.24908204,9.853110000000001,0.117355965
86652524701822,0.5939649,9.77168,-1.8681153000000001
86652544559743,-0.5340894,8.957374,-2.339934
86652564417664,-2.5578809,8.804092,-0.68737066
86652584275457,-4.1098537,9.05557,1.6190332
86652604130998,-4.145779,9.022039,1.4178516
86652623988919,-3.0033545,9.189691,-0.33769777
86652643846840,-2.3375392,10.145303,-1.0178833
86652663704633,-1.8345851000000002,10.621912,-0.5388794
86652683562554,-1.583108,10.676997,-0.06945557
86652703423121,-1.1591895,10.403965,0.48139894
86652723281042,-0.855022,10.097403,1.0106983
86652743138963,-0.84544194,9.848321,0.06706055
86652762996884,-1.0585986,9.582474000000001,-0.7161109
86652782854805,-1.585503,9.357342,-0.5987549
86652802713778,-2.0357666,9.251961,-0.44068359999999995
86652822571827,-2.2417382999999997,9.429193,-0.26345217
86652842429730,-2.047742,9.635164,-0.34727785
86652862287650,-1.9184108,10.008787,-0.15088624
86652882145698,-1.8082398000000002,10.320139999999999,-0.06945557
86652902003618,-1.5184423999999999,10.226734,-0.34009278
86652921865951,-1.3244458000000001,10.035132,-0.61073
86652941724127,-1.2789403999999998,9.616004,-0.6059399999999999
86652961582175,-1.3148658000000002,9.290281,-0.42391850000000003
86652981440351,-1.3915064,9.326205999999999,-0.31135255
86653001298399,-1.5064673000000002,9.721385,-0.4023633
86653021149835,-1.4825171,9.910591,-0.4766089
86653041007755,-1.2717555,10.109378,-0.39278322
86653060863465,-1.1879296999999998,10.042317,-0.34248779999999995
86653080721513,-1.2358301999999999,9.848321,-0.366438
86653100579433,-1.2765454,9.865086,-0.4622388
86653120437591,-1.2549903,9.692644,-0.50534916
86653140295511,-1.1448194,9.692644,-0.5748047
86653160153559,-1.1112891000000003,9.807606,-0.51971924
86653180011607,-1.1520045,9.877061,-0.51013917
86653199869655,-1.2478052,10.111773,-0.5460645000000001
86653219719932,-1.3100758,10.162068,-0.61073
86653239577724,-1.3220508,10.039923,-0.5843848
86653259435644,-1.1855347,9.939331,-0.5412744
86653279293437,-1.1304493,9.759705,-0.6322852
86653299151228,-1.2070899,9.616004,-0.83586186
86653319009410,-1.3651612,9.592053,-0.91010743
86653338867330,-1.4418018,9.690249,-0.8382569
86653358725122,-1.2070899,9.692644,-0.80712163
86653378582914,-0.9699829,9.901011,-0.8646021
86653398440834,-0.90771246,10.003997,-0.85023195
86653418294558,-0.88376224,9.977652,-0.92208254
86653438152223,-0.91010743,9.881851,-0.8933423
86653458010016,-0.9316626,9.6686945,-0.74724615
86653477867681,-0.8646021,9.616004,-0.73527104
86653497725474,-0.855022,9.5633135,-0.75203615
86653517586831,-0.9053174,9.5489435,-0.7759864000000001
86653537444496,-0.86220706,9.702225,-0.7448511
86653557302289,-0.7424561,9.862691,-0.6993457
86653577159954,-0.63707525,9.963282000000001,-0.7424561
86653597017747,-0.6825806,9.829161000000001,-0.7711963000000001
86653616872386,-0.81909674,9.616004,-0.76161623
86653636730051,-0.9484278,9.5489435,-0.76880133
86653656587716,-1.0514137,9.625584,-0.73048097
86653676445381,-1.094524,9.764495,-0.6682104999999999
86653696303046,-1.0873389,9.922566,-0.6562354
86653716164257,-1.0059083,9.8866415,-0.7448511
86653736022050,-0.9580079,9.857901,-0.86939216
86653755879715,-0.9388476999999998,9.778865,-0.9148975
86653775737508,-0.8669971,9.666299,-0.9412427
86653795595173,-0.88376224,9.599238,-0.9029224
86653815457184,-0.95561284,9.577683,-0.8981324
86653835314977,-0.9364527,9.673484,-1.0035132
86653855172751,-0.9580079,9.685459,-0.98195803
86653875030543,-0.9364527,9.7142,-0.9627979
86653894888335,-0.92926764,9.711803999999999,-0.9867481
86653914751923,-0.94603276,9.778865,-1.2022998
86653934609843,-1.0825489,9.721385,-1.1088941
86653954467891,-1.1280543,9.553733,-0.9627979
86653974325811,-1.1064991000000002,9.448353,-0.977168
86653994183731,-1.0657837,9.611214,-1.1256591999999999
86654014046296,-1.0370435,9.800421,-1.1232642
86654033904344,-0.9987232,9.80521,-0.96040285
86654053762392,-0.90771246,9.72857,-0.977168
86654073620568,-0.9651929,9.649534,-1.1424243
86654093478616,-1.0729688,9.5561285,-1.1663746000000002
86654113332873,-1.1759547,9.580078,-1.0585986
86654133190793,-1.2573853000000002,9.584868,-0.96040285
86654153048841,-1.2046948999999998,9.596844,-1.0011181999999998
86654172906889,-1.1448194,9.627979,-1.1280543
86654192764937,-1.1783496,9.692644,-1.1472143999999997
86654212619074,-1.1424243,9.766891000000001,-1.0873389
86654232476994,-1.0849438999999999,9.72378,-1.0609937
86654252334914,-1.0609937,9.611214,-1.1184741000000002
86654272192835,-1.1136841999999998,9.558523,-1.2046948999999998
86654292050756,-1.1807446000000001,9.613608000000001,-1.1735597
86654311912395,-1.1543995,9.683064,-1.1208692
86654331770440,-1.1352394,9.72857,-0.9915381
86654351628488,-1.1352394,9.695039999999999,-1.0083033000000001
86654371486408,-1.1543995,9.651928999999999,-1.1041040000000002
86654391344456,-1.1208692,9.584868,-1.1184741000000002
86654411201446,-1.0729688,9.572892999999999,-1.0753639
86654431059494,-1.0921290000000001,9.513017999999999,-1.0466236
86654450917543,-1.1041040000000002,9.503438000000001,-1.1400293
86654470775464,-1.1328443000000001,9.623189,-1.1304493
86654490633513,-1.1304493,9.718989,-1.1472143999999997
86654510487646,-1.1615845,9.692644,-1.0873389
86654530345567,-1.1999048,9.663903999999999,-1.1280543
86654550203616,-1.1951148999999999,9.649534,-1.1064991000000002
86654570061537,-1.1472143999999997,9.625584,-1.0657837
86654589919586,-1.1424243,9.568104,-0.9029224
86654609771709,-1.2070899,9.558523,-1.0011181999999998
86654629629630,-1.2693603999999998,9.64714,-1.0538087
86654649487423,-1.22625,9.829161000000001,-1.0322535
86654669345344,-1.1903248,9.80521,-0.9963281999999999
86654689203137,-1.22625,9.625584,-0.9412427
86654709060948,-1.2430152,9.532178,-0.94603276
86654728918741,-1.2406201000000001,9.584868,-0.9867481
86654748776662,-1.2502003000000002,9.565708,-0.90771246
86654768634455,-1.22146,9.601633999999999,-0.8262818000000001
86654788492248,-1.1759547,9.6686945,-0.92926764
86654808350151,-1.2525953,9.793235000000001,-1.0154883
86654828204471,-1.2981006000000002,9.968072,-0.8598120000000001
86654848062263,-1.2046948999999998,9.881851,-0.72569096
86654867919927,-1.1136841999999998,9.568104,-0.8143066999999999
86654887777719,-1.2022998,9.539363,-0.98435307
86654907635383,-1.2597803,9.491463000000001,-0.9532178
86654927490455,-1.2118799999999998,9.438772,-0.8286768
86654947348119,-1.1280543,9.486672,-0.8765772
86654967205783,-1.1400293,9.75731,-0.95561284
86654987063447,-1.0777588,9.956097,-1.0106983
86655006920983,-0.9699829,9.836346,-0.98435307
86655026779971,-1.0059083,9.6686945,-0.98435307
86655046637635,-1.0490186000000001,9.642349000000001,-0.93405765
86655066497733,-1.0178833,9.630374,-0.8143066999999999
86655086355397,-0.9627979,9.608819,-0.71371585
86655106213061,-0.977168,9.558523,-0.80712163
86655126073395,-1.0154883,9.604028999999999,-0.9532178
86655145931187,-0.9196875,9.697434,-0.99393314
86655165788851,-0.91010743,9.7621,-0.99393314
86655185646516,-0.9867481,9.75731,-0.91729254
86655205504309,-1.0753639,9.75252,-0.8646021
86655225358560,-1.0753639,9.589659,-0.8598120000000001
86655245216222,-1.0777588,9.508227999999999,-0.87178713
86655265073758,-1.101709,9.534574000000001,-0.9053174
86655284931294,-1.1041040000000002,9.6758795,-0.8909473
86655304788958,-1.0394385,9.75252,-0.9316626
86655324646646,-0.98435307,9.7621,-0.98435307
86655344504182,-0.9867481,9.75731,-0.98914313
86655364361847,-0.9364527,9.778865,-0.9148975
86655384219384,-0.8310718,9.690249,-0.9244776
86655404077049,-0.91250247,9.524992999999998,-0.93405765
86655423934120,-0.98195803,9.568104,-0.81909674
86655443791657,-0.9987232,9.697434,-0.85023195
86655463649322,-0.9987232,9.683064,-0.8813671999999999
86655483506859,-1.0083033000000001,9.75252,-0.86939216
86655503364524,-1.0130934,9.850716,-0.91010743
86655523224473,-0.96758795,9.798025,-0.8598120000000001
86655543082138,-0.96040285,9.7142,-0.8813671999999999
86655562939803,-1.0442286,9.618399,-0.91250247
86655582797468,-1.1376343,9.5633135,-0.8861573
86655602655133,-1.0801538,9.616004,-0.8669971
86655622518246,-0.97237796,9.72378,-0.86220706
86655642376039,-0.92926764,9.663903999999999,-0.96040285
86655662233832,-0.9508228000000001,9.721385,-0.977168
86655682091753,-0.8813671999999999,9.857901,-0.9316626
86655701949546,-0.8143066999999999,9.697434,-0.8981324
86655721804523,-0.85023195,9.582474000000001,-0.9053174
86655741662316,-0.91250247,9.577683,-0.8885523000000001
86655761520109,-0.9651929,9.642349000000001,-0.8861573
86655781377774,-0.96040285,9.783655,-0.8095166
86655801235547,-0.8933423,9.788445,-0.7711963000000001
86655821096328,-0.8262818000000001,9.697434,-0.7807764
86655840954120,-0.74006104,9.735755000000001,-0.87178713
86655860811912,-0.7496411000000001,9.83874,-0.87418216
86655880669704,-0.8669971,9.6758795,-0.76161623
86655900527496,-0.97237796,9.685459,-0.67539555
86655920388761,-1.0035132,9.685459,-0.68737066
86655940246681,-0.9388476999999998,9.750125,-0.7831714
86655960104601,-0.86220706,9.699829,-0.7376661
86655979962521,-0.7807764,9.656719,-0.78556645
86655999820313,-0.77359134,9.716595,-0.81191164
86656019684994,-0.75203615,9.639954,-0.8143066999999999
86656039543042,-0.73048097,9.544153,-0.8885523000000001
86656059401090,-0.8981324,9.596844,-0.9412427
86656079259138,-1.1112891000000003,9.75252,-0.76161623
86656099117186,-1.1232642,9.74773,-0.71371585
86656118970480,-1.0083033000000001,9.68067,-0.8167017
86656138828400,-0.98195803,9.613608000000001,-0.9244776
86656158686320,-0.9627979,9.623189,-0.98195803
86656178544240,-1.0202783000000002,9.649534,-0.9148975
86656198402160,-1.0873389,9.663903999999999,-0.7807764
86656218269796,-1.1735597,9.70941,-0.7592211999999999
86656238127844,-1.1543995,9.81958,-0.74006104
86656257986020,-1.0490186000000001,9.903406,-0.74006104
86656277844068,-0.9532178,9.807606,-0.8047266
86656297702116,-0.8646021,9.666299,-0.8478370000000001
86656317569551,-0.84544194,9.644744000000001,-0.8334668
86656337427855,-0.8310718,9.570497999999999,-0.8430469
86656357286159,-0.79993653,9.527389,-0.85741705
86656377144463,-0.8430469,9.656719,-0.78556645
86656397002767,-0.8382569,9.721385,-0.7807764
86656416863392,-0.8478370000000001,9.843531,-0.85023195
86656436721697,-0.8598120000000001,9.848321,-0.85023195
86656456580130,-0.8909473,9.848321,-0.8646021
86656476438563,-0.9699829,9.678274,-0.8382569
86656496296868,-0.9963281999999999,9.575289,-0.852627
86656516149863,-1.0178833,9.489068,-0.8382569
86656536008168,-1.0657837,9.572892999999999,-0.95561284
86656555866473,-1.0681788,9.769285,-0.9699829
86656575724778,-1.0873389,9.896221,-1.0274634
86656595583083,-1.0059083,9.82437,-0.97956306
86656615432306,-0.9388476999999998,9.6758795,-1.0466236
86656635290483,-0.9364527,9.611214,-1.0729688
86656655148660,-1.0250684,9.560919,-1.0466236
86656675006837,-1.0633887,9.5633135,-0.9651929
86656694865014,-1.1088941,9.551338000000001,-0.96040285
86656714718625,-1.089734,9.70941,-1.0346485
86656734576674,-0.99393314,9.865086,-1.0418334999999999
86656754434851,-0.9316626,9.910591,-1.0657837
86656774292900,-0.98195803,9.72378,-1.0490186000000001
86656794150932,-1.0442286,9.620794,-1.0777588
86656814007864,-1.1112891000000003,9.522598,-1.0921290000000001
86656833865912,-1.1424243,9.539363,-1.2070899
86656853723960,-1.1783496,9.527389,-1.1304493
86656873582008,-1.1400293,9.527389,-1.0825489
86656893440184,-1.0466236,9.82437,-1.0873389
86656913294051,-0.9915381,9.795630000000001,-1.1328443000000001
86656933151971,-1.0346485,9.831555,-1.1088941
86656953010019,-1.094524,9.735755000000001,-1.0083033000000001
86656972867939,-1.094524,9.546548,-1.0083033000000001
86656992725860,-1.0777588,9.536968,-0.98195803
86657012578056,-1.0609937,9.608819,-0.9987232
86657032435848,-1.0059083,9.687855,-0.9867481
86657052293769,-0.96040285,9.718989,-0.9532178
86657072156442,-0.95561284,9.690249,-1.0585986
86657092012040,-0.9867481,9.764495,-1.0370435
86657111869833,-1.0202783000000002,9.733359,-0.98195803
86657131727624,-1.0370435,9.5561285,-0.9580079
86657151585288,-1.1424243,9.551338000000001,-1.0130934
86657171443081,-1.1376343,9.577683,-1.0322535
86657191300872,-1.1041040000000002,9.742939999999999,-0.977168
86657211159488,-1.094524,9.750125,-1.0274634
86657231017281,-1.1232642,9.659114,-1.1088941
86657250874944,-1.1543995,9.7621,-1.0921290000000001
86657270732736,-1.1472143999999997,9.77647,-1.0322535
86657290590529,-1.094524,9.707015,-1.0562036
86657310447239,-1.1711646,9.599238,-1.0562036
86657330304903,-1.1879296999999998,9.577683,-1.0729688
86657350162568,-1.101709,9.620794,-1.1424243
86657370020233,-1.0346485,9.685459,-1.1256591999999999
86657389873196,-1.0274634,9.649534,-1.0801538
86657409730733,-1.0705738,9.75731,-1.1112891000000003
86657429588270,-1.0753639,9.742939999999999,-1.1184741000000002
86657449445935,-1.0609937,9.577683,-1.1280543
86657469303472,-1.0681788,9.630374,-1.0059083
86657489161009,-1.089734,9.651928999999999,-1.0370435
86657509016004,-1.0418334999999999,9.742939999999999,-1.1041040000000002
86657528873413,-1.0035132,9.726174,-1.1783496
86657548730822,-1.0059083,9.637559,-1.2070899
86657568588359,-1.0777588,9.64714,-1.2382251
86657588445768,-1.0657837,9.568104,-1.1543995
86657608306009,-1.0633887,9.527389,-1.0538087
86657628163546,-1.1064991000000002,9.568104,-1.0514137
86657648020955,-1.0538087,9.742939999999999,-1.1687696
86657667878492,-0.9388476999999998,9.817185,-1.1280543
86657687736029,-0.8885523000000001,9.72378,-0.9316626
86657707593566,-0.86939216,9.616004,-0.7879615
86657727450827,-0.8813671999999999,9.592053,-0.82388675
86657747308236,-0.9627979,9.608819,-0.9029224
86657767165645,-0.9053174,9.673484,-0.8095166
86657787023182,-0.9412427,9.656719,-0.7448511
86657806882475,-0.9699829,9.79084,-0.7448511
86657826740012,-0.93405765,9.764495,-0.80233157
86657846597547,-0.88376224,9.72378,-0.86220706
86657866455083,-0.9627979,9.766891000000001,-0.8286768
86657886312620,-1.0490186000000001,9.716595,-0.8143066999999999
86657906173848,-1.2022998,9.6615095,-0.855022
86657926031512,-1.2669654,9.632769,-0.8382569
86657945889177,-1.0609937,9.632769,-0.9268726
86657965746840,-0.974773,9.704619000000001,-0.9627979
86657985604632,-0.91250247,9.750125,-0.9867481
86658005462297,-0.9196875,9.663903999999999,-0.9484278
86658025325885,-0.99393314,9.642349000000001,-0.9029224
86658045183805,-0.9436377,9.632769,-0.8430469
86658065041598,-0.9053174,9.596844,-0.86220706
86658084899517,-0.8933423,9.625584,-0.9316626
86658104759790,-0.93405765,9.721385,-0.8382569
86658124617711,-0.86939216,9.812395,-0.86220706
86658144475630,-0.8478370000000001,9.848321,-0.8382569
86658164333550,-0.89573735,9.802814999999999,-0.79035646
86658184191471,-0.85741705,9.635164,-0.7496411000000001
86658204047715,-0.8598120000000001,9.553733,-0.76401126
86658223905508,-0.89573735,9.592053,-0.7951465
86658243763429,-0.8909473,9.783655,-0.8095166
86658263621219,-0.87418216,9.826766000000001,-0.8286768
86658283479011,-0.81909674,9.75252,-0.8646021
86658303336932,-0.8813671999999999,9.697434,-0.91250247
86658323191210,-0.8765772,9.685459,-0.85741705
86658343049002,-0.86939216,9.635164,-0.7879615
86658362906667,-0.9915381,9.498648,-0.8598120000000001
86658382764458,-1.0130934,9.5561285,-0.84544194
86658402624985,-0.94603276,9.711803999999999,-0.8478370000000001
86658422482778,-0.8813671999999999,9.845925,-0.8669971
86658442340571,-0.8981324,9.807606,-0.8981324
86658462198364,-0.92926764,9.735755000000001,-0.88376224
86658482056157,-0.98195803,9.671089,-0.8047266
86658501914078,-0.9867481,9.6615095,-0.7544312
86658521775747,-1.0059083,9.553733,-0.76880133
86658541633668,-0.9867481,9.618399,-0.8095166
86658561491589,-0.9532178,9.75252,-0.85023195
86658581349382,-0.8981324,9.81,-0.87418216
86658601207303,-0.88376224,9.891430999999999,-0.8310718
86658621056196,-0.97956306,9.75731,-0.7448511
86658640913861,-0.9508228000000001,9.697434,-0.7927515
86658660771654,-0.9484278,9.64714,-0.88376224
86658680629319,-1.0298585,9.582474000000001,-0.91729254
86658700482120,-1.0538087,9.637559,-0.87178713
86658720339785,-0.97237796,9.750125,-0.84065187
86658740197322,-0.9508228000000001,9.766891000000001,-0.8861573
86658760054987,-0.9244776,9.690249,-0.9963281999999999
86658779912524,-0.9412427,9.697434,-0.98195803
