UPTIMENANO,Ax,Ay,Az
86604309442978,-0.42874756,-0.45830485,10.170542
86604329301667,-0.54683065,0.38518947,10.565156
86604349154812,-1.2985674,1.7395476,12.404695
86604369013628,-1.9745961,2.2331553,13.467308
86604388872317,-2.2074475,0.72048515,11.363462
86604408731004,-1.0325301,-0.48700187,9.003745
86604428581067,-0.31512693,-0.5365751,10.079015
86604448439628,-0.96636987,0.41414565,9.458303
86604468298187,-0.890048,1.0034504,9.424167
86604488156619,-1.1599461,0.61787236,9.410557
86604508015180,-1.5547069,0.37155044,8.983975
86604527870813,-0.71929735,0.80918074,8.713963
86604547729245,-0.0076566567,0.37583148,8.110741
86604567587678,-0.90049195,-0.6473772,8.251089
86604587446109,-1.0626369,-0.4742948,8.969083
86604607298465,-1.4938196,-0.13893756,9.601868
86604627156770,-2.1267934,-0.25879577,9.600039
86604647015073,-1.5155557,-0.16863714,9.230605
86604666873377,-0.9887091,0.25077987,9.158083
86604686731682,-1.2743428,1.2167469,10.088795
86604706589985,-1.5806223,1.7885741,11.414737
86604726449964,-1.1591774,-0.38861766,9.860479
86604746308269,-0.5937881,-3.3617244,6.521006
86604766166700,-0.6947586,-1.9322608,6.8994308
86604786025004,-1.7273626,2.4888487,10.752829
86604805883309,-2.617925,5.4346757,12.965026
86604825743343,-2.3131726,3.0190263,12.461586
86604845601775,-0.8987773,0.101912275,10.523098
86604865460208,0.8984205,-1.6288744,9.233565
86604885318639,1.0131894,-1.8933473,9.297939
86604905175736,-0.95269936,-0.037639067,9.747591
86604925034041,-1.8528019,0.74110234,10.120744
86604944892472,-1.3998706,-0.05468671,10.5737295
86604964750776,-0.6819357,-1.4187796,10.057382
86604984609209,0.50505805,-0.7986497,9.237296
86605004467512,-0.09991549,0.42630562,9.8026705
86605024329144,-0.7558113,-0.76319885,8.834612
86605044187577,0.016620768,0.17448337,7.9991355
86605064045880,0.7321487,0.9422955,9.633728
86605083904312,1.1492251,0.7208505,9.492377
86605103762745,0.6930216,-0.15754461,8.685024
86605123619359,0.2755999,-0.6222566,8.819505
86605143477919,-0.09013558,-0.40284517,9.746781
86605163336352,-0.24209803,-0.2939929,10.407848
86605183194783,0.3176531,-0.498767,10.571635
86605203053215,0.48551622,-0.07860796,10.856215
86605222911648,0.10955123,0.22507429,11.199039
86605242772810,-0.012215094,-0.5670437,10.931348
86605262631370,-0.28384775,-0.26877663,10.791335
86605282489931,-0.018563116,0.25996464,10.593111
86605302348362,0.6260254,0.37510863,9.964047
86605322200808,0.74717915,0.3427517,9.312602
86605342059241,-0.2798832,0.7381912,9.826698
86605361917672,-0.82200074,0.6485033,10.27718
86605381775976,-0.9400657,0.62712574,10.426486
86605401634409,-0.32175243,1.4544742,10.580749
86605421490603,0.06564502,1.1391048,9.923245
86605441348779,-0.35121408,-0.15004857,9.561759
86605461207084,-0.14470635,-0.12733689,9.459933
86605481065259,0.112953655,0.6933405,9.588532
86605500923563,-0.26636672,1.400791,10.243972
86605520781868,-0.7769864,1.1453246,10.101998
86605540640202,-0.59118325,0.62549883,9.480969
86605560498506,0.90318775,0.65568984,8.930724
86605580356683,-0.36178786,-0.6728284,7.644347
86605600214858,-2.4280488,-0.24020426,10.82147
86605620073996,-1.6393887,1.4432786,12.730687
86605639932173,-1.9562653,0.66440624,11.3474245
86605659790476,-1.3445102,-0.8958278,9.616577
86605679648652,-0.73810464,-0.02564689,9.8810425
86605699506957,-1.3266008,0.18508062,9.827822
86605719362359,-1.5659182,-0.60008,9.466639
86605739220535,1.2355132,-0.2268093,10.250616
86605759078712,0.22929652,0.70044965,8.974612
86605778936887,-1.1730673,-0.6340091,8.172471
86605798795063,-0.4828979,-1.2590411,9.008122
86605818653240,0.03784043,-0.29317328,9.387527
86605838512366,1.3573332,1.0039432,10.210468
86605858370542,1.2425578,0.7607193,10.286704
86605878228847,-0.1961117,-0.5987303,10.87388
86605898087022,-1.8132343,-1.3442152,13.191079
86605917949001,-2.326845,-1.2026403,13.44908
86605937807306,-1.8466547,-1.0828145,12.443413
86605957665737,-1.8362715,-1.3005254,10.449769
86605977524041,-1.9470834,-0.7621319,9.108496
86605997382474,-1.9866405,0.18885826,10.245002
86606017240777,-1.1879518,1.4641871,10.579839
86606037100605,0.3845543,2.031961,10.063461
86606056958909,-0.6816474,-0.14207062,7.8343062
86606076817341,-3.4644458,-1.7188151,4.3256392
86606096675773,-2.578948,-2.0135949,3.6112254
86606116534077,1.5397339,-1.2392188,5.8113594
86606136395148,3.4140234,-1.5485011,7.5788116
86606156253580,2.970137,-0.15796505,9.445784
86606176112012,1.5380154,0.90858483,10.8479805
86606195970444,0.062398486,1.1679468,11.83305
86606215828876,-2.8143084,0.70807374,12.602955
86606235682492,1.8142136,1.618473,13.225399
86606255540796,4.4531035,-0.1732512,14.16872
86606275399100,2.5684583,-1.4864228,14.061506
86606295257404,0.7959561,-0.9118832,12.587425
86606315115708,-1.8706865,0.6771347,11.484927
86606334974291,-4.610066,1.2059215,11.137015
86606354836174,-5.50098,1.3460122,10.49809
86606374694478,-5.181367,1.3410963,9.39957
86606394552782,-4.237054,-0.31290126,4.613052
86606414411086,-1.888472,-0.61237836,3.3037722
86606434271165,0.36459982,0.92611307,6.3932724
86606454129597,0.33619705,2.1972113,9.788414
86606473987901,0.65979606,2.5873103,12.775383
86606493846205,1.8378913,0.9636752,13.919994
86606513704509,10.682334,-2.939023,5.9263783
86606533558350,1.1474097,-0.40025592,0.21617296
86606553416654,-16.65047,8.943202,9.410111
86606573274958,-9.457231,6.2618175,9.198736
86606593133134,-4.2385526,-1.8430374,6.658635
86606612991438,-3.3574684,-4.8186264,13.643595
86606632844951,-0.74278736,-4.3525653,12.889826
86606652703255,-1.3590385,-5.153508,3.1499195
86606672561431,-3.136535,-1.648639,-1.308239
86606692419607,-2.7457132,2.0480242,0.30934015
86606712277783,-1.8132515,3.4706004,0.9004596
86606732135358,-0.9563758,5.6157293,0.83863
86606751993406,0.21570754,8.922133,4.7284594
86606771851582,3.5111938,12.1115265,10.164811
86606791709758,3.5411978,7.556695,11.957377
86606811567934,1.5475907,0.92787015,10.289825
86606831421735,2.6990855,2.3784375,12.347809
86606851279783,6.216501,6.3192496,18.318539
86606871137831,5.9132295,4.1354413,20.455006
86606890995879,2.658533,0.23303376,17.78762
86606910854055,-0.64895654,-0.41890374,17.053848
86606930704685,0.019421475,-2.706952,20.697964
86606950562605,1.9885893,-5.107344,20.899452
86606970420525,3.85211,-3.8433006,17.929035
86606990278317,7.654031,-2.5687304,15.662479
86607010136237,-1.2816858,-8.6745405,14.086152
86607029994157,-11.915091,-9.471947,14.991762
86607049854698,-4.8999577,-4.179065,16.088238
86607069712746,-0.037488796,-2.5659096,12.941494
86607089570666,-0.98123187,-1.8831536,10.640055
86607109428586,0.1460339,-0.23711023,12.471352
86607129286506,7.2004766,-2.2248316,13.65035
86607149142945,1.174844,0.9763295,6.8145027
86607169000865,0.07493926,-2.7402966,7.2208824
86607188858785,10.359816,-1.6684576,10.323292
86607208716705,-1.3526012,-0.03613209,7.490418
86607228574625,-2.6033938,-0.86633873,9.094716
86607248439158,-2.1615987,-4.029688,9.634458
86607268297206,2.4563477,-1.1662203,10.583878
86607288155126,3.3008204,1.1734732,11.552254
86607308013174,0.81467026,0.3737922,4.8887734
86607327871222,1.266322,-0.28008318,3.1493118
86607347728959,0.12000323,-1.4807894,2.2971864
86607367586879,-1.5397826,-3.5047257,4.219249
86607387444927,-1.7276603,-4.0925994,5.5833874
86607407302847,-2.5025835,-2.9844246,7.2885327
86607427160895,-1.958528,-1.6435704,11.271866
86607447023874,2.731034,0.86744565,12.590225
86607466881922,7.769281,-1.8799883,7.647691
86607486739970,1.9732226,-4.444349,6.980277
86607506598018,-1.9728082,3.4599302,12.942251
86607526456066,2.2142196,-2.2451708,15.53024
86607546319678,1.3313327,1.34499,10.854759
86607566177854,-3.3329852,2.594178,8.856889
86607586035902,-1.683111,2.649413,12.465143
86607605894078,-2.2612321,0.15671499,10.964639
86607625752254,0.28185862,0.6935645,12.594303
86607645610039,4.129895,0.9028488,11.685473
86607665468215,4.8939357,-1.7681673,9.585287
86607685326391,10.393785,7.0702024,6.5562186
86607705184567,10.565416,-4.7610955,15.98785
86607725042743,-9.061494,-8.739188,12.979841
86607744908575,-23.230343,-4.7730355,9.766151
86607764767007,-11.259908,6.855005,10.381422
86607784625311,0.3943991,8.073265,14.156046
86607804483743,4.02763,-1.3060114,16.502981
86607824342047,5.174848,-6.819392,19.679737
86607844201466,1.6924698,-2.182893,13.0227785
86607864059898,-4.947674,4.0372925,0.684403
86607883918330,-6.5534368,15.268231,-4.8621383
86607903776634,-0.53199285,2.3828714,1.7982347
86607923635066,5.6915493,-4.883586,2.4881523
86607943499989,1.7304337,-0.9681644,4.095698
86607963358549,-0.61986136,-1.0525584,7.9777846
86607983217109,0.4941587,-2.240626,10.758533
86608003075669,1.9322182,-0.60773915,11.150447
86608022934229,3.4145343,-0.98329836,11.811428
86608042801571,0.17754725,1.2770451,10.391782
86608062660387,-2.7497184,0.7760758,9.161144
86608082519203,-2.5130475,-1.9435856,10.613783
86608102377891,0.22281507,-5.969437,8.432652
86608122236707,4.4313927,-0.32881242,8.723294
86608142089476,3.1711168,2.5564036,12.949964
86608161948164,-0.4317742,2.0002813,12.477368
86608181806980,-0.7899475,-1.0080912,9.369247
86608201665668,0.072682664,1.1401567,5.27108
86608221524356,-1.7706047,4.1225476,6.501845
86608241381111,0.28119102,0.33366635,7.166093
86608261239799,1.6295669,0.93975025,6.7547154
86608281098487,-0.9031553,2.574597,6.167842
86608300957047,-5.37678,3.369471,8.260378
86608320815735,-8.017092,2.4474082,9.089835
86608340669442,-6.4476633,3.3366606,12.007671
86608360528002,-5.570603,2.2407906,17.30786
86608380390771,-2.001595,0.59222007,19.620197
86608400249331,4.0664616,-2.43031,16.0482
86608420108019,4.1975126,-2.366249,14.085295
86608439956679,0.5119657,-1.4401606,12.186415
86608459815111,-1.6401942,-0.43097886,10.139439
86608479673543,-0.41148615,0.30453426,9.283255
86608499531975,-0.02986941,0.44366917,9.920879
86608519390279,0.5235442,-1.7192365,7.719102
86608539244263,3.5536215,-1.6631544,6.3488836
86608559102567,2.7446868,-2.330157,4.966903
86608578960743,0.3315057,-0.20775352,6.373091
86608598819047,-1.6894776,1.3633692,9.858613
86608618677351,-4.130638,0.25680727,9.785236
86608638526506,-6.494758,2.559299,13.413465
86608658384682,1.0786874,6.8881764,14.524943
86608678242730,5.649574,7.422387,9.374487
86608698100778,3.330261,1.365282,8.079009
86608717958826,4.3607526,-2.2826002,9.927753
86608737813570,0.34313932,-2.776915,10.875247
86608757671490,-5.0403657,-3.641414,11.202173
86608777529411,-0.23825048,-3.1045218,8.332851
86608797387330,-0.5289491,1.0231252,7.083642
86608817245250,-0.733582,2.8920887,8.678034
86608837101038,1.1890432,-0.5549904,9.92438
86608856958958,0.42756456,-2.4173415,10.675619
86608876816878,-0.51851255,0.45325586,11.040122
86608896674798,0.35223317,2.602234,10.526354
86608916532590,0.18263042,1.9603091,9.691622
86608936388558,-0.68557125,0.46584642,9.344981
86608956246350,-0.9747346,-0.98434204,9.550111
86608976104014,-0.865187,-1.2183781,9.940386
86608995961806,-0.39741543,-0.7859103,9.3805895
86609015819598,0.32130182,0.5874409,9.165268
86609035677390,-0.6591778,2.051592,9.628394
86609055538967,-1.1101288,1.6706716,9.382054
86609075396887,-0.32187432,0.14804381,8.919962
86609095254679,-0.6358255,-0.6386129,8.178835
86609115112599,-1.3734686,-0.9240622,8.213551
86609134970391,-0.49720898,-3.6264348,10.876809
86609154834391,1.023631,-5.41987,11.808367
86609174692311,1.376891,-1.9485571,11.3419485
86609194550359,1.4878184,2.0885742,10.121978
86609214408280,0.24390112,1.6838052,9.116448
86609234266201,-0.6537755,-3.0254111,9.237152
86609254125818,-0.3019433,-3.0841045,9.668732
86609273983866,-0.2763672,0.9874924,9.763919
86609293841786,-0.39958373,2.137591,10.195671
86609313699706,-0.19807145,1.2529323,10.291853
86609333557626,-0.21687101,-0.3057524,9.571727
86609353418203,0.48471594,-1.0880129,9.645666
86609373276251,0.6271573,-0.5080431,10.046662
86609393134299,0.26905918,0.09876679,10.039809
86609412992347,-0.70127153,-0.44754428,9.713062
86609432850267,-0.38922626,-0.5731075,9.225492
86609452714733,-0.52081656,0.48648685,9.774674
86609472572781,0.23774165,-0.5337709,9.726993
86609492430957,0.43692347,-0.5660688,10.15087
86609512289005,0.48101428,0.6785152,9.99063
86609532147181,0.73886347,0.1615462,9.685079
86609552011414,0.2868685,-0.7117932,9.641965
86609571869718,0.16342612,-0.74470395,9.675457
86609591728022,0.29687497,-0.37952214,9.806344
86609611586199,0.380176,-0.17735752,9.829707
86609631444504,0.34859714,-0.23448367,9.937968
86609651307787,0.22058856,-0.553619,9.934683
86609671166217,0.108389944,-0.62301236,9.800332
86609691024649,0.124214016,-0.39676064,9.679425
86609710883209,0.28068864,-0.4145557,9.6709795
86609730741641,0.19815263,-0.6689479,9.732306
86609750606953,0.26557472,-0.092241146,9.652152
86609770465513,0.35327625,-0.11987431,9.7995615
86609790324201,0.27762425,-0.38015237,9.730209
86609810182761,0.40721324,-0.41071254,9.615326
86609830041449,0.36668545,-0.05748258,9.584881
86609849896979,0.30493933,-0.16142581,9.754954
86609869755667,0.33516556,-0.31454065,9.82181
86609889614227,0.2866559,-0.23562452,9.910559
86609909472915,0.19831496,-0.16431189,9.860674
86609929331603,-0.009772264,0.2994441,9.819651
86609949190327,0.14075959,-0.13161044,9.715638
86609969048887,-0.19333209,-0.39905486,9.813378
86609988907575,-0.28493264,-0.50009733,9.807892
86610008766263,-0.24675816,-0.48977906,9.767028
86610028624951,-0.16346475,-0.2083435,9.722189
86610048487880,-0.17568433,-0.12158713,9.76179
86610068346569,-0.19010986,-0.36951694,9.953877
86610088205258,-0.19790685,-0.35122854,9.832933
86610108063944,-0.15575948,-0.16692269,9.683355
86610127922760,-0.12606584,-0.026554888,9.598781
86610147780308,0.04806951,-0.050766062,9.638859
86610167638996,0.16027927,-0.15392928,9.710081
86610187497812,0.16804768,-0.15298595,9.731183
86610207356500,0.23860866,-0.08849732,9.746379
86610227215316,0.22737211,-0.07508773,9.700493
86610247072425,0.23496273,-0.08122395,9.7210455
86610266931113,0.21265332,-0.017205108,9.711953
86610286789673,0.24048632,-0.08500326,9.887855
86610306648361,0.21041209,-0.078584656,9.977386
86610326507049,0.08107108,-0.09386121,9.933045
86610346360593,0.021195102,-0.12462124,9.715361
86610366219153,-0.022168674,-0.17698231,9.556787
86610386079029,0.048515923,-0.21571289,9.745367
86610405937589,0.27915788,-0.0903486,9.867149
86610425796277,0.2298988,-0.115701,9.9204035
86610445644816,0.11920649,-0.01883533,9.936979
86610465503120,0.021849735,0.15325423,9.678324
86610485361552,-0.027165642,0.13176207,9.719663
86610505219856,0.10024055,-0.075349934,9.642707
86610525078288,0.15782075,-0.18855897,9.781228
86610544933016,0.20027421,-0.16142797,9.784925
86610564791320,0.12785864,0.043174088,9.76934
86610584649496,0.13302007,0.07889979,9.748709
86610604507800,0.15665703,-0.05005336,9.74639
86610624366104,0.24342848,-0.17843553,9.781213
86610644217081,0.3253427,-0.236897,9.752189
86610664075129,0.27709493,-0.2704562,9.804117
86610683933177,0.16966775,-0.27751425,9.790429
86610703791353,0.19346252,-0.10812933,9.86234
86610723649401,0.22053376,-0.035726734,9.904884
86610743510383,0.26766005,-0.20848529,9.887632
86610763368431,0.26803803,-0.32571775,9.812713
86610783226607,0.078404374,-0.30335084,9.644695
86610803084783,0.03553887,-0.41108102,9.631444
86610822942831,0.09660811,-0.30495492,9.654654
86610842799861,0.115701206,-0.18815294,9.750675
86610862658037,0.21271543,-0.13822459,9.842767
86610882516085,0.19751558,-0.12279288,9.855003
86610902374133,0.18507889,-0.094038725,9.693237
86610922232309,0.17875949,-0.20081449,9.665442
86610942091093,0.19248523,-0.36364058,9.826635
86610961949141,0.2994782,-0.30112764,9.796743
86610981807189,0.26838872,-0.33621496,9.90432
86611001665237,0.29679283,-0.40322748,9.8833685
86611021523285,0.29506427,-0.3020231,9.742418
86611041387818,0.30324167,-0.24657309,9.676176
86611061246122,0.39102235,-0.2087437,9.635862
86611081104298,0.3722361,-0.20494576,9.667204
86611100962474,0.3482639,-0.18959026,9.755555
86611120820650,0.32111272,-0.1478635,9.917772
86611140678613,0.3021973,-0.17789254,9.878596
86611160536789,0.28171083,-0.101586856,9.689166
86611180395093,0.2778952,-0.17142986,9.525706
86611200253269,0.27133456,-0.1869885,9.645116
86611220111445,0.25027943,-0.18353882,9.854171
86611239964537,0.26748732,-0.23001826,9.915697
86611259822585,0.37280917,-0.26066217,9.947701
86611279680633,0.29645506,-0.22779895,9.740178
86611299538809,0.34456494,-0.11630298,9.690659
86611319396857,0.40630236,-0.19238693,9.587527
86611339254905,0.37236542,-0.16813035,9.745967
86611359116238,0.38882586,-0.18087982,9.745607
86611378974414,0.36512697,-0.19381794,9.852678
86611398832590,0.2776362,-0.18610382,9.913829
86611418690894,0.264571,-0.10211017,9.845381
86611438549070,0.2839367,-0.13781519,9.695615
86611458405629,0.26974124,-0.18262523,9.635526
86611478263677,0.26386964,-0.16132018,9.654098
86611498121725,0.23675759,-0.07612153,9.731284
86611517979901,0.15441073,-0.00902573,9.779611
86611537837949,0.056169987,0.11636199,9.827681
86611557705652,0.20082892,0.04992588,9.923229
86611577563956,0.17679174,-0.19757664,9.919983
86611597422260,0.17200066,-0.24600035,9.743637
86611617280564,0.03247751,-0.099067934,9.651848
86611637138868,-0.043839894,-0.07748335,9.739158
86611656999220,0.04621867,-0.093360335,9.769194
86611676857524,0.12329896,-0.21772638,9.786177
86611696715956,0.16251656,-0.17868286,9.811764
86611716574388,0.22978643,0.0021981543,9.746233
86611736432692,0.07688772,0.009716303,9.727819
86611756293921,-0.046970565,-0.0966709,9.757214
86611776152353,0.023947567,-0.19612257,9.722611
86611796010785,0.16914777,-0.28962165,9.775754
86611815869217,0.18717709,-0.15837651,9.800152
86611835727649,0.010076898,-0.033392515,9.774682
86611855586634,-4.6257503E-4,0.0067862533,9.74025
86611875445194,0.13253352,-0.16737634,9.704159
86611895303754,0.19484468,-0.3073864,9.822996
86611915162186,0.21414576,-0.16413133,9.843445
86611935020746,0.23130526,-0.081265815,9.924011
86611954867194,0.2287997,-0.111725986,9.837795
86611974725498,0.18982653,-0.18118478,9.666808
86611994583802,0.19525489,-0.14334035,9.551778
86612014442106,0.26438263,-0.09283811,9.693247
86612034300410,0.26458505,-0.21357585,9.973009
86612054163943,0.22912544,-0.12886016,9.886838
86612074022375,0.16315933,-0.11685762,9.855076
86612093880679,0.12436391,-0.027286569,9.665697
86612113739111,0.24379286,-0.17469856,9.726151
86612133597415,0.19290285,-0.31826112,9.676607
86612153451987,0.17362626,-0.24055229,9.842786
86612173310291,0.14992571,-0.20438418,9.812265
86612193168595,0.12236472,-0.09829014,9.867264
86612213026899,0.11979046,-0.16672361,9.77992
86612232885203,0.1246215,-0.1861964,9.702025
86612252746615,0.17117846,-0.31992188,9.704171
86612272604919,0.13806027,-0.19624947,9.674467
86612292463223,0.101739794,-0.18866049,9.789223
86612312321527,0.10706944,-0.14026801,9.77295
86612332179831,0.055750508,-0.19780004,9.956282
86612352036695,0.05273203,-0.11801959,9.805825
86612371894999,0.09787309,-0.23701893,9.674055
86612391753551,0.069533005,-0.28748706,9.639826
86612411611855,0.10453004,-0.19113089,9.71134
86612431470159,0.05267715,-0.19004762,9.754656
86612451319582,0.1236463,-0.2441588,9.864675
86612471177630,0.23074713,-0.20184267,9.878681
86612491035678,0.1682289,-0.280527,9.828693
86612510893854,0.19983278,-0.22578858,9.783969
86612530751902,0.1977995,-0.20956494,9.613554
86612550607469,0.14806432,-0.38355282,9.613312
86612570465517,0.15399249,-0.41596776,9.647458
86612590323565,0.21063289,-0.09564146,9.747783
86612610181613,0.23666878,-0.11514417,10.042948
86612630039661,0.1452118,-0.24794002,9.941598
86612649896624,0.06834987,-0.25550666,9.793438
86612669754672,0.024820747,-0.28350258,9.6854925
86612689612720,0.006927854,-0.21866113,9.611203
86612709470768,0.08741161,-0.28757453,9.691564
86612729328816,0.08773549,-0.15471527,9.755983
86612749191564,0.06394249,-0.16508423,9.899082
86612769049612,0.062289204,-0.18867396,9.781064
86612788907788,0.012405821,-0.24689245,9.840749
86612808765964,0.12038358,-0.24673316,9.759085
86612828624012,0.0899957,-0.13388886,9.738789
86612848480433,0.04917005,-0.53459334,9.841821
86612868338354,0.19172534,-0.24260597,9.714095
86612888196401,0.1820942,-0.125093,9.819628
86612908054449,0.08704864,-0.3161852,9.66432
86612927912497,0.192557,-0.20737174,9.762355
86612947771166,0.19797479,-0.3615122,9.758705
86612967629214,0.17497344,-0.15835485,9.72053
86612987487262,0.16719274,-0.2427122,9.862556
86613007345182,0.28498292,-0.1319725,9.719926
86613027203230,0.2794165,-0.18539514,9.818144
86613047066776,0.0946193,-0.12066318,9.717135
86613066924952,0.07765937,-0.2491785,9.783979
86613086783000,0.146493,-0.18013513,9.613448
86613106641176,0.19682485,-0.257326,9.741091
86613126499352,0.2648028,-0.3378105,9.738058
86613146355975,0.33108416,-0.18960647,9.68124
86613166214023,0.43978253,-0.31463483,9.808246
86613186072199,0.55133283,-0.10965823,9.730161
86613205930375,0.37154335,0.09900847,10.153139
86613225788551,0.24312298,0.79780626,10.271743
86613245649098,0.015438918,-1.268492,9.344859
86613265507274,-0.45670453,-1.2495986,9.607153
86613285365579,0.2282555,0.7017167,9.57625
86613305223756,0.10188072,0.18842241,9.755874
86613325081933,-0.10764501,-0.10630643,9.710053
86613344942558,-0.017944632,-0.29610476,9.730403
86613364800863,0.29387808,-0.21616355,9.759125
86613384659163,0.295425,0.01054257,9.823797
86613404517467,0.20552547,-0.12603216,9.9039
86613424375771,0.15393613,-0.15434556,9.845543
86613444235251,0.077309094,-0.33810464,9.742832
86613464093555,0.043433752,-0.36644754,9.642928
86613483951859,0.18829885,-0.28777838,9.574923
86613503810164,0.43404993,-0.11986868,9.596107
86613523668469,0.5372781,0.07642693,9.919521
86613543529790,0.50411856,0.13554436,10.0590105
86613563388095,0.5138609,-0.49149904,9.870453
86613583246400,0.29623908,-0.5103472,9.669332
86613603104705,0.15193838,0.052272014,9.784696
86613622963010,0.34445137,-0.115887366,9.474014
86613642823051,0.3200055,-0.14933,9.485461
86613662681484,0.26476985,0.119202785,10.05785
86613682539917,0.11355425,-0.22786549,10.337022
86613702398350,0.021126324,-0.4449588,10.095677
86613722256655,0.045589652,-0.1401579,9.709458
86613742115368,0.061027806,-0.07348347,9.827484
86613761973673,0.0060496703,-0.2790626,9.8310585
86613781832093,0.07860709,-0.14214997,9.7346325
86613801690525,0.06597843,-0.017844561,9.4725065
86613821548829,0.15323332,-0.09893236,9.61025
86613841412600,0.29841205,-0.10335325,9.736041
86613861271160,0.3612909,0.08480114,9.760269
86613881129720,0.39405668,0.13037318,9.545942
86613900988408,0.23840766,0.0772506,9.544976
86613920846968,0.1686409,-0.051491447,10.044184
86613940705528,0.23649837,-0.104824364,9.858461
86613960565958,0.13362661,-0.22111851,9.807552
86613980424518,-0.059466932,-0.13171849,9.778726
86614000283206,0.058858193,0.05683905,9.667931
86614020141894,0.22260119,0.012151357,9.632992
86614040000454,0.053686526,-0.0026176716,9.750477
86614059854613,-0.11159905,-0.028560791,9.797041
86614079713173,-0.1672544,-0.050066322,9.936694
86614099571605,-0.023470404,-0.12224193,9.853149
86614119430165,0.015313681,-0.11406771,9.86566
86614139288725,-0.05568042,-0.18708074,9.914362
86614159140830,-0.097930685,0.08398635,10.207766
86614178999262,0.22992371,-0.09260495,9.423648
86614198857566,0.09064991,-0.33426046,8.810336
86614218715998,0.092213556,0.049957924,10.17452
86614238574302,0.4909737,0.18425278,10.20284
86614258434648,0.286806,-0.113608934,9.752444
86614278293080,0.37347668,-0.07184587,9.923314
86614298151512,0.2918172,0.1605051,9.862408
86614318009816,0.43036082,-0.12717174,9.574332
86614337868248,0.27882406,-0.32692546,9.723208
86614357726144,0.0760784,-0.13215269,9.850338
86614377584576,0.12415311,0.0048407773,9.788935
86614397441489,0.29875258,-0.068435855,9.755134
86614417299793,0.31568637,-0.05825244,9.725691
86614437158225,0.24912097,-0.03227644,9.695605
86614457009806,0.2275181,-0.11635162,9.821437
86614476868110,0.31678447,-0.17624632,9.821859
86614496726414,0.27017173,-0.065364614,9.823532
86614516584590,0.22104342,-0.056949586,9.850818
86614536442894,0.23506777,0.04302893,9.711347
86614556287227,0.35716462,0.010432288,9.778338
86614576145147,0.42996818,-0.12497223,9.713284
86614596003195,0.359724,-0.007055476,9.5948515
86614615861115,0.39453742,-0.024424665,9.685813
86614635719164,0.346971,-0.03622221,9.827245
86614655580919,0.2604101,-0.025704037,9.904501
86614675439093,0.3248128,-0.10427549,9.745098
86614695297141,0.22184476,-0.1305944,9.749701
86614715155189,0.1889275,-0.23396087,9.85055
86614735013365,0.18231414,-0.19072953,9.736951
86614754875119,0.13911478,-0.18820347,9.748372
86614774733167,0.1405179,-0.22858386,9.748492
86614794591215,0.13694854,-0.18806176,9.81827
86614814449263,0.11976127,-0.10111787,9.800543
86614834307311,0.10308452,0.044223253,9.789645
86614854166298,0.22205059,-0.11946504,9.770398
86614874024474,0.36829025,-0.07696683,9.687657
86614893882522,0.50552714,-0.052108917,9.748406
86614913740570,0.45920458,-0.011648861,9.694808
86614933598618,0.3215815,0.07380618,9.668612
86614953453606,0.19416389,0.09867216,9.70426
86614973311654,0.222063,0.12175628,9.618902
86614993169702,0.33219182,-0.07540644,9.747858
86615013027622,0.34053352,-0.08882936,9.907256
86615032885670,0.2815341,0.05010029,9.86245
86615052745297,0.3227243,-0.08307317,9.8512125
86615072603217,0.2058534,-0.08290794,9.79652
86615092461265,0.1575797,-0.051450387,9.739622
86615112319186,0.1976931,-0.06871512,9.675918
86615132177235,0.2181076,-0.007457914,9.641195
86615152040000,0.028955653,0.12504107,9.78007
86615171898176,0.028833376,0.094587445,9.934085
86615191756352,0.11017513,-0.0246276,9.906482
86615211614400,0.23719692,-0.14961457,9.840588
86615231472576,0.3180663,-0.2241982,9.751415
86615251331045,0.18251929,-0.0075123766,9.606248
86615271189093,-0.011917382,0.26768783,9.587061
86615291047269,-0.04516758,0.15458049,9.762239
86615310905317,0.028489381,0.08846755,9.861045
86615330763493,0.27753896,-0.04282546,9.8020115
86615350621466,0.60749984,-0.28010318,9.754133
86615370479642,0.71372557,-0.25834584,9.832976
86615390337690,0.4491932,-0.10339094,9.86917
86615410195866,0.20359775,0.035991453,9.743194
86615430054042,0.24214692,0.03557811,9.603643
86615449916462,0.3172914,0.030037522,9.774175
86615469774638,0.14365701,-0.037591692,9.968333
86615489632942,-0.030730363,-0.066920936,9.718613
86615509491118,0.15131068,-0.18818577,9.554077
86615529349422,0.25560018,-0.04993569,9.531091
86615549210125,0.249202,0.07066132,9.757046
86615569068429,0.1964045,0.04392559,9.967917
86615588926733,0.09448761,-0.14958215,9.965642
86615608785037,-0.020092843,-0.19413906,9.786035
86615628643341,-0.028830579,-0.085354045,9.703593
86615648503406,0.036359098,-0.15304647,9.799749
86615668361711,-0.030160105,-0.082658924,9.78644
86615688220144,-0.024721969,-0.1418521,9.788844
86615708078449,-0.01846232,-0.25585344,9.857154
86615727936882,-0.073860034,-0.20940728,9.778013
86615747796283,-0.024547506,-0.14616878,9.818152
86615767654716,0.27538928,-0.07594283,9.866637
86615787513015,0.49536705,0.13390075,9.751975
86615807371447,0.48930407,0.26468223,9.64262
86615827229751,0.34631276,0.12331761,9.630569
86615847085958,0.29774985,0.06667951,9.7472105
86615866944390,0.45183736,-0.0037469906,9.881863
86615886802822,0.48307717,0.027143564,9.834218
86615906661254,0.41670617,-0.08061022,9.822462
86615926519686,0.29307026,-0.006464215,9.606865
86615946374680,0.22529125,0.0050772266,9.60672
86615966233112,0.28709278,-0.038542714,9.822325
86615986091416,0.3127401,0.00856769,9.930247
86616005949848,0.2417342,-0.13787147,9.899507
86616025808152,0.17477623,-0.032551654,9.63759
86616045666942,0.29737893,0.0966315,9.641897
86616065525374,0.36974904,0.0149772,9.729618
86616085383678,0.23307249,-0.0706546,9.797261
86616105242110,0.11856002,-0.2136126,9.847078
86616125100414,0.083713934,-0.15097083,9.829533
86616144958718,0.2386202,-0.14221133,9.819634
86616164808405,0.22659937,-0.06590139,9.770573
86616184666452,0.21808875,-0.091702975,9.723834
86616204524500,0.15869302,-0.0132667,9.798164
86616224382548,0.16206975,-0.033401582,9.755932
86616244240724,0.16117728,-0.09362488,9.760484
86616264103691,0.13243331,-0.054552466,9.751322
86616283962590,0.119808555,-0.07715817,9.631451
86616303820639,0.17869712,-0.19154555,9.625903
86616323678816,0.24275504,-0.11251621,9.526292
86616343536993,0.19559056,-0.21275975,9.749445
86616363392688,0.2514093,-0.12745182,9.963355
86616383250737,0.3576168,-0.07536333,9.906099
86616403108914,0.29840347,-0.06742055,9.895455
86616422967091,0.2343237,0.015599002,9.790604
86616442825268,0.20138341,-0.04941507,9.747498
86616462680141,0.23390667,-0.16259925,9.714375
86616482538318,0.2274196,-0.08624115,9.596185
86616502396367,0.1095261,-0.14375544,9.708477
86616522254416,0.06710885,-0.15713781,9.879502
86616542112593,0.14031638,-0.041662224,9.7831335
86616561964400,0.11656006,-0.030967839,9.740581
86616581822449,0.16609141,-0.034765754,9.72842
86616601680370,0.30887526,-0.11827691,9.652117
86616621538291,0.29174393,-0.15456483,9.67669
86616641396212,0.22369894,-0.16025904,9.936207
86616661252371,0.29041752,-0.02883887,10.015024
86616681110292,0.32233015,-0.03790272,9.782756
86616700968085,0.365032,-0.07460322,9.720981
86616720826006,0.40442157,0.006846658,9.709754
86616740683927,0.38866028,-0.035831563,9.632474
86616760543849,0.28240886,-0.20643462,9.734109
86616780401770,0.17693514,-0.21402527,9.858754
86616800259689,0.15096295,-0.18767251,9.934225
86616820117609,0.20058884,-0.14119467,9.935313
86616839975529,0.23918627,-0.046183214,9.728488
86616859830845,0.22969861,-0.06189601,9.564627
86616879688765,0.120079376,0.003342998,9.4737835
86616899546557,0.016401516,-0.13155074,9.733562
86616919404477,0.015757807,-0.24278095,9.890882
86616939262397,0.065373875,-0.23232646,9.942345
86616959116507,0.17955434,-0.2371107,9.873677
86616978974299,0.2750116,-0.034477476,9.687026
86616998832091,0.2679449,-0.07003728,9.662913
86617018689883,0.23043089,-0.15477706,9.755085
86617038547547,0.11874079,-0.24955589,9.791402
86617058406015,-0.031440016,-0.20914325,9.783873
86617078263807,-0.07134194,-0.1324988,9.757166
86617098121599,-0.013233192,-0.17585357,9.841175
86617117979391,0.12507641,-0.20165086,9.779498
86617137837183,0.16218546,-0.18648395,9.764629
86617157696060,0.07416601,-0.19124,9.810224
86617177553853,0.06250616,-0.034399662,9.683426
86617197411644,0.1545591,-0.1414187,9.657306
86617217269436,0.30026826,-0.2569652,9.774682
86617237127228,0.45437276,-0.19280085,9.822952
86617256989598,0.42705235,-0.1709334,9.861912
86617276847390,0.3261308,-0.124335304,9.739979
86617296705310,0.25540212,-0.13753028,9.7144375
86617316563231,0.27785072,-0.20431894,9.743524
86617336421152,0.34714532,-0.17828695,9.7754545
86617356280187,0.3595133,-0.19870402,9.758076
86617376138108,0.31483355,-0.14310174,9.774497
86617395996029,0.2786843,-0.13334325,9.801335
86617415853950,0.27592638,-0.10849326,9.711432
86617435711871,0.20459785,-0.13342237,9.662897
86617455569164,0.1641323,-0.19087422,9.743838
86617475427085,0.14092967,-0.2918501,9.829444
86617495285006,0.10469338,-0.32201123,9.889916
86617515142927,0.12271174,-0.28601122,9.832064
86617535000848,0.13300925,-0.23305258,9.759357
86617554867825,0.07831282,-0.23514023,9.659519
86617574725746,0.11825149,-0.1524842,9.623845
86617594583795,0.11469197,-0.22829796,9.827208
86617614441844,0.14327249,-0.3291339,10.027388
86617634299893,0.15669702,-0.22077923,9.866088
86617654159796,0.05804209,-0.14782868,9.759692
86617674017845,0.116962805,-0.1653827,9.654583
86617693876022,0.15772939,-0.14774816,9.633834
86617713734071,0.089817986,-0.20639056,9.800274
86617733592248,0.11773576,-0.2109468,9.912622
86617753457573,0.20970316,-0.2379148,9.957602
86617773315856,0.25536045,-0.3344399,9.800508
86617793174033,0.28011736,-0.23223028,9.73172
86617813032338,0.20865852,-0.05008666,9.592973
86617832890643,0.19327776,-0.03270145,9.69032
86617852747695,0.13082877,-0.31699705,9.812722
86617872605999,0.07262243,-0.33654967,9.931901
86617892464303,0.07511396,-0.13789779,9.924529
86617912322607,0.13934673,0.028452694,9.764102
86617932180911,0.16764627,0.038425982,9.39357
86617952040721,0.022223715,0.0778747,9.717283
86617971899025,-0.087891504,0.10441761,9.936727
86617991757457,0.04952413,-0.011473309,9.6873
86618011615761,-0.15178636,-0.23749845,9.832752
86618031474193,-0.09572556,-0.09162254,9.856147
86618051339068,0.06446773,0.002392079,9.896557
86618071197628,0.03767074,-0.10927389,9.76202
86618091056060,-0.002488055,-0.08904102,9.627168
86618110914620,0.02697351,-0.11745232,9.733474
86618130773052,0.121874124,-0.3724527,9.788358
86618150633631,0.08220674,-0.42747217,9.916033
86618170492191,0.10622658,-0.28617626,9.766587
86618190350623,0.0646031,-0.2619318,9.660276
86618210209183,0.1067055,-0.30551508,9.643295
86618230067743,0.1634623,-0.35497096,9.668884
86618249929156,0.029040435,-0.43374547,9.81317
86618269787844,0.01709346,-0.38535377,9.803068
86618289646404,0.062052242,-0.36426008,9.812779
86618309504964,0.056560073,-0.41322693,9.821004
86618329363652,0.11553634,-0.43109784,9.815132
86618349222106,0.1310385,-0.35465518,9.738599
86618369080794,0.040249266,-0.2266818,9.674235
86618388939482,-0.04936828,-0.23860285,9.631217
86618408798042,-0.09586562,-0.34597978,9.728753
86618428654292,-0.11270242,-0.3406306,9.841451
86618448504989,-0.11306139,-0.19885704,9.981388
86618468363550,-0.099677876,-0.16138229,9.899924
86618488221983,-0.08521877,-0.24645704,9.664459
86618508080544,-0.06361202,-0.21243414,9.638243
86618527938977,-0.11697809,-0.13331456,9.751424
86618547797538,-0.11996184,-0.1170736,9.826494
86618567655471,-0.10273394,-0.14656253,9.984468
86618587514032,-0.026755106,-0.16675048,9.793114
86618607372465,0.039625574,-0.21048905,9.726512
86618627230898,0.18452878,-0.05503451,9.547501
86618647089459,0.13410483,0.01629789,9.734614
86618666943600,-0.049025327,-0.17484076,9.772354
86618686802033,0.0023583767,-0.3903888,9.883303
86618706660338,0.03042696,-0.31648058,9.875229
86618726518771,0.055943675,-0.22403206,9.789996
86618746377204,0.023572585,-0.18452841,9.73997
86618766231797,-0.013490811,-0.18294157,9.669692
86618786090102,-0.072198644,-0.22024001,9.566771
86618805948279,-0.16623446,-0.27301255,9.848764
86618825806584,-0.044830173,-0.3344752,9.898596
86618845659598,0.08822928,-0.4299821,9.9773655
86618865517774,0.13588318,-0.24828613,9.905725
86618885375951,0.06224149,-0.124057665,9.797733
86618905234126,-0.07969457,-0.14752653,9.676485
86618925092302,-0.07150516,-0.15957126,9.53671
86618944950479,-0.083362974,-0.13489506,9.6298485
86618964804400,-0.0663003,-0.13668185,9.826465
86618984662448,0.0032674854,-0.16179854,9.835899
86619004520497,-0.1000895,-0.14065844,9.861442
86619024378544,-0.062627144,-0.18991365,9.862268
86619044232991,-0.06866863,-0.28765592,9.731585
86619064090912,-0.09299469,-0.2650316,9.717496
86619083948959,-0.09538788,-0.1724036,9.75929
86619103806879,-0.19136126,-0.11893162,9.828793
86619123664800,-0.20353034,-0.17610641,9.817484
86619143525517,-0.15361989,-0.16294521,9.789505
86619163383565,-0.2803994,-0.2300812,9.825378
86619183241614,-0.11255672,-0.33639818,9.776338
86619203099661,-0.06245505,-0.30370528,9.760901
86619222957709,-0.068392545,-0.22854452,9.8426
86619242815758,-0.07530664,-0.22914004,9.852061
86619262671160,-0.106115535,-0.2675384,9.7728195
86619282529080,-0.06950702,-0.26376614,9.723374
86619302387129,-0.039119765,-0.24025723,9.613682
86619322245048,-0.11037842,-0.26971376,9.646804
86619342103132,-0.08525615,-0.18523589,9.762614
86619361961181,-0.066316746,-0.16971189,9.8695755
86619381819100,-0.013995618,-0.22661231,9.883932
86619401677020,-0.05897865,-0.2603698,9.844659
86619421535069,-0.046933632,-0.32644758,9.815373
86619441386032,-0.10533154,-0.22894812,9.662731
86619461243696,-0.2093993,-0.28600338,9.776548
86619481101489,-0.13732709,-0.23848045,9.761079
86619500959280,-0.07825425,-0.2627295,9.6906805
86619520816944,-0.014197012,-0.1463987,9.751855
86619540674737,-0.042828124,-0.28662837,9.765803
86619560538306,-0.10992524,-0.3816873,9.830026
86619580396226,-0.03870793,-0.2948614,9.649986
86619600254019,-0.060811225,-0.15030783,9.7158375
86619620111810,-0.09867671,-0.25617343,9.75804
86619639967895,-0.025634836,-0.28327706,9.748814
86619659825688,-0.06796907,-0.31799474,9.864432
86619679683481,0.0061110808,-0.23704544,9.792826
86619699541274,-0.07659833,-0.25676528,9.731267
86619719399067,-0.07319246,-0.26124498,9.737817
86619739256988,-0.09885228,-0.22439861,9.731696
86619759121065,-0.03228129,-0.31563252,9.799325
86619778978986,0.014756493,-0.27996948,9.85618
86619798837027,-0.0074713742,-0.23535137,9.802798
86619818694947,-0.08500436,-0.19746013,9.796423
86619838552868,-0.11832409,-0.2061242,9.71505
86619858413237,-0.11861944,-0.19307368,9.6695795
86619878271285,-0.07130769,-0.21085583,9.668315
86619898129334,-0.07451727,-0.18223578,9.753242
86619917987381,-0.040569805,-0.2525619,9.861116
86619937843967,0.084937766,-0.20777032,9.833644
86619957701888,-0.033074282,-0.071346425,9.847289
86619977559935,-0.12563817,-0.13437372,9.789247
86619997417983,-0.07733009,-0.2003775,9.721694
86620017276032,0.058310926,-0.16524224,9.744074
86620037134079,0.03596235,-0.056076065,9.74656
86620056996865,-0.03520917,-0.17473759,9.806486
86620076854914,-0.026969641,-0.2001099,9.81663
86620096712961,0.0569696,-0.14907728,9.793324
86620116571137,0.12279478,-0.122038774,9.744389
86620136429186,0.10810398,-0.09117573,9.655247
86620156288158,-0.0036935518,-0.10033672,9.696078
86620176146334,-0.020991027,-0.20588934,9.862204
86620196004383,0.048403013,-0.2224248,9.828518
86620215862558,0.0556344,-0.15516642,9.831081
86620235725324,0.05605192,-0.096274644,9.779952
86620255583629,0.013924556,-0.21229808,9.721638
86620275441804,-0.032469835,-0.28978884,9.7066965
86620295300108,0.061751656,-0.1755783,9.729928
86620315158285,0.05711526,-0.1480551,9.747066
86620335016588,0.007389898,-0.109217785,9.743487
86620354878316,-0.043967582,-0.20263664,9.841717
86620374736621,0.0070525943,-0.22039232,9.839052
86620394595052,0.05767137,-0.13682912,9.705632
86620414453356,-0.06223215,-0.10496729,9.697511
86620434311661,-0.039690018,-0.16008012,9.664945
86620454159084,0.02504691,-0.14340405,9.719187
86620474017260,0.06162271,-0.11359869,9.7994
86620493875309,0.08169997,-0.16534224,9.811368
86620513733484,0.040547945,-0.16207354,9.771052
86620533595061,0.029862385,-0.1335248,9.723621
86620553453238,-0.010016456,-0.14798962,9.702162
86620573311413,-0.02821867,-0.280847,9.850829
86620593169589,0.010096449,-0.25417474,9.888014
86620613027766,-0.048754472,-0.21545473,9.855541
86620632885941,-0.048295513,-0.16441986,9.833554
86620652738241,0.04107376,-0.1709482,9.73926
86620672596418,0.040903565,-0.21763188,9.651651
86620692454465,-0.022240827,-0.20972042,9.679735
86620712312513,-0.031989314,-0.18379445,9.745357
86620732170562,-0.015175574,-0.23084274,9.780378
86620752025354,-0.014946064,-0.10782421,9.795543
86620771883402,-0.0038984083,-0.13249536,9.8801985
86620791741323,0.006773682,-0.20183952,9.727557
86620811599370,0.08419636,-0.19140646,9.633122
86620831455325,9.505093E-4,-0.14128138,9.649519
86620851313374,0.020058528,-0.24622567,9.698972
86620871164887,0.08559809,-0.27519783,9.818779
86620891022679,0.11147224,-0.16689342,9.808088
86620910880600,0.04165119,-0.14899874,9.818611
86620930738519,0.083892226,-0.27302814,9.692087
86620950594653,0.11022882,-0.26002413,9.68816
86620970452574,0.06435724,-0.26237845,9.805055
86620990310365,0.104833774,-0.24425991,9.892669
86621010168157,0.075980455,-0.26706055,9.904911
86621030026078,0.09395775,-0.25699624,9.887151
86621049885094,0.14584558,-0.2545328,9.708738
86621069742886,0.16118576,-0.25354034,9.649543
86621089600679,0.20150839,-0.34689274,9.730524
86621109458470,0.18805158,-0.19411694,9.7190895
86621129316262,0.12699297,-0.23878472,9.824922
86621149174055,0.12849692,-0.1109751,9.740184
86621169036869,0.1796556,-0.201729,9.831543
86621188894789,0.23947835,-0.2222764,9.75743
86621208752710,0.19092911,-0.2231814,9.681619
86621228610629,0.13610022,-0.29175624,9.724191
86621248465268,0.17951909,-0.21941833,9.7110405
86621268323061,0.071638234,-0.105284415,9.789241
86621288180852,0.10135267,-0.23064792,9.79762
86621308038644,0.13654469,-0.23060533,9.78827
86621327896565,0.16096923,-0.24744141,9.700514
86621347759494,0.116665915,-0.13703504,9.745758
86621367617414,0.056217313,-0.27153656,9.799503
86621387475335,0.103988,-0.2676425,9.757163
86621407333254,0.19705392,-0.28729972,9.909492
86621427191175,0.28153148,-0.20686197,9.850929
86621447049096,0.2941944,-0.121210575,9.758229
86621466907997,0.22850272,-0.15299833,9.65448
86621486765918,0.27281356,-0.28758544,9.609938
86621506623839,0.22447509,-0.315693,9.710526
86621526481760,0.2562943,-0.32930452,9.711578
86621546346025,0.36368966,-0.22268818,9.751122
86621566204074,0.38822258,-0.087189935,9.906215
86621586062123,0.2505338,-0.041131347,9.895744
86621605920172,0.1810969,-0.20553717,9.76517
86621625778093,0.21496241,-0.30573666,9.669046
86621645636142,0.18765597,-0.16636337,9.599238
86621665494369,0.18715993,-0.15084715,9.744132
86621685352418,0.23947233,-0.09307399,9.847231
86621705210467,0.22866224,-0.12252029,9.951337
86621725068516,0.3185774,-0.23459648,9.947374
86621744926565,0.4147193,-0.09149694,9.736062
86621764785906,0.28479132,-0.050284155,9.689873
86621784643938,0.15021728,-0.017622268,9.723981
86621804501987,0.06285722,-0.13438396,9.788857
86621824360162,0.09310647,-0.25515425,9.776244
86621844220587,0.09710742,-0.07326624,9.732046
86621864078764,0.041938838,0.036301065,9.784602
86621883936939,0.012566078,-0.07984589,9.864311
86621903795115,0.042800285,-0.23957102,9.758455
86621923653292,0.09785054,-0.1471214,9.672546
86621943511595,0.04996777,-0.032802925,9.644923
86621963377378,0.051625643,-0.10581016,9.710258
86621983235683,0.163706,-0.20165044,9.701076
86622003094114,0.19870049,-0.11236361,9.657281
86622022952546,0.14171042,-0.07259884,9.678975
86622042810979,0.14742716,-0.18216722,9.6643305
86622062670434,0.1692793,-0.19716662,9.664045
86622082528738,0.13262123,-0.17313299,9.737809
86622102387171,0.1574335,-0.15066192,9.716301
86622122245602,0.17910376,-0.117653795,9.661303
86622142108831,0.12293029,0.007735524,9.433894
86622161967392,0.069813356,0.0532758,9.469944
86622181825951,0.11098088,0.0045445105,9.531758
86622201684511,0.17011143,-0.045449067,9.639206
86622221543072,0.15105821,-0.08291635,9.751388
86622241401631,0.16516936,-0.023790136,9.697228
86622261265884,0.19756569,-0.04134173,9.724343
86622281124445,0.14973883,-0.052382957,9.701753
86622300983132,0.14388442,-0.15310067,9.590112
86622320841820,0.13798237,-0.24896505,9.561149
86622340700509,0.13450697,-0.11186218,9.593978
86622360557572,0.13867016,-0.09797631,9.593655
86622380416260,0.21747884,-0.11012923,9.630261
86622400274949,0.26476857,-0.1127534,9.586495
86622420133636,0.26090494,-0.14001173,9.613547
86622439984462,0.2154393,-0.1545991,9.630579
86622459842895,0.15221089,-0.21446177,9.62784
86622479701326,0.19793788,-0.27651152,9.625196
86622499559886,0.24031258,-0.24896562,9.622806
86622519418319,0.26982355,-0.25423723,9.661744
86622539276750,0.27566406,-0.16063,9.544138
86622559130434,0.25391814,-0.13924621,9.397225
86622578988739,0.22825019,-0.15540116,9.608526
86622598847042,0.21112187,-0.1671008,9.65798
86622618705474,0.20168146,-0.25785518,9.748556
86622638563779,0.18708073,-0.20703034,9.613807
86622658415243,0.14101748,-0.15707478,9.686905
86622678273419,0.09829441,-0.103512205,9.564717
86622698131724,0.10043357,-0.07609302,9.554519
86622717989899,0.02613831,-0.14247262,9.610659
86622737845826,0.15290658,-0.14572929,9.546707
86622757704003,0.13198534,-0.12215309,9.602454
86622777562178,0.0849261,-0.08140569,9.61875
86622797420354,0.17551565,-0.20950747,9.582372
86622817278531,0.24520746,-0.1942724,9.588141
86622837136706,0.13667741,-0.11383318,9.6283655
86622856987131,0.10096574,-0.18915854,9.648401
86622876845180,0.16256611,-0.35801774,9.598127
86622896703099,0.16643874,-0.2783013,9.575996
86622916561019,0.11210321,-0.19115509,9.607712
86622936419068,0.19490024,-0.13039924,9.569067
86622956273447,0.19885524,-0.16141182,9.558162
86622976131367,0.18474634,-0.18340683,9.595998
86622995989288,0.20219181,-0.18416256,9.513558
86623015847079,0.20738322,-0.32381204,9.627878
86623035704999,0.16899922,-0.29769757,9.649607
86623055562920,0.25781292,-0.22777852,9.539263
86623075409027,0.2676449,-0.21020237,9.55805
86623095266691,0.17152512,-0.11548226,9.485384
86623115124356,0.11957318,-0.15357573,9.471944
86623134981891,0.0846615,-0.18984704,9.562016
86623154839850,0.096976005,-0.13602708,9.552771
86623174697515,0.06308664,-0.10890656,9.656272
86623194555178,0.045404594,-0.10785937,9.653523
86623214412842,0.0869812,-0.12961629,9.505931
86623234270379,0.12824968,0.032215167,9.4695
86623254130165,0.15789294,0.17080022,9.460896
86623273987701,0.21092029,0.12692225,9.472772
86623293845366,0.31936353,0.24736837,9.590998
86623313702901,0.42605895,0.4031224,9.598966
86623333560565,0.6306931,0.31523955,9.525961
86623353418102,0.8826913,-0.0033850463,9.660072
86623373280322,0.75821567,0.15551941,9.927978
86623393137858,0.37633845,-0.38083094,9.862484
86623412995523,-0.12528351,-0.7343856,9.536064
86623432853186,-0.3077681,-0.51369524,9.711245
86623452711380,-0.025006369,-0.9754901,9.728782
86623472568917,0.62960994,-1.3304744,10.153567
86623492426580,0.9738011,-0.8389222,10.104624
86623512284116,1.1280209,-0.16772197,9.86277
86623532141653,0.9773206,-0.36533317,9.519772
86623552007263,0.75845903,-0.48392618,9.237231
86623571864927,0.6873123,-0.50382674,9.237217
86623591722720,0.84868014,-0.7834389,9.278458
86623611580383,1.1853278,-1.3511206,9.727368
86623631438175,1.5694329,-2.0536408,9.737211
86623651295840,1.8653425,-2.5964499,9.605097
86623671160794,2.25493,-2.772172,10.118559
86623691018714,2.5107276,-3.3512332,10.249766
86623710876507,2.5555642,-3.9668646,10.01817
86623730734426,2.1258044,-3.077854,11.55248
86623750592346,1.618192,-0.5709178,12.993444
86623770457745,1.6160593,0.48698315,10.959167
86623790315793,-0.17782117,-0.10539907,10.211555
86623810173841,-0.9253622,-1.0483382,11.15798
86623830031889,-0.6619472,-0.19449665,12.551711
86623849889937,-0.61687595,-2.0820725,13.461332
86623869750879,0.37875217,-0.77386916,13.528809
86623889609055,-1.3771346,3.7092125,11.661642
86623909467359,-1.724395,4.391792,9.986508
86623929325535,-0.22068079,2.7993205,9.179113
86623949183711,0.88741106,0.41656768,10.591579
86623969050225,-0.88016355,-2.2016923,10.161073
86623988908657,-2.3202083,-0.71593684,8.490466
86624008767089,-1.8820451,0.58807105,6.825637
86624028625521,-0.9837875,3.9667811,5.1352944
86624048483953,-1.4419196,2.9041693,5.260684
86624068342830,-0.028527746,-0.13470043,6.0092397
86624088201390,0.6752885,-1.207963,6.830889
86624108059822,-0.08939079,-0.42498213,7.0681105
86624127918254,-0.5633344,-0.94361305,7.2614703
86624147776814,-0.5691121,-2.087929,8.263237
86624167636849,0.5233392,-3.9821393,10.122204
86624187495409,1.4523406,-5.3430457,11.639584
86624207353969,1.9803084,-4.7494254,11.578174
86624227212529,0.915342,-1.2630509,9.915983
86624247071089,0.13756911,1.8215306,8.346311
86624266925029,0.26889166,1.0034847,7.786217
86624286783461,0.34521723,-1.336238,10.838015
86624306642021,0.3677466,-0.27601045,14.123193
86624326500453,-1.8114436,4.4279113,13.770523
86624346358885,-2.6575947,2.5540092,14.636344
86624366213349,-0.069348104,-0.53321505,11.824876
86624386071781,-0.2387669,3.4881938,6.1108494
86624405930213,0.9560493,3.9912899,4.23554
86624425788645,1.638915,4.5577683,6.1478777
86624445647077,-0.06498638,6.8252735,9.1960335
86624465498292,-1.0629275,7.0069942,11.199114
86624485356596,-0.75462127,2.096801,12.115639
86624505214900,1.2299452,-5.224532,11.7944355
86624525073204,0.5834636,1.28985,9.211706
86624544931508,1.527312,0.39843565,7.5936356
86624564783612,0.9525051,-1.8268306,7.7016172
86624584641789,0.6628667,1.0405818,9.539704
86624604499966,1.2900844,1.2055076,8.923683
86624624358143,0.82563496,0.24367847,8.855774
86624644216316,-0.4844146,-0.072694644,9.222028
86624664068618,0.041369304,0.89633954,8.758065
86624683926538,0.4917205,0.7172498,8.637469
86624703784458,0.70580155,0.44750533,8.843561
86624723642378,1.7309878,-0.13055505,9.675634
86624743500298,2.42807,-1.1925373,10.772961
86624763350032,1.8082616,-2.301752,11.733882
86624783207696,2.5627534,-4.3147826,11.953403
86624803065488,3.4000013,-3.7139843,11.7809305
86624822923152,3.6398897,-0.6896029,11.925601
86624842780944,3.7811882,1.454418,11.817446
86624862636542,3.7276604,2.286937,11.998465
86624882489902,4.0057244,2.461612,12.891418
86624902347566,2.8993244,1.4549769,12.308713
86624922205230,1.0033375,0.927883,11.099866
86624942062766,-0.2567873,1.1992623,10.804061
86624961927220,-0.74321526,3.3170264,13.365464
86624981785012,0.03449825,3.9323382,13.204562
86625001642804,1.3455086,3.1382122,11.229852
86625021500596,3.7567613,1.9451374,11.284344
86625041358260,4.0066605,3.5882232,11.95223
86625061214199,2.6624434,5.8368506,9.307224
86625081071864,0.52823806,5.6651487,6.3602824
86625100929655,-2.9723806,7.2645926,4.247313
86625120787319,-2.7970815,7.4552565,3.8349295
86625140644983,-2.1929235,3.1949635,5.700813
86625160499057,-3.0933273,0.3511975,6.6284046
86625180356721,-3.9184155,-0.6126082,7.1825
86625200214385,-3.155427,-1.1236705,7.2040377
86625220072050,-2.3080237,-1.5423896,7.3433394
86625239929587,-3.0852818,-1.6812701,7.646875
86625259787598,-3.218058,-1.2240927,8.594773
86625279645263,-1.9897683,-0.7624982,9.534049
86625299502800,-1.3996931,-0.17156056,9.823451
86625319360459,1.5542471,0.013497757,10.222857
86625339218123,5.816237,0.88671714,12.97701
86625359074726,9.248645,5.256637,16.474422
86625378932390,0.17071812,11.48667,11.25198
86625398790054,-4.896431,7.704018,7.36063
86625418647718,0.49302223,1.3750529,7.251872
86625438505254,1.2682984,1.2041521,6.41753
86625458366233,-1.1801959,0.97799546,9.635264
86625478223897,-6.494973,-1.9825016,11.795592
86625498081561,-3.243326,-12.607809,20.439701
86625517939225,4.662713,-4.142385,17.148968
86625537796889,-0.79873806,1.3387421,5.4206867
86625557659525,-7.5961933,0.8709004,1.8670682
86625577517317,-8.318753,1.218367,3.9033608
86625597375109,-10.962842,0.96964985,8.061793
86625617232901,-10.912649,-1.2737672,10.872597
86625637090693,-6.2676697,-1.8297217,11.756109
86625656948667,5.6272264,1.9741856,13.342099
86625676806459,5.0513244,3.2349029,11.131324
86625696664379,-1.6449207,-0.22184107,7.174166
86625716522171,-1.7873712,0.0042397757,7.9372416
86625736379963,-2.4758518,0.8971294,9.292153
86625756247068,-3.5992787,2.0323603,9.061354
86625776104987,-3.736311,0.75343114,8.878241
86625795963035,-3.000637,-1.86431,9.650044
86625815821083,-1.7156779,-2.4249804,9.110814
86625835679131,-0.7675751,-1.717624,8.87738
86625855537179,0.40765876,0.021619286,9.636838
86625875395440,1.1406119,1.8538767,10.188121
86625895253488,1.0138335,1.8494086,9.958575
86625915111536,0.39079732,1.2358913,9.529864
86625934969584,0.610965,1.4660879,9.1097355
86625954827632,-0.12377891,1.9778297,9.064728
86625974691592,-1.2632549,2.5338624,9.635412
86625994549768,-2.0131695,2.5302022,10.5424
86626014407944,-1.9394809,1.7352946,11.059173
86626034266120,-0.80168074,1.4407002,11.046758
86626054124296,1.6393019,2.777276,10.951852
86626073990402,1.9454921,3.5447958,11.347242
86626093848834,1.0778146,3.8335023,12.412101
86626113707138,-0.7996399,3.4200535,13.536322
86626133565442,-2.871872,1.1223766,12.548344
86626153423746,-3.4380152,-1.8436153,10.123821
86626173282806,-1.5974095,-2.254272,9.039746
86626193141111,0.7417078,-0.31445965,9.82624
86626212999542,1.1427132,1.119791,10.651076
86626232857846,-0.6333434,0.16078985,10.466732
86626252716150,-1.8547285,-1.4136561,9.73633
86626272579781,-2.4069877,-1.5696578,10.1049
86626292438341,0.13490824,-2.4425173,10.381075
86626312296774,0.326557,-1.8095152,9.438886
86626332155335,0.50075173,-0.91272473,9.257638
86626352013768,0.3413762,-0.97060215,9.480013
86626371862741,0.5125567,-2.1703548,9.3583555
86626391721046,0.5715709,-2.5215359,9.348612
86626411579351,0.7976118,-2.7514443,9.432901
86626431437656,0.14475404,-3.9119978,9.121833
86626451295961,-0.22965881,-2.5085006,8.825096
86626471150292,1.1894509,-0.035585206,8.932973
86626491008469,3.0880399,0.68220925,8.5500965
86626510866774,3.5120623,0.26059154,8.28462
86626530724951,2.0352588,-0.39619815,8.412297
86626550583128,0.8452593,-0.73749804,8.633893
86626570440409,0.7409917,-0.3717956,8.527899
86626590298714,1.2498324,0.89220834,8.303707
86626610157019,1.8746889,1.2457291,8.177194
86626630015324,1.7658997,1.4753416,8.768984
86626649873629,1.2939119,1.7287518,9.700102
86626669728124,0.19740133,2.8900702,10.408755
86626689586301,-1.4124125,4.2813134,10.637239
86626709444606,-3.058985,2.1572487,9.306166
86626729302783,-2.3787897,0.7018538,8.131879
86626749161088,-0.5401203,1.4357047,8.328595
86626769009422,-0.5471563,1.7687659,9.394547
86626788867343,-1.2180928,1.5308511,12.206858
86626808725392,-0.424718,-1.409271,13.748614
86626828583441,2.4443808,-5.0965986,14.049037
86626848441358,8.9615965,-1.7995481,15.353962
86626868293230,4.429277,3.4765124,9.824865
86626888148294,2.0717063,0.0853928,3.5109613
86626908006214,3.0294187,-2.3803053,4.1123757
86626927864006,2.8832147,-3.2147293,7.4417744
86626947721926,2.820226,-6.0771885,10.657841
86626967574939,1.8796593,-5.102954,12.339126
86626987432603,0.6250759,-2.190661,11.443268
86627007290267,-1.4682117,5.440071,10.075003
86627027148059,-0.3874469,4.1743536,9.632652
86627047005723,0.5513141,-1.4937098,8.994664
86627066863777,0.3213398,-0.88532597,9.515442
86627086721441,-0.09277388,-0.13663642,9.225699
86627106579105,0.030128168,-0.22257207,8.921217
86627126436769,0.44195706,0.25768965,9.534026
86627146294561,-0.15692456,1.2801751,10.043067
86627166154535,-0.414429,2.821224,9.933592
86627186012327,-0.5096258,3.6109245,9.963264
86627205869991,-0.5419244,3.3539047,10.465201
86627225727655,-0.50040734,2.0442317,10.519519
86627245585319,-0.32623154,1.7866203,10.275122
86627265443746,0.061574534,1.5099998,9.971119
86627285301411,0.5596902,1.5065798,10.570944
86627305158945,1.3167006,0.69928217,12.391072
86627325016609,2.5876615,-0.71761745,12.978498
86627344874273,3.896176,0.53029317,11.811916
86627364738168,4.826614,4.7156954,11.285548
86627384595832,5.190241,4.4107833,8.9463215
86627404453624,4.216384,-1.1135281,8.644391
86627424311417,0.4484919,-8.026146,8.0903
86627444169210,-4.266092,-7.6574264,6.237044
86627464028469,-5.5470815,2.957031,8.630605
86627483886262,-1.8088397,6.520143,11.231679
86627503743927,1.5536355,1.6461315,9.728823
86627523601720,0.44762465,-0.6371106,7.7988405
86627543459513,-0.6692821,-0.117775045,6.4541926
86627563318408,-0.4627322,0.8213336,6.5788016
86627583176201,1.344517,1.4463319,8.378213
86627603033994,2.0107744,1.6879493,9.842695
86627622891787,-0.26517975,1.1322212,9.323904
86627642749580,-1.025077,0.7580515,9.638926
86627662612737,-0.73404634,1.94144,11.172412
86627682470786,-0.24432158,4.9107637,11.852525
86627702328707,-0.66209674,7.0255847,11.017727
86627722186756,-1.3240701,5.983715,10.260625
86627742044677,-1.3589432,2.598709,9.531455
86627761903964,-0.9601869,-0.18722261,8.560569
86627781762013,-1.2600143,-1.1282618,7.6491113
86627801620062,-1.2584153,0.60394377,7.3403363
86627821478091,-1.6217127,2.0141144,7.9300466
86627841336139,-1.4855808,1.9688715,8.857453
86627861193847,0.36374146,0.6594989,9.8770685
86627881052023,2.942135,-0.776881,12.0794115
86627900910071,4.1689053,0.6268681,13.452437
86627920768247,3.0380998,3.2178168,12.316096
86627940626295,1.1755897,3.4356184,12.103995
86627960480363,-0.7673488,1.8771794,10.899271
86627980338283,-0.2843817,-1.4274067,8.40491
86628000196331,0.38565812,-2.2226462,8.261499
86628020054379,0.23454525,-1.0218399,8.195209
86628039912427,0.3854769,-0.09582882,8.483812
86628059774230,0.072116815,1.5366627,9.45657
86628079632406,-0.53645635,1.6817595,12.270785
86628099490454,-1.3136789,0.639693,12.132356
86628119348630,-1.0173305,-0.5112764,10.98073
86628139206678,-0.2897725,-0.35185963,10.575957
86628159061124,0.06258082,0.6037185,9.906566
86628178919172,0.51846874,0.01913308,9.529321
86628198777220,0.61050755,-0.90872604,9.260937
86628218635268,0.3148621,-0.63794863,8.887143
86628238493316,0.56538147,-0.59929395,9.006894
86628258355564,1.5329925,-0.54016894,9.72712
86628278213740,1.2853966,1.1876612,9.870147
86628298071789,0.29764122,2.630836,10.316261
86628317929966,-0.10792382,2.4316528,10.85014
86628337788143,-0.31082264,1.034892,10.822211
86628357645952,-0.53147167,-0.11334477,10.847595
86628377504129,0.49461251,-0.8361997,10.728133
86628397362173,1.5000088,-0.08327545,10.449865
86628417220221,1.7873154,0.6390677,9.831142
86628437078397,1.1598941,0.96807396,9.44614
86628456936445,0.05844925,0.81304616,9.254043
86628476789934,-0.4393886,0.089035526,9.502271
86628496647982,-0.052678593,-0.6857095,9.854964
86628516505902,0.47581533,-0.76322275,9.749212
86628536363823,0.5496876,0.44820648,9.424653
86628556221872,0.060104676,1.6932157,9.669845
86628576079767,-0.6150294,1.6933358,10.197873
86628595937688,-0.75029683,0.61771244,10.212024
86628615795609,0.036533102,-0.54391,9.85621
86628635653530,0.63746196,-0.18262693,9.744274
86628655511451,0.45154265,0.91683507,9.964424
86628675362666,0.118794784,1.1884968,9.784293
86628695220459,0.0896401,0.8010248,9.573378
86628715078252,0.31362668,0.36342126,9.747529
86628734936045,0.47950685,0.036494814,9.915863
86628754793838,0.3998742,0.07624897,9.850494
86628774655245,0.21041311,0.39718392,9.72286
86628794513154,0.052778643,0.65398675,9.739465
86628814370946,0.050090577,0.5528653,9.889457
86628834228866,0.22904435,0.34425473,10.061556
86628854086658,0.4429572,0.38092,10.163892
86628873946894,0.5651295,0.5364873,10.166824
86628893805643,0.57817554,0.5367053,10.070881
86628913663563,0.35814673,0.62761444,9.792134
86628933521483,0.18329825,0.43767184,9.604226
86628953379403,0.15912296,0.23678389,9.7758665
86628973235909,0.013054725,0.46770275,9.930474
86628993093829,-0.09704723,0.41718376,9.929189
86629012951749,-0.08244569,0.42647758,9.920762
86629032809669,0.029765617,0.54095006,10.004809
86629052667589,0.042518135,0.44946247,10.031446
86629072531374,0.0025764708,0.55567193,10.116534
86629092389422,-0.105584495,0.7798224,10.032981
86629112247470,-0.25558728,0.60462016,9.823
86629132105518,-0.20982651,0.5420143,9.811252
86629151963694,-0.17386433,0.65205425,9.979299
86629171815135,-0.20008624,0.6683976,10.084798
86629191673183,-0.13663349,0.6705445,10.003538
86629211531103,0.040241815,0.593964,9.90284
86629231389024,-0.0073137474,0.6807721,9.791737
86629251246943,-0.23385113,0.8034539,9.773605
86629271110026,-0.29946506,0.66672575,9.88969
86629290968074,-0.06322832,0.629815,9.839593
86629310826122,0.037096936,0.6514521,9.947437
86629330684170,0.021857219,0.5490189,9.844449
86629350542218,0.081623256,0.5811548,9.835962
86629370399893,0.043884207,0.7280034,9.896472
86629390257942,4.0852785E-4,0.7613043,9.884947
86629410115991,-0.054565225,0.63094956,9.746018
86629429974040,0.089363955,0.6127454,9.701936
86629449832089,0.13672037,0.6235754,9.7984705
86629469690150,0.032795962,0.709544,9.916817
86629489548071,0.019876748,0.771859,9.992815
86629509406120,-0.008150075,0.62316203,10.009819
86629529264169,0.0314005,0.58349943,9.997361
86629549122090,0.04856151,0.6393894,9.97566
86629568978877,0.022212455,0.6574767,10.065111
86629588836926,0.1506855,0.6881992,10.020627
86629608694847,0.21681966,0.897193,9.88428
86629628552768,0.16885598,0.80578715,9.807068
86629648410689,0.09616743,0.62010974,9.694564
86629668267066,0.021686537,0.33728606,9.642087
86629688124987,0.04072616,0.30710566,9.774227
86629707982908,0.08948215,0.57558113,9.839982
86629727840829,0.093592234,0.7619341,9.803512
86629747698750,0.09446477,0.66105217,9.6918745
86629767557395,0.12723903,0.5520577,9.592238
86629787415316,0.18761408,0.5905782,9.733115
86629807273237,0.09658246,0.66912055,9.907292
86629827131263,-0.011818781,0.6743468,9.959527
86629846989183,-0.061141312,0.62193096,9.848169
86629866849066,-0.0014052177,0.4797914,9.735598
86629886706986,0.09856143,0.4349286,9.650916
86629906565034,0.07713214,0.5788024,9.734267
86629926423082,0.006672709,0.6082591,9.688378
86629946281002,0.023793638,0.5688729,9.594708
86629966138180,0.071399786,0.49145767,9.790904
86629985996228,0.058608793,0.3932458,9.879301
86630005854276,-0.051369037,0.41860572,9.899201
86630025712324,0.006545723,0.5718316,9.722828
86630045570244,0.057412155,0.5357624,9.699636
86630065429583,0.059458576,0.5694845,9.725756
86630085287631,0.0062351185,0.58083624,9.65713
86630105145551,-0.014140243,0.5275493,9.715333
86630125003599,0.02499195,0.51894504,9.814955
86630144861647,-0.014904184,0.45316797,9.86582
86630164720384,-0.051279046,0.51421,9.973139
86630184578432,-0.020686608,0.573172,9.843825
86630204436480,0.037899897,0.5935019,9.814386
86630224294528,0.090543814,0.5725527,9.706585
86630244152576,0.12451358,0.6113891,9.561864
86630264013483,0.026827805,0.6398761,9.638383
86630283871532,0.00784412,0.59390515,9.728179
86630303729581,-0.08591361,0.46309367,9.775984
86630323587627,-0.11691845,0.4839474,9.898471
86630343445675,-0.12005395,0.44469473,9.8186455
86630363299399,-0.058973536,0.38177234,9.6881075
86630383157447,0.09432975,0.4953848,9.669529
86630403015367,0.06739875,0.631504,9.643336
86630422873415,0.11689786,0.5882072,9.65547
86630442731464,0.11355217,0.4929907,9.728842
86630462587573,0.060563877,0.43859845,9.845111
86630482445494,9.0902636E-4,0.48675448,9.922398
86630502303543,-0.03899017,0.5839928,9.853352
86630522161464,-0.00467646,0.5795905,9.76086
86630542019513,0.07277633,0.5673276,9.710796
86630561872142,0.07343883,0.5346211,9.690272
86630581730063,0.082256526,0.5904976,9.646232
86630601587856,-0.06625323,0.5385665,9.653764
86630621445649,-0.091792226,0.53677166,9.862058
86630641303570,-0.12671359,0.57070535,9.900203
86630661159003,-0.15568854,0.5913935,9.799783
86630681016924,-0.079908915,0.5221086,9.772896
86630700874717,-0.037991043,0.5478462,9.755593
86630720732510,-0.11706515,0.6408305,9.692063
86630740590431,-0.10228689,0.66214263,9.657461
86630760446926,-0.085224494,0.57630223,9.724933
86630780304719,-0.09693978,0.52801853,9.862426
86630800162512,-0.13598491,0.5965055,10.010268
86630820020177,-0.12534703,0.6297605,9.874332
86630839877951,-0.053116977,0.5870135,9.678767
86630859738705,-0.0051149605,0.6037764,9.687198
86630879596497,-0.023195837,0.64220387,9.680786
86630899451346,-0.060559824,0.5902822,9.5807905
86630919309138,-0.03806367,0.57700145,9.644649
86630939166930,-0.14189766,0.5655843,9.868374
86630959027331,-0.22145304,0.5330702,10.024757
86630978885123,-0.16956884,0.522728,9.923691
86630998743043,-0.1056859,0.5851801,9.737856
86631018600835,-0.07583817,0.5507374,9.644542
86631038458755,-0.043216147,0.63939965,9.699025
86631058316463,-0.038971025,0.58226293,9.619383
86631078174255,-0.053863347,0.55685246,9.609842
86631098032175,-0.08728238,0.5117163,9.864378
86631117889967,-0.11697742,0.48899266,9.918111
86631137747887,-0.111067295,0.55777174,9.882839
86631157608343,-0.10863288,0.57018936,9.857297
86631177466263,-0.018399836,0.5446087,9.715456
86631197324183,-0.020441758,0.5159488,9.623965
86631217182103,0.0034678394,0.4942723,9.607101
86631237040023,-0.05448872,0.56446946,9.702974
86631256897943,-0.15963589,0.594452,9.863543
86631276754815,-0.17356794,0.5194142,9.955487
86631296612736,-0.09882605,0.5058372,9.973406
86631316470657,-0.12587766,0.541306,9.751067
86631336328447,-0.21942937,0.5481899,9.641556
86631356186367,-0.14382653,0.5297282,9.6858835
86631376042072,-0.1262626,0.5439595,9.683975
86631395899864,-0.16158225,0.63245445,9.786052
86631415757784,-0.2480738,0.6094635,9.851998
86631435615576,-0.06464161,0.46779796,9.798681
86631455473497,-0.10194173,0.49496335,9.867046
86631475333294,-0.12134832,0.48288944,9.781295
86631495191215,-0.057567317,0.50674146,9.708784
86631515049008,0.025187163,0.50137293,9.677366
86631534906929,0.046408623,0.5531556,9.672564
86631554764850,-0.056598026,0.6242728,9.654556
86631574614865,-0.1309744,0.56342685,9.821233
86631594472530,-0.13404153,0.5566636,9.855389
86631614330323,-0.08464238,0.4802381,9.807409
86631634187988,-0.037293896,0.56620044,9.74673
86631654045653,-0.015160147,0.58153206,9.692135
86631673904426,6.819899E-4,0.56466943,9.659149
86631693762219,0.0232994,0.55363786,9.674782
86631713619884,0.03641669,0.524005,9.727359
86631733477677,0.01906831,0.5666288,9.767493
86631753335470,-0.02745821,0.607333,9.925542
86631773201381,-0.071312994,0.5975639,9.819916
86631793059302,-0.093358636,0.4986329,9.715217
86631812917207,-0.05300218,0.52276474,9.726789
86631832775128,-0.08003853,0.6103971,9.704223
86631852633047,-0.05956993,0.5628358,9.635573
86631872492538,-0.03263794,0.6342902,9.698214
86631892350586,-0.06681442,0.66440964,9.870711
86631912208506,-0.14197747,0.5920991,9.9451685
86631932066554,-0.2123171,0.5549418,9.979398
86631951924602,-0.12319035,0.5324768,9.811889
86631971788203,-0.0761095,0.52560663,9.650363
86631991646251,-0.028710408,0.6247981,9.694409
86632011504299,-0.046248864,0.6722724,9.623223
86632031362475,-0.08851307,0.6250923,9.6841345
86632051220523,-0.1941882,0.64802617,9.906929
86632071074007,-0.2996725,0.559241,9.9531145
86632090932055,-0.25988817,0.49975178,9.815263
86632110790103,-0.20890678,0.5649924,9.784688
86632130648023,-0.18495806,0.6173951,9.710113
86632150506071,-0.1984095,0.65713775,9.693207
86632170364674,-0.15346317,0.6452654,9.585633
86632190222722,-0.055130735,0.5006145,9.593994
86632210080643,-0.12011532,0.55478084,9.736618
86632229938692,-0.21482378,0.5682037,9.922922
86632249796738,-0.19215466,0.5957854,9.870917
86632269652075,-0.12447807,0.53155434,9.794906
86632289509994,-0.059148833,0.62638766,9.762144
86632309367914,0.011269787,0.6345905,9.673697
86632329225834,-0.056743577,0.6777467,9.605381
86632349083754,-0.08819382,0.5569561,9.636271
86632368946781,-0.08532924,0.5002084,9.794721
86632388804829,-0.13556246,0.5936994,9.97214
86632408662749,-0.17022084,0.70661193,9.874958
86632428520797,-0.13256162,0.5477234,9.792689
86632448378845,-0.004406789,0.49005467,9.765699
86632468230632,-0.026298199,0.5470807,9.719363
86632488088552,0.058950774,0.50423884,9.5356455
86632507946472,0.094012864,0.45599875,9.668297
86632527804392,-0.0026822682,0.65334284,9.880994
86632547662312,-0.07180205,0.64073867,9.988657
86632567513210,-0.07923292,0.70414597,9.914446
86632587371002,-0.038450938,0.6268384,9.753051
86632607228794,-0.07677024,0.5723833,9.69575
86632627086586,-0.13272822,0.5750051,9.676921
86632646944378,-0.08222524,0.53593814,9.730179
86632666799945,-0.04540652,0.52386105,9.708282
86632686657737,-0.054434467,0.5655005,9.780643
86632706515401,-0.017973641,0.5636069,9.891408
86632726373193,-0.019801693,0.52432144,9.80057
86632746230985,-0.085238494,0.57631344,9.781806
86632766094923,0.011288959,0.53080887,9.683604
86632785952844,0.06887175,0.4765277,9.649625
86632805810765,0.027934453,0.5419182,9.715842
86632825668555,-0.05193581,0.51947033,9.65723
86632845519855,-0.036786433,0.48512703,9.791448
86632865377520,0.0052972217,0.5485011,9.986212
86632885232358,-0.010876951,0.5494989,9.9321995
86632905090150,-0.078846596,0.5948381,9.712059
86632924947943,0.0035291845,0.47932,9.679961
86632944805606,0.113774166,0.44473276,9.630828
86632964670079,0.049822617,0.5899957,9.743884
86632984528000,-0.06709282,0.6586793,9.825195
86633004385791,-0.20119536,0.50170106,9.805357
86633024243711,-0.17346032,0.38329247,9.894111
86633044101504,-0.07881454,0.41817668,9.840546
86633063953262,0.0040849946,0.426685,9.748686
86633083811054,0.087463126,0.48058817,9.761064
86633103668719,0.32547578,0.51716715,9.5895605
86633123526510,0.37073803,0.53616047,9.46895
86633143385430,0.24771915,0.4987848,9.825807
86633163243095,0.08472572,0.41257408,9.985319
86633183100758,0.081615224,0.40702397,9.86424
86633202958422,0.12269058,0.47781482,9.836052
86633222816087,0.17631498,0.5418583,9.815637
86633242673878,0.11802974,0.6530481,9.729596
86633262534529,-0.03337189,0.57270664,9.624375
86633282392194,-0.046581343,0.50366825,9.632551
86633302249857,-0.078571625,0.4507928,9.811953
86633322107649,-0.17571923,0.4108595,9.88185
86633341965314,-0.20476429,0.4428804,9.853193
86633361829905,-0.14660977,0.5143782,9.785263
86633381687825,-0.10438846,0.47597113,9.757064
86633401545746,-0.02147667,0.48299253,9.644882
86633421403667,-0.018957803,0.5477373,9.667363
86633441261228,-0.07942435,0.55481714,9.758871
86633461119149,-0.098750316,0.4924677,9.806903
86633480977070,-0.10562172,0.46515292,9.842963
86633500834863,-0.05986266,0.5108822,9.904137
86633520692784,-0.062471908,0.5081647,9.85561
86633540550577,-0.061891533,0.5913231,9.710966
86633560411436,-0.0591371,0.5416036,9.6584015
86633580269485,-0.033428002,0.46728203,9.666972
86633600127406,-0.10371699,0.4962883,9.791352
86633619985455,-0.113848016,0.5157135,9.807475
86633639843504,-0.08472066,0.48881736,9.804107
86633659698883,-0.08767206,0.54132754,9.78844
86633679556804,-0.06609223,0.5117507,9.765058
86633699414853,-0.04546448,0.4621096,9.709754
86633719272774,0.0011652128,0.49757197,9.679965
86633739130695,0.020519247,0.5594067,9.663523
86633758988616,0.0018850878,0.59695596,9.77129
86633778855163,-0.043399297,0.58251446,9.944513
86633798713340,-0.017888011,0.52324593,9.987832
86633818571517,-0.0027408581,0.5610801,9.813383
86633838429544,-0.0043264055,0.56898415,9.686535
86633858289963,0.018459657,0.5631058,9.602618
86633878148140,-0.018915761,0.5451855,9.665551
86633898006315,-0.046540275,0.5816951,9.76344
86633917864491,-0.08240512,0.5122987,9.867903
86633937722668,-0.111431524,0.517045,9.86148
86633957584078,-0.12531464,0.54650855,9.823297
86633977442382,-0.12834467,0.56351775,9.794623
86633997300815,-0.09987916,0.5397064,9.650168
86634017159118,-0.029171249,0.55761474,9.627693
86634037017422,0.0053477106,0.5624324,9.631125
86634056875855,-0.09018315,0.52246827,9.835076
86634076738095,-0.09788495,0.5318426,9.902099
86634096596527,-0.10564652,0.43107885,9.845192
86634116454832,-0.05136049,0.49802706,9.77805
86634136313263,-0.013770779,0.5197199,9.745552
86634156171543,0.08372301,0.5329133,9.755659
86634176029976,0.11738987,0.61268294,9.725929
86634195888279,0.11994826,0.6438842,9.661769
86634215746711,0.020466091,0.5694921,9.725623
86634235605016,-0.06429215,0.52093226,9.783179
86634255467599,-0.04731032,0.42991334,9.838132
86634275326030,0.012756705,0.50119364,9.855275
86634295184463,0.07388869,0.57235575,9.744024
86634315043022,0.05349871,0.5859211,9.713911
86634334901454,0.03133432,0.586905,9.6921215
86634354759887,-0.020966671,0.5592116,9.732086
86634374617854,-0.13074827,0.57125574,9.785434
86634394476414,-0.15852977,0.50755537,9.823168
86634414334847,-0.1254233,0.48642007,9.802698
86634434193408,-0.06317298,0.58370495,9.761739
86634454044563,-0.08283714,0.6465633,9.727803
86634473902868,-0.06017757,0.5483088,9.698327
86634493761173,-0.044566605,0.51759696,9.703724
86634513619478,-0.076757416,0.56256336,9.770003
86634533477783,-0.014728765,0.5718052,9.768588
86634553336088,0.012130957,0.5083295,9.805832
86634573191741,0.0011223931,0.56793475,9.736853
86634593050174,0.03248625,0.5371711,9.702769
86634612908479,0.027375434,0.5148261,9.6733
86634632766784,0.019689744,0.55485505,9.723501
86634652625089,0.013520089,0.5517648,9.745017
86634672475470,-0.0072008064,0.58045,9.802382
86634692333647,-0.050053507,0.49433345,9.931558
86634712191696,-0.0183613,0.45688516,9.937132
86634732049873,-0.033803973,0.5401913,9.779907
86634751905690,0.0040475093,0.4333033,9.597848
86634771763739,0.059513815,0.45472944,9.586969
86634791621770,0.025789842,0.47902828,9.718624
86634811479818,5.236282E-4,0.58338684,9.783728
86634831337995,-0.008892478,0.4435032,9.888952
86634851196042,0.0836002,0.35560372,9.8767605
86634871046264,0.070781484,0.48297,9.926115
86634890904185,0.07875785,0.56317806,9.762458
86634910759533,0.09476936,0.5057774,9.662541
86634930617453,0.18332951,0.51847774,9.650659
86634950475374,0.14421597,0.4772399,9.718433
86634970334793,0.12812407,0.49075827,9.792069
86634990192841,0.059223987,0.4844069,9.883312
86635010050762,0.0030201783,0.4421637,9.850194
86635029908681,0.049575474,0.4882531,9.813193
86635049757812,0.13742715,0.5209467,9.739134
86635069615477,0.15151824,0.5343722,9.658984
86635089473268,0.13678826,0.51727,9.653888
86635109331060,0.015994605,0.5124325,9.815515
86635129188725,-0.02391326,0.44816673,9.787043
86635149046516,-0.015965711,0.44475955,9.835419
86635168902804,-0.023251954,0.5697765,9.800962
86635188760469,-0.00443319,0.53959936,9.770245
86635208618132,0.042160276,0.49204004,9.731756
86635228475796,0.0709396,0.4438104,9.650913
86635248333461,0.049200833,0.4370536,9.746553
86635268188610,0.059295412,0.5747371,9.90643
86635288046146,-0.0028709644,0.5051284,9.854827
86635307903683,-0.031138143,0.41688734,9.853632
86635327761346,0.013910501,0.3944206,9.810146
86635347618882,0.10490976,0.42151096,9.718069
86635367476419,0.1725108,0.43875992,9.673619
86635387339904,0.18591683,0.3999869,9.631342
86635407197441,0.12628937,0.40902585,9.76045
86635427055106,0.06317121,0.47968897,9.881321
86635446912771,0.04687627,0.47495037,9.907093
86635466769150,0.11277687,0.47761738,9.808586
86635486626815,0.10769214,0.4455136,9.751616
86635506484352,0.11143167,0.5280655,9.697716
86635526342017,0.13925931,0.5372196,9.645771
86635546199554,0.13881321,0.509445,9.673545
86635566057353,0.06423643,0.42814016,9.766796
86635585915018,0.027568774,0.4800337,9.989521
86635605772555,-0.0096474225,0.5848949,9.975034
86635625630092,-0.006209754,0.55024785,9.732467
86635645487629,0.03863498,0.4675738,9.638118
86635665345166,0.09402432,0.463876,9.641298
86635685208585,0.10360124,0.531995,9.7304325
86635705066250,0.023847455,0.536121,9.758888
86635724923915,-0.015040146,0.42558596,9.708858
86635744781580,-0.013053009,0.41611782,9.83635
86635764643939,0.066931866,0.5655125,9.99674
86635784501860,0.122315876,0.6153074,9.784515
86635804359653,0.12693475,0.43743008,9.70109
86635824217422,0.24009295,0.45810392,9.684578
86635844075215,0.1420174,0.4840212,9.684307
86635863938175,0.076306686,0.51026887,9.781426
86635883796223,0.118982665,0.56751317,9.802192
86635903654272,0.14050087,0.5516561,9.8183365
86635923512191,0.1226949,0.5483531,9.784923
86635943370239,0.13297017,0.41449812,9.652549
86635963228160,0.13446505,0.41836894,9.717655
86635983091871,0.07778684,0.5867521,9.790505
86636002950047,0.1251212,0.53473204,9.738475
86636022808224,0.18038946,0.5473801,9.843872
86636042666271,0.09078431,0.510221,9.765145
86636062524659,0.0639284,0.49722347,9.713272
86636082382836,0.06703867,0.5226518,9.739464
86636102241011,0.11684258,0.49881354,9.679226
86636122099187,0.10312058,0.508323,9.760682
86636141957364,0.004696459,0.5601624,9.80566
86636161819311,0.024698656,0.5310466,9.8026705
86636181677487,0.010697534,0.47902432,9.839409
86636201535792,0.040940654,0.51210594,9.75774
86636221393967,0.0991422,0.48341632,9.77414
86636241252271,0.13348803,0.6109172,9.753435
86636261110448,0.10012699,0.54216266,9.711006
86636280967374,0.09488104,0.42560884,9.741091
86636300825550,0.0353695,0.4521974,9.807479
86636320683855,-0.0032984687,0.5100257,9.813506
86636340542030,0.016485203,0.5702376,9.844045
86636360396615,0.001454838,0.51594263,9.759855
86636380254792,0.027759632,0.39952016,9.660949
86636400112967,0.09955281,0.4543687,9.706391
86636419971143,0.1318607,0.60417193,9.718638
86636439829448,0.08952488,0.5500857,9.753473
86636459687623,0.11114943,0.3822685,9.847546
86636479538498,0.16641065,0.3437181,9.7917595
86636499396419,0.11079351,0.49549764,9.770797
86636519254468,0.14664838,0.5687334,9.634578
86636539112517,0.20790848,0.3678334,9.63626
86636558970566,0.2739641,0.4542324,9.7746315
86636578821519,0.19203363,0.4988325,9.948811
86636598679440,0.13111801,0.47988442,9.774574
86636618537361,0.100844406,0.37702817,9.767439
86636638395282,0.14717601,0.37472662,9.759194
86636658244711,0.1743049,0.5081915,9.686539
86636678102376,0.24186672,0.46848816,9.682806
86636697960041,0.31366053,0.44568753,9.698836
86636717817706,0.23697266,0.38390312,9.8424225
86636737675499,0.16509369,0.49499878,9.923025
86636757533164,0.16097899,0.40751535,9.847791
86636777393639,0.18377465,0.37848857,9.700822
86636797251304,0.26910317,0.4161124,9.6341095
86636817108953,0.24817947,0.52384603,9.700425
86636836966745,0.19507006,0.4142571,9.702231
86636856824410,0.1991173,0.31325322,9.746043
86636876677502,0.20841807,0.4689828,9.882591
86636896535166,0.080176115,0.5674127,9.865229
86636916392703,0.11363638,0.41113633,9.804772
86636936251212,0.17411272,0.4440392,9.7524605
86636956108961,0.18636127,0.45016375,9.694842
86636975966498,0.18080173,0.4806181,9.704696
86636995824161,0.19012886,0.42207217,9.717875
86637015681697,0.15319458,0.4464807,9.764898
86637035539362,0.13573262,0.46972942,9.859665
86637055396897,0.17212835,0.43278074,9.868372
86637075248388,0.21008657,0.40864286,9.863002
86637095105797,0.21847653,0.5162726,9.717137
86637114963204,0.19169988,0.4745447,9.662601
86637134820612,0.17798245,0.47259358,9.721985
86637154678149,0.13328892,0.36033484,9.783133
86637174540390,0.14444636,0.35340852,9.784646
86637194397926,0.14479071,0.47947633,9.777061
86637214255463,0.1555491,0.41122136,9.741485
86637234112870,0.17367245,0.35753933,9.718284
86637253977221,0.2033806,0.37418842,9.742567
86637273834758,0.19905986,0.41934627,9.752797
86637293692421,0.11286495,0.44257382,9.842081
86637313549957,0.11250584,0.343188,9.923719
86637333407622,0.1472269,0.32377267,9.846738
86637353265285,0.13982727,0.46474075,9.6559305
86637373119137,0.16670516,0.42089546,9.538253
86637392976674,0.20119317,0.312024,9.672892
86637412834211,0.17901763,0.38235888,9.881875
86637432691748,0.15400925,0.44494084,9.875917
86637452549285,0.120716244,0.35640138,9.826015
86637472410650,0.11664269,0.4026529,9.840814
86637492268187,0.20805182,0.4070921,9.819541
86637512125852,0.2540757,0.35178968,9.63177
86637531983389,0.32590714,0.35555702,9.643257
86637551841054,0.20271139,0.43737596,9.771095
86637571698591,0.13083723,0.33301198,9.822828
86637591562850,0.19355334,0.3550431,9.8189125
86637611420515,0.15231049,0.41882545,9.896604
86637631278308,0.11178608,0.4522186,9.808987
86637651136101,0.1465374,0.37236807,9.733216
86637670998008,0.22829592,0.399952,9.67881
86637690855929,0.22667691,0.42678022,9.730572
86637710713722,0.20468509,0.50490344,9.855953
86637730571515,0.14570276,0.43155652,9.843365
86637750429436,0.093812644,0.3679316,9.783736
86637770293537,0.10149415,0.4532563,9.878497
86637790151586,0.12700236,0.47149986,9.731979
86637810009635,0.15485795,0.4076569,9.731032
86637829867663,0.21421872,0.39913803,9.679672
86637849725839,0.16932859,0.40786088,9.747626
86637869583888,0.13632679,0.45357,9.8237
86637889442540,0.11196582,0.45590004,9.838462
86637909300588,0.12806228,0.42849648,9.821911
86637929158765,0.10717492,0.4905636,9.748547
86637949016812,0.15269233,0.36873218,9.664728
86637968883260,0.14648546,0.42644373,9.703647
86637988741565,0.09119327,0.48804957,9.714973
86638008599740,0.08464615,0.436953,9.78292
86638028458044,0.11796882,0.4564081,9.852998
86638048316349,0.1254547,0.49201882,9.848743
86638068173575,0.051485077,0.47620368,9.733407
86638088031879,0.103348665,0.42210126,9.659913
86638107890184,0.17549703,0.42305228,9.6896715
86638127748487,0.10427462,0.5048947,9.84416
86638147606791,0.14168389,0.52666336,9.81098
86638167465096,0.13043761,0.40009654,9.837355
86638187329129,0.118046135,0.48395583,9.788103
86638207187561,0.11555517,0.4585125,9.691956
86638227045866,0.13890794,0.4652065,9.641825
86638246904297,0.1597718,0.439614,9.736882
86638266762181,0.108758174,0.47883016,9.909929
86638286620486,0.052145243,0.48389393,9.866172
86638306478917,0.0071596056,0.42721945,9.751886
86638326337221,0.062149014,0.46350288,9.817405
86638346195654,0.041988946,0.5522999,9.748465
86638366053957,0.107151836,0.43885747,9.652233
86638385908889,0.13828103,0.41176063,9.68113
86638405767194,0.038058225,0.35122275,9.707364
86638425625625,0.07071809,0.44258693,9.931102
86638445483929,0.04089359,0.5815921,9.9123
86638465342362,0.020868223,0.3556732,9.692293
86638485194407,0.11772757,0.37157744,9.703361
86638505052584,0.14115047,0.45572817,9.7091465
86638524910889,0.11883327,0.44848058,9.7542095
86638544769066,0.12486981,0.43739727,9.777947
86638564613613,0.08621529,0.26356846,9.758086
86638584471534,0.107213475,0.35067657,9.823865
86638604329583,0.1346273,0.44861305,9.7676525
86638624187504,0.14093174,0.37901413,9.677734
86638644045553,0.12672147,0.4309061,9.728049
86638663903474,0.117298484,0.3605602,9.748346
86638683750843,0.10992745,0.35775355,9.8765
86638703608508,0.070361264,0.41405764,9.878054
86638723466173,0.06935746,0.41624013,9.858305
86638743323838,0.06279459,0.4463627,9.795744
86638763181503,0.07484747,0.38064727,9.65978
86638783039394,0.16393483,0.34501824,9.686458
86638802897059,0.17451242,0.45637137,9.774907
86638822754724,0.09776836,0.46132088,9.767736
86638842612499,0.012096469,0.3630529,9.80686
86638862470413,0.041733924,0.28013408,9.790697
86638882328078,0.1083859,0.37988076,9.790865
86638902185869,0.09865371,0.42597356,9.735695
86638922043533,0.16116244,0.36242127,9.657696
86638941901198,0.17977728,0.38831398,9.7359915
86638961751254,0.07231322,0.44679266,9.802307
86638981607602,0.103359215,0.3534051,9.861408
86639001465139,0.04730493,0.41599587,9.935819
86639021322802,0.043994606,0.41975936,9.749142
86639041180338,0.103557,0.38189527,9.650176
86639061038003,0.12827754,0.3680396,9.726853
86639080893611,0.08914607,0.4917166,9.800373
86639100751147,0.064236775,0.4368897,9.87217
86639120608684,0.08057065,0.36851448,9.74381
86639140466219,0.024800856,0.35934,9.768765
86639160325360,-0.009620495,0.47202793,9.798037
86639180182897,0.046888266,0.32528928,9.721525
86639200040432,0.12514168,0.43128428,9.7982
86639219897968,0.0693464,0.39838743,9.755283
86639239755505,0.092085004,0.36383194,9.761479
86639259613042,0.050421022,0.4108047,9.781042
86639279474703,0.014526443,0.43449605,9.724553
86639299332240,0.021263676,0.3643497,9.723299
86639319189775,0.036814183,0.42863214,9.700515
86639339047439,0.02166563,0.4101231,9.782529
86639358904976,-0.04351953,0.4907998,9.830102
86639378761704,-0.052453816,0.4174536,9.790086
86639398619240,0.00591044,0.40318644,9.797952
86639418476777,-0.02059378,0.46993014,9.732626
86639438334440,-0.011177058,0.3969105,9.7402935
86639458191976,0.039501972,0.43863845,9.753906
86639478049513,0.031411454,0.3633614,9.750782
86639497907030,-0.043945782,0.4307989,9.829907
86639517764566,-0.022116303,0.43159106,9.916983
86639537622103,-0.07679622,0.43063322,9.85524
86639557479638,-0.10587553,0.39885977,9.702318
86639577344960,0.05344569,0.33738512,9.614713
86639597202753,0.072139814,0.4122066,9.725794
86639617060416,-0.06022098,0.59117347,9.76664
86639636918208,-0.10142187,0.5039554,9.782053
86639656775873,-0.048578314,0.43707573,9.84521
86639676635261,-0.14749452,0.40858802,9.89079
86639696493053,-0.2045796,0.48697048,9.831375
86639716350718,-0.14590418,0.45875826,9.724642
86639736208509,-0.026949931,0.43440872,9.629871
86639756066173,-0.010005349,0.49242786,9.689141
86639775923966,-0.08677986,0.47212523,9.739468
86639795787939,-0.12572938,0.38077772,9.803889
86639815645859,-0.1405798,0.39680904,9.813876
86639835503780,-0.14273866,0.42650333,9.806506
86639855361827,-0.08383508,0.44186446,9.710776
86639875228153,-0.01022261,0.46855703,9.732416
86639895086330,0.013084204,0.50395423,9.82455
86639914944505,-0.05827154,0.4851425,9.807422
86639934802681,-0.051649798,0.46103066,9.67706
86639954660858,-0.015611936,0.42701134,9.679242
86639974520264,-0.079620115,0.5110684,9.8036375
86639994378440,-0.05480739,0.45032346,9.794572
86640014236745,-0.025021862,0.4616126,9.7587185
86640034095048,-0.07266085,0.44080064,9.754406
86640053953224,-0.08066993,0.4673163,9.752404
86640073811529,-0.10060982,0.449796,9.770514
86640093664104,-0.10208211,0.46510363,9.862798
86640113522280,-0.09049752,0.37345326,9.6087265
86640133380585,-0.009317229,0.30345368,9.536642
86640153238762,-0.021024192,0.47250885,9.659925
86640173101197,-0.15700944,0.44993308,9.815943
86640192959374,-0.16704306,0.4711644,9.912515
86640212817677,-0.14681666,0.41882727,9.88507
86640232675853,-0.096555926,0.3745025,9.759395
86640252534030,-0.10062652,0.38235548,9.671221
86640272392205,-0.10019633,0.40338126,9.66797
86640292256550,-0.049382783,0.4678212,9.749387
86640312114855,-0.107693486,0.48427576,9.801091
86640331973030,-0.10336929,0.40808254,9.842534
86640351831334,-0.052485544,0.3668991,9.90575
86640371689639,-0.094461314,0.38379985,9.792523
86640391547380,-0.065828316,0.37437654,9.681369
86640411405684,-0.005442936,0.38021937,9.655478
86640431263989,0.015488459,0.41614825,9.716473
86640451122292,-0.04847737,0.45460913,9.817576
86640470972867,-0.12698908,0.423888,9.765758
86640490831044,-0.05173285,0.2857461,9.801587
86640510689219,-0.05699528,0.38037497,9.797055
86640530547395,-0.055022385,0.3409065,9.754366
86640550405444,0.03169509,0.37363246,9.679839
86640570263619,0.011858495,0.3559304,9.6875725
86640590117510,-0.039591648,0.38225988,9.751843
86640609975687,-0.05152268,0.41949397,9.8061695
86640629833734,-0.052728392,0.35358918,9.805401
86640649691782,-0.062922746,0.35936248,9.756096
86640669549959,-0.045548253,0.3183357,9.731797
86640689397638,-0.008848922,0.41989323,9.822863
86640709255430,-0.09665286,0.43998152,9.925835
86640729113351,-0.038726725,0.34497723,9.825715
86640748971270,0.019254398,0.32557714,9.726437
86640768828136,0.0049388153,0.40185452,9.71747
86640788685929,-0.03544099,0.3932187,9.692959
86640808543720,-0.038978957,0.36601135,9.667119
86640828401640,-0.016285745,0.31079435,9.826393
86640848259433,-0.036524724,0.3616595,9.87149
86640868117352,-0.06607246,0.2888428,9.9042
86640887973588,-0.08060022,0.4132047,9.866396
86640907831509,-0.12905252,0.35069242,9.833256
86640927689300,-0.030521736,0.27965647,9.64098
86640947547092,-0.03428647,0.42588967,9.613133
86640967404885,-0.11259672,0.36991364,9.666936
86640987263496,-0.1317753,0.28070807,9.746403
86641007121288,-0.100276865,0.2503165,9.853378
86641026979081,-0.16231309,0.3319904,9.843458
86641046836872,-0.1497429,0.37153625,9.811893
86641066693188,-0.13892962,0.40370002,9.7636385
86641086550853,-0.0758388,0.36245736,9.75019
86641106408644,-0.10316564,0.43868834,9.782043
86641126266436,-0.16107784,0.3799108,9.731171
86641146124101,-0.19035195,0.36706683,9.807318
86641165981892,-0.26187137,0.3698163,9.831195
86641185838575,-0.16719827,0.25561985,9.751491
86641205696240,-0.10093038,0.381345,9.708397
86641225553903,-0.1353202,0.41419488,9.743075
86641245411695,-0.21481958,0.425954,9.788863
86641265269360,-0.21349609,0.37819955,9.78344
86641285128937,-0.13208663,0.33174714,9.743344
86641304986729,-0.16775078,0.3801005,9.876348
86641324844394,-0.25283596,0.38390058,9.779286
86641344702185,-0.17621028,0.3521495,9.713885
86641364559849,-0.17735577,0.3817387,9.724347
86641384417514,-0.2008571,0.35881793,9.828308
86641404273147,-0.24325475,0.38658825,9.851516
86641424130811,-0.112714626,0.2917003,9.755261
86641443988348,-0.17525445,0.4078675,9.761838
86641463846011,-0.26275358,0.38901007,9.667046
86641483711410,-0.12907507,0.28973344,9.611007
86641503569203,-0.023072166,0.36474198,9.761231
86641523426994,-0.21547647,0.4629263,9.991035
86641543284786,-0.24149919,0.41893515,9.910882
86641563142579,-0.0919887,0.20390053,9.700232
86641583002083,-0.0881294,0.34577546,9.709864
86641602860003,-0.26374346,0.44278014,9.7759285
86641622717796,-0.17466554,0.33560798,9.615634
86641642575587,-0.07954653,0.3356125,9.667687
86641662433507,-0.12215442,0.34221485,9.729486
86641682291300,-0.18406276,0.32453677,9.820635
86641702148650,-0.22391967,0.39328015,9.899735
86641722006442,-0.20469181,0.33479038,9.759667
86641741864235,-0.10096733,0.22665791,9.695227
86641761721898,-0.14874482,0.38943768,9.74379
86641781592886,-0.14233302,0.39499897,9.754242
86641801450935,-0.14564718,0.38287306,9.737229
86641821309110,-0.19015224,0.36971852,9.784162
86641841167158,-0.16441078,0.35301167,9.7565565
86641861025207,-0.17314054,0.33287567,9.676188
86641880883254,-0.18081923,0.40151387,9.679526
86641900751564,-0.18874282,0.37951308,9.81026
86641920609997,-0.18882827,0.3512996,9.835405
86641940468428,-0.16125485,0.34454477,9.855075
86641960326732,-0.18634805,0.39829543,9.81359
86641980185165,-0.21646644,0.38297227,9.768724
86642000038092,-0.1682811,0.3677008,9.671769
86642019896396,-0.20179617,0.4004298,9.616932
86642039754829,-0.19249013,0.34715593,9.738585
86642059613132,-0.21658531,0.33978632,9.820183
86642079464329,-0.18928859,0.2692541,9.852655
86642099322506,-0.2003604,0.33714873,9.894755
86642119180681,-0.1824122,0.3463606,9.800667
86642139038985,-0.1883256,0.38280863,9.71895
86642158897162,-0.16233161,0.3874448,9.620799
86642178755465,-0.11713392,0.40739366,9.624137
86642198613629,-0.16354412,0.37255847,9.783373
86642218471934,-0.28454894,0.32961273,9.876836
86642238330109,-0.19064231,0.2612792,9.936004
86642258188413,-0.21698332,0.3454161,9.844454
86642278046590,-0.2399307,0.31957522,9.670393
86642297901187,-0.11464171,0.3685617,9.679153
86642317759363,-0.08784486,0.45534006,9.72082
86642337617412,-0.23417366,0.45186022,9.845684
86642357475587,-0.24622948,0.375115,9.813885
86642377333848,-0.15426457,0.21698302,9.789701
86642397191897,-0.15206553,0.25927112,9.788188
86642417050072,-0.28483614,0.3888274,9.807872
86642436908120,-0.20044765,0.4322812,9.759565
86642456766297,-0.12595484,0.4146044,9.792415
86642476624344,-0.17572236,0.3542047,9.698535
86642496480332,-0.07844881,0.2835741,9.732014
86642516338381,-0.18450713,0.36955357,9.781346
86642536196428,-0.24020904,0.29362714,9.748016
86642556054476,-0.14001472,0.33401477,9.743586
86642575912525,-0.06987142,0.34059948,9.748196
86642595766403,-0.15513317,0.42044595,9.798068
86642615624451,-0.2063505,0.40428337,9.791373
86642635482372,-0.09694295,0.2489502,9.743183
86642655340419,-0.010517908,0.23221062,9.748277
86642675181991,-0.1643758,0.37875092,9.769037
86642695039528,-0.15334801,0.41710973,9.778399
86642714897191,-0.11387511,0.3209286,9.752303
86642734754855,-0.03148377,0.29817823,9.842088
86642754612520,-0.08199451,0.39939708,9.936536
86642774470183,-0.13842523,0.33721393,9.895038
86642794328310,-0.10192342,0.32540038,9.755548
86642814185847,-0.074921526,0.3682304,9.664976
86642834043510,-0.11735812,0.36402324,9.681595
86642853901046,-0.08726049,0.32753637,9.736145
86642873758711,-0.051657595,0.26598474,9.734386
86642893616053,-0.11982095,0.32774052,9.79481
86642913473589,-0.14960478,0.27101496,9.8557825
86642933331254,-0.04378901,0.1809579,9.821317
86642953188789,-0.045459807,0.2792249,9.724656
86642973046325,-0.06194809,0.4211498,9.597287
86642992903862,-0.053504698,0.40099978,9.72041
86643012763574,-0.1032661,0.30035812,9.800741
86643032621110,-0.12697938,0.27774101,9.868777
86643052478647,-0.18870297,0.36792925,9.812364
86643072336182,-0.17281945,0.27720255,9.774851
86643092193311,-0.09896388,0.3055514,9.63357
86643112050848,-0.1190492,0.37093532,9.63962
86643131908383,-0.14796403,0.4170507,9.780509
86643151765919,-0.17096983,0.37538022,9.946134
86643171623456,-0.15470749,0.2484145,9.797786
86643191480746,-0.09826082,0.30297843,9.732482
86643211338282,-0.12723042,0.42713687,9.758447
86643231195819,-0.21962455,0.42093027,9.784905
86643251053354,-0.2051734,0.39947683,9.736821
86643270910762,-0.22618097,0.3676821,9.747816
86643290768299,-0.20959973,0.39326236,9.717145
86643310628656,-0.22766651,0.3669591,9.827216
86643330486192,-0.23309231,0.32805178,9.807623
86643350343729,-0.2063874,0.32943243,9.767594
86643370201264,-0.16217501,0.4298678,9.700878
86643390064596,-0.13848858,0.44065967,9.764598
86643409922389,-0.15906337,0.39641544,9.827325
86643429780052,-0.13021493,0.37832034,9.787449
86643449637716,-0.17902492,0.4107678,9.796201
86643469495509,-0.18008941,0.3445704,9.763637
86643489358602,-0.16262999,0.3147872,9.790508
86643509216522,-0.14402507,0.42235222,9.7774725
86643529074443,-0.17019734,0.39035,9.736966
86643548932234,-0.17026754,0.33576557,9.650752
86643568790154,-0.10959495,0.26975846,9.709248
86643588648075,-0.114317305,0.3263237,9.913546
86643608505799,-0.231062,0.32730976,10.0158415
86643628363719,-0.18230967,0.21237448,9.76663
86643648221512,-0.029626204,0.23356788,9.650983
86643668079431,-0.026339067,0.380463,9.685963
86643687935102,-0.15931591,0.45495698,9.71154
86643707792895,-0.15529044,0.2601388,9.714457
86643727650686,-0.09411469,0.1665971,9.792532
86643747508478,-0.2069963,0.27500406,9.808734
86643767366271,-0.2228429,0.16984197,9.730859
86643787232071,-0.070292875,0.16356355,9.683054
86643807089991,-0.018125344,0.3540279,9.747965
86643826948040,0.02687758,0.4267024,9.86313
86643846805959,0.1393669,0.3467363,9.839629
86643866663879,0.069563255,0.36121738,9.764505
86643886521928,0.027523175,0.3581727,9.715173
86643906385589,0.016070062,0.3568088,9.63928
86643926243765,0.050395343,0.3900446,9.6442175
86643946101814,0.048737332,0.41737965,9.840818
86643965959989,0.05578859,0.3931834,9.924445
86643985825967,0.061480463,0.30482095,9.830496
86644005684272,0.043232687,0.38623255,9.790383
86644025542575,-0.09836088,0.38625896,9.798575
86644045400879,-0.10910304,0.3287459,9.710935
86644065259184,-0.13209774,0.34026447,9.6534195
86644085117615,-0.08646566,0.21203732,9.695653
86644104976114,-0.11819514,0.24259551,9.721248
86644124834547,-0.1732017,0.3634994,9.769515
86644144692978,-0.18787919,0.3852373,9.790781
86644164551282,-0.17884585,0.29144436,9.688393
86644184409715,-0.11740242,0.33197016,9.589714
86644204267049,-0.059952218,0.4514093,9.566942
86644224125353,-0.12537067,0.49106723,9.568703
86644243983786,-0.19379674,0.46817562,9.638381
86644263842217,-0.18002728,0.35119396,9.636905
86644283697248,-0.145893,0.29439056,9.597335
86644303555425,-0.1254341,0.37512296,9.649465
86644323413728,-0.20014551,0.3719289,9.478277
86644343271904,-0.07258453,0.2865599,9.49627
86644363130209,-0.07819401,0.29898223,9.542995
86644382988384,-0.023892248,0.23056234,9.640413
86644402851430,-0.053500444,0.39726382,9.7429285
86644422709735,-0.08498246,0.38767102,9.753684
86644442568166,-0.07515175,0.31763473,9.72555
86644462426470,0.048119873,0.36790514,9.754852
86644482284903,0.053349912,0.45347488,9.668874
86644502132544,0.02569577,0.4115526,9.573337
86644521990720,0.033115376,0.3342718,9.526938
86644541848897,0.041720822,0.28423852,9.544321
86644561707072,-0.0141127845,0.3856741,9.539195
86644581559277,-0.07413971,0.35529608,9.563027
86644601417326,-0.017259622,0.33598873,9.689398
86644621275373,-0.021853916,0.3308505,9.69168
86644641133421,-0.02107294,0.2769181,9.689899
86644660991598,0.021606432,0.35793322,9.762473
86644680849647,-0.06357271,0.38321403,9.728544
86644700704892,-0.055223413,0.3699369,9.456447
86644720562813,0.04454664,0.337349,9.41297
86644740420857,-0.044877805,0.32805413,9.538996
86644760278777,-0.085548654,0.26012954,9.766533
86644780136826,-0.08318802,0.37232634,9.731376
86644799994756,-0.083015926,0.2902947,9.640693
86644819852676,-0.08713106,0.31873614,9.589133
86644839710597,-0.10422903,0.3119452,9.655116
86644859568644,-0.04000377,0.3289718,9.63924
86644879418957,-0.011751202,0.34543616,9.623356
86644899276750,-5.005338E-4,0.34022903,9.642396
86644919134541,-0.022117978,0.38452566,9.68324
86644938992333,-0.07794821,0.3467131,9.75532
86644958850254,-0.073491745,0.30332184,9.662183
86644978708045,0.013429241,0.3084899,9.60435
86644998557634,0.06744745,0.3679651,9.5595875
86645018415299,0.031150067,0.38240525,9.567871
86645038272962,-0.0113567365,0.34780726,9.621581
86645058130754,-0.03658823,0.2944991,9.617376
86645077988419,-0.023403732,0.27688086,9.639917
86645097839962,0.013025031,0.2971223,9.685478
86645117697498,0.019976657,0.2989925,9.691882
86645137555035,0.07517649,0.39838588,9.63222
86645157412570,0.09843637,0.41483068,9.55554
86645177270106,0.112133875,0.36398125,9.545513
86645197127643,0.09084768,0.38661832,9.616345
86645216986080,0.009295871,0.41303375,9.593761
86645236843616,0.02213193,0.28607026,9.552579
86645256701025,0.083613575,0.24749026,9.52439
86645276558560,0.0806054,0.25106815,9.494679
86645296417126,0.15244934,-0.12152904,9.537476
86645316274535,0.06967305,0.009898291,9.631039
86645336132072,0.0901585,0.017963873,9.674249
86645355989481,0.09452331,0.05311054,9.702922
86645375846890,0.079409115,0.087651186,9.591865
86645395709029,0.06661477,0.11410085,9.548787
86645415566566,0.028511662,0.20642875,9.701484
86645435424103,-0.031586412,0.42075077,9.829623
86645455281640,-0.12212179,0.60492724,9.880116
86645475139177,-0.1175374,0.8919453,9.9153
86645494996714,-0.089666255,1.1875751,10.035013
86645514858091,-0.26717085,1.1899356,10.026331
86645534715628,-0.35967976,1.0778786,9.996322
86645554573293,-0.4078893,1.2572203,10.0615015
86645574430830,-0.44740188,1.6693147,10.378198
86645594291483,-0.5401119,1.793838,10.897648
86645614149148,-0.62795913,1.0537826,11.106375
86645634006813,-0.9246695,-0.1259191,10.256167
86645653864606,-0.6777336,-0.37485373,9.771916
86645673722271,-1.1263013,1.0022672,9.55893
86645693580064,-1.5277133,0.25480616,8.86061
86645713440179,-1.1550102,1.1441928,8.976022
86645733297972,-0.91122574,2.7966104,8.813523
86645753155765,-0.6106654,2.5973194,8.69137
86645773013408,0.668487,0.22170813,9.285234
86645792871201,-0.105552666,0.5896434,9.967375
86645812737764,-0.7017672,-0.062431835,9.427639
86645832595685,-0.70649123,0.15779294,8.802905
86645852453603,-0.36896893,1.0238866,8.7708025
86645872311523,-0.40935323,1.1435268,9.0366335
86645892169443,-0.72553736,1.0172467,9.504387
86645912035744,-0.89128083,1.0694561,9.929616
86645931893920,-0.9318656,1.4915363,10.248636
86645951751968,-0.7210576,1.7787864,10.51027
86645971610144,-0.5029238,2.210399,10.797756
86645991468320,-0.73920405,2.8429024,10.537567
86646011335139,-0.9983549,3.051225,9.962685
86646031193571,-1.1131864,3.2547626,9.3329935
86646051052003,-1.4450803,3.9315584,9.1696615
86646070910435,-2.9783833,3.9863818,8.453433
86646090768867,-4.744595,3.6575978,6.4363112
86646110619887,-4.1067758,1.9599636,4.477961
86646130478063,2.5326443,-4.7088747,4.9831195
86646150336367,9.881952,-7.812634,20.890656
86646170194671,2.6940982,1.1959497,25.538357
86646190052847,2.3544462,-3.7238026,-0.9619799
86646209912407,3.3608406,2.663047,0.46584
86646229770711,4.9813848,1.6401851,8.602183
86646249629015,5.131593,-5.651489,11.900748
86646269487319,3.232017,-6.7187943,12.229599
86646289345623,-1.1209364,-4.6279936,11.07303
86646309207908,-1.9085634,-2.4921832,10.742046
86646329066341,1.148944,-2.306579,8.853926
86646348924771,1.7500913,-2.0385466,8.275619
86646368783203,0.88141495,-1.5585191,8.033526
86646388641507,-0.094300866,-0.7584887,8.192759
86646408497184,0.73051715,0.44058564,9.770596
86646428355488,-0.025116544,0.9583877,9.388298
86646448213920,-2.0113702,1.6383007,9.362365
86646468072353,-2.5379436,0.55502623,10.213924
86646487930786,-2.0334473,1.5777485,9.862258
86646507782397,-1.1915461,1.418689,9.165024
86646527640702,-1.2757071,1.2948835,9.061123
86646547498879,-1.5200351,2.5794935,9.068377
86646567357184,-1.2446514,2.1550102,8.7303095
86646587215489,-1.2947363,0.08243895,8.656121
86646607062968,-1.2638025,-1.1187196,8.359125
86646626921017,-1.6085553,-0.492999,8.346151
86646646779066,-1.3809767,0.5712543,9.313749
86646666637115,-1.2120898,0.93381035,10.458353
86646686495164,-0.8626154,2.383201,10.834014
86646706348079,-0.71935034,2.7061074,10.926628
86646726206000,-1.7417489,1.8335549,10.829598
86646746063793,-2.6563966,0.96345645,10.991939
86646765921714,-2.8586974,0.9826749,10.857585
86646785779635,-3.2604725,0.39611685,11.730956
86646805637824,-3.6622024,0.06112522,13.090794
86646825495729,-3.5825772,0.029607862,13.184198
86646845353521,-3.3100357,0.10168534,12.551279
86646865211441,-3.0899224,-0.61852324,11.40521
86646885069233,-1.4590182,-0.8670455,10.503153
86646904926033,0.55050987,-0.27528834,10.386236
86646924783953,0.8557572,0.61901754,9.342148
86646944641745,-0.07743108,1.302233,11.151486
86646964499537,-1.0815461,-2.3500464,11.912021
86646984357329,-2.2039435,-5.0069346,9.84673
86647004209264,-2.2828293,-5.5410285,9.164637
86647024066862,-2.62449,-3.674809,9.47682
86647043924654,-2.7212706,-0.5166538,10.706053
86647063782318,-1.1417148,-1.6117198,9.822208
86647083639982,-1.7136729,-4.660497,8.384671
86647103492874,-1.8012048,-5.339246,8.644184
86647123350410,-1.7944713,-5.5820713,8.160225
86647143207946,-0.14837712,-6.113014,7.3477917
86647163065610,1.6092762,-3.9166121,6.812239
86647182923146,2.9929783,-1.610909,6.78528
86647202779195,3.4114847,2.0858362,7.370007
86647222636603,3.7730145,2.319104,7.3903
86647242494139,3.6251984,2.7183266,7.5239177
86647262351676,3.0618727,3.7496178,8.096686
86647282209085,2.2791443,3.0286744,8.695911
86647302074228,0.78234184,2.8596444,8.933156
86647321931890,-1.7478745,2.130331,9.917392
86647341789426,-4.234802,1.109918,11.979718
86647361646962,-8.7444315,-1.0661359,14.085293
86647381504626,-7.223202,-7.35843,10.866837
86647401364849,-2.4705718,-7.2226963,8.315934
86647421222513,-0.46144792,-2.1274323,7.582833
86647441080177,1.4668692,-2.0174325,9.719575
86647460937841,8.113028,-4.2115154,12.860338
86647480795505,13.28713,6.6490474,16.075111
86647500659799,-1.8095798,9.300006,12.170527
86647520517591,1.7102537,-1.2228917,4.489754
86647540375383,7.068954,-5.2894583,5.6301694
86647560233303,7.2693453,-4.0997744,9.300292
86647580091095,8.122486,-6.292892,9.941763
86647599946723,7.254885,-4.5826945,10.735531
86647619804515,-2.3619862,1.4562097,13.631707
86647639662307,-2.0549216,0.4526358,10.504944
86647659520099,2.3397784,-2.4195578,5.966982
86647679377891,-1.7958156,0.147526,6.8421793
86647699242680,0.67694426,-0.3699838,9.273479
86647719100600,1.4786044,-1.2901192,9.417358
86647738958392,0.32822418,-0.71806514,8.849093
86647758816312,1.0974735,0.8959253,8.949994
86647778674232,2.1065109,0.9962372,8.796066
86647798532152,1.285606,-0.23287122,8.840642
86647818393205,0.6278211,-0.9433306,9.183309
86647838251125,-0.27238715,-1.632393,10.101958
86647858109173,-2.1553836,-1.6626306,10.544574
86647877967221,-0.7435286,-1.2660536,10.584721
86647897825269,-0.32795125,-0.06843358,11.3707
86647917684518,-2.3563542,0.8094029,11.475099
86647937542566,-3.249218,-0.37712738,11.263898
86647957400614,-0.8228843,-2.5148559,11.278788
86647977258790,0.86571544,-3.2722235,13.645483
86647997116838,1.2866088,-3.2486613,14.651013
86648016982548,1.6400487,-2.4974597,12.236304
86648036840852,0.00583978,0.09764552,10.188167
86648056699156,0.100654066,0.53523415,10.139546
86648076557332,1.9955244,-0.76048434,11.075624
86648096415636,2.232213,-2.1493187,11.91633
86648116276410,2.2292352,-2.5158045,10.521546
86648136134714,3.9395995,-2.9888692,9.553392
86648155993146,3.3014917,-4.424537,9.468301
86648175851450,2.3749082,-3.4007645,9.059667
86648195709754,2.023355,-2.3782275,8.418363
86648215568034,2.9702814,-1.12431,7.933822
86648235426338,4.58084,-0.9134789,6.94054
86648255284642,5.681298,-1.2729001,5.7682595
86648275142946,5.91959,0.09525201,6.426848
86648295001250,4.607547,1.0283073,7.6331387
86648314856354,2.98164,1.8309493,8.0361805
86648334714658,1.2623665,3.0170288,8.63651
86648354572834,-0.0685442,3.9218793,9.143568
86648374431138,0.18583636,2.9083586,8.873938
86648394289442,1.1617475,0.9086832,8.959196
86648414145361,0.8589977,-0.40028194,8.9466095
86648434003665,0.4867829,-0.85299224,9.156154
86648453861969,-0.3722172,-1.4022793,9.33923
86648473720273,-1.4508033,-3.180661,9.962315
86648493578449,0.303783,-4.812037,10.860444
86648513428463,3.9454424,-3.9424422,10.68257
86648533286639,4.9875274,-2.1650963,10.385133
86648553144687,4.533552,-0.9732749,12.322606
86648573002863,5.190733,2.0216596,13.057144
86648592861039,3.183693,5.071089,10.888052
86648612708871,0.03878866,2.741634,8.795925
86648632566791,-0.96080023,1.5235065,7.262129
86648652424711,0.2724382,3.3703668,6.7133727
86648672282503,2.4212105,4.5047536,8.300448
86648692140423,6.0462337,4.1504107,10.227879
86648711987798,6.4407015,3.3301277,11.942489
86648731845334,3.714285,-1.7185435,10.719561
86648751702998,2.6019716,-4.2787642,9.777587
86648771560662,2.1648602,0.17784667,9.444588
86648791418326,1.6513264,-1.0738337,9.01211
86648811275777,1.8973505,-0.27992076,8.937241
86648831133313,2.0908823,1.2110517,8.976797
86648850990849,1.8509831,1.6651436,8.839663
86648870848513,1.8710816,1.5300387,8.829699
86648890706049,1.9857391,1.3417547,9.296761
86648910569221,2.197983,1.2020186,9.570259
86648930426885,1.584767,0.3067244,9.955026
86648950284677,1.0199381,-0.51371187,9.986683
86648970142341,0.9303593,-0.36304894,9.671302
86648990000005,0.8624071,0.08494777,9.737121
86649009855560,1.1885858,0.23542231,9.488073
86649029713096,0.75260156,-0.24953127,9.397543
86649049569488,0.21105792,-0.69355947,9.677293
86649069427152,0.18506694,-0.9819278,9.467192
86649089284688,0.89257574,-1.1982999,9.377669
86649109141736,1.3325726,-1.5826627,9.663705
86649128999400,1.5143055,-1.5916777,9.977648
86649148856936,1.2922552,-1.5249089,10.086139
86649168714600,1.5401301,-1.2039876,9.98865
86649188572264,1.8077528,-1.3872639,10.290608
86649208430391,2.238664,-1.7123072,11.1418
86649228287927,2.5379565,-1.3146871,11.740338
86649248145463,1.6152151,-1.4166238,12.121325
86649268002999,0.37901482,-1.3734444,12.363438
86649287860535,-0.54314506,-1.1001707,11.443205
86649307721406,-0.36762357,-0.44468585,9.934325
86649327579070,-0.051422216,0.11250641,8.815348
86649347436734,-0.3252353,-0.26865226,8.784864
86649367294398,-0.51660186,-0.57019836,9.738623
86649387151934,-0.37846994,-0.60099477,10.368999
86649407008591,-0.22833288,-0.54284585,10.27712
86649426866255,-0.41693014,0.2990197,10.27566
86649446723791,-0.077046566,0.367442,10.135197
86649466581327,0.8367821,0.045754205,9.785668
86649486438991,1.4493924,0.93062305,9.690543
86649506298892,1.4304162,0.73858905,9.678083
86649526156556,1.1922435,0.15757611,9.767249
86649546014092,1.2822064,0.29744774,9.372945
86649565871756,1.0642596,1.0553163,9.208854
86649585729292,1.0994939,1.549656,8.913018
86649605591966,0.37726846,0.56391513,8.615551
86649625449630,-0.8009138,-0.5771561,9.095437
86649645307422,-0.9857557,-0.76012015,8.689334
86649665165214,-1.0343087,-1.1313806,8.266824
86649685022878,-0.7057603,-1.259739,8.4072895
86649704883370,-0.58035904,-1.5157722,9.182713
86649724741290,-0.58485264,-2.458235,10.034138
86649744599082,-0.07906833,-1.9202448,9.452032
86649764456874,0.81805754,-0.39636678,8.418918
86649784314794,2.0406747,0.13660428,9.186445
86649804182521,3.4468577,-0.19434944,10.37174
86649824040569,2.9760273,-0.4992998,9.993971
86649843898745,0.9705922,-1.3242977,8.818274
86649863756793,-0.8156323,-3.2709205,9.015673
86649883614841,-1.2337477,-3.1378036,9.114301
86649903476034,-1.2371136,-1.6475805,8.667604
86649923334210,-1.3827382,-1.3787415,8.711519
86649943192386,-0.7106098,-1.3881592,8.830686
86649963050562,-0.07956978,-1.7845992,9.285104
86649982908738,0.31549364,-2.852964,9.605363
86650002771295,0.90490705,-3.018592,9.668458
86650022629599,1.2026569,-1.9129306,10.1
86650042487903,1.1739577,0.18589035,12.687438
86650062346207,0.3737392,3.114417,16.90837
86650082204512,-1.5603769,3.0475876,17.752361
86650102056744,-1.3319582,-0.5663211,11.404767
86650121915048,-1.3203516,-0.2748864,5.001588
86650141773224,-2.6817918,2.6098065,3.793093
86650161631400,-1.9582217,2.2074718,5.7470307
86650181489576,-1.1976393,2.16852,8.874242
86650201341053,0.32604998,2.2050955,10.789227
86650221199102,1.1126992,2.9648619,11.496816
86650241057151,2.104779,0.84815186,11.669819
86650260915200,2.7643602,-1.9456267,11.732236
86650280773249,1.4000015,-0.88901955,10.598992
86650300633558,0.5545089,-0.590868,9.685298
86650320491607,0.36396164,0.19543315,9.425188
86650340349656,-0.09106737,1.0364108,9.485277
86650360207705,-0.43189397,1.1896868,9.336108
86650380065754,-0.3419493,1.2290356,8.999145
86650399921383,0.84695834,1.0966133,8.909027
86650419779432,1.2990739,0.50074375,9.801655
86650439637353,1.2617714,0.3894965,10.226444
86650459495402,0.7585109,0.6612145,9.6122675
86650479353451,-0.08074768,0.38317582,9.207204
86650499206910,-0.21818471,-9.7630016E-4,9.154836
86650519064831,0.017037963,-0.19860838,9.630842
86650538922752,0.37926257,-0.18241839,9.762819
86650558780801,0.42122352,0.2740499,9.732216
86650578638722,0.3273552,1.5537465,10.027405
86650598496643,0.17060018,0.7128185,10.077833
86650618348334,0.3549876,-1.2594837,9.875254
86650638206127,0.050980475,-1.3660588,10.0094795
86650658063920,-0.33482054,-0.8640144,9.81631
86650677921819,-0.6596488,-1.03973,9.45739
86650697779612,0.4054696,-0.33605295,8.509894
86650717628335,1.7538747,0.19176124,8.776897
86650737485872,2.268452,-0.35720527,9.685053
86650757343537,1.6618237,-1.7649759,10.695006
86650777201074,0.77215934,-1.9415894,10.394907
86650797058739,-0.81836987,-0.66769475,9.820797
86650816918468,-1.5449975,1.308763,11.928673
86650836776126,-0.089401335,0.42080492,13.877137
86650856633790,1.6832108,-0.016301785,12.433103
86650876491454,1.338593,0.91018623,9.173877
86650896349118,0.02671708,0.2844207,6.391869
86650916206434,-0.7189982,0.117314056,7.050116
86650936064098,-0.6391362,-0.68234736,9.712826
86650955921762,0.751003,-0.75701624,10.165219
86650975779298,0.5705561,0.18229623,9.545314
86650995636962,-0.32981345,1.2605115,9.572043
86651015498496,-1.4563172,1.274565,9.670443
86651035356160,-1.8205632,0.33843303,10.863994
86651055214948,0.7523256,1.1051731,10.44937
86651075072612,1.8205829,1.5610014,10.19536
86651094930148,1.1876006,0.28658256,10.433915
86651114785811,-0.32490692,0.220239,9.401709
86651134643475,-1.1168488,0.5819539,8.768652
86651154501011,-0.8413036,1.1496397,8.196826
86651174358675,-0.36461484,0.7604915,8.053454
86651194216212,0.12120942,0.2455423,8.470059
86651214074375,0.44385892,0.72445285,9.189191
86651233931912,0.6085869,1.1116071,9.461927
86651253789449,0.6821811,1.1914176,9.695564
86651273647110,0.84049815,0.55655736,10.886211
86651293504646,-0.19975303,-2.8708498,12.90357
86651313366709,-1.5329324,-5.2031546,12.223066
86651333224373,-0.09838357,-0.35344145,9.202121
86651353082037,2.62446,4.053389,7.308398
86651372939701,2.892364,4.5107775,7.544184
86651392797237,-0.08825402,3.0703306,9.251853
86651412654188,-1.4506603,-0.5441288,9.7462
86651432511853,-3.3999097,-4.5944123,9.656012
86651452369518,-3.9000082,-3.8647506,9.258142
86651472227183,-2.8566802,-0.044765297,9.2619705
86651492084848,-2.2746994,0.7703223,10.501361
86651511948747,-1.6406837,-0.9880915,10.882035
86651531806540,-0.099216454,-1.3648003,10.0260105
86651551664333,1.5640407,-0.69677216,9.531817
86651571522126,2.0371737,-0.006941798,10.094402
86651591380047,1.3453124,0.31783098,10.462269
86651611235672,0.5739294,0.35366383,9.594739
86651631093593,-0.3144219,-1.144666,9.578124
86651650951386,-0.070218615,-0.9857613,11.724297
86651670809179,1.1054405,1.039284,11.29992
86651690666972,1.5364121,-2.3927605,10.771589
86651710523991,1.3921437,-3.9542775,10.793021
86651730381784,0.87399584,-2.6952314,9.675708
86651750239577,-0.013709905,-1.4943947,9.744635
86651770097370,-0.81368905,-0.25584334,9.91
86651789955163,-2.0387206,-0.12773998,9.420301
86651809809610,-3.1528056,-0.27382278,9.07621
86651829667403,-1.657951,0.16514209,9.227227
86651849525047,-0.33653408,-0.9034418,9.750444
86651869382711,0.5365199,-1.7150196,9.8768215
86651889240503,1.1756442,-0.90278137,9.581327
86651909099801,0.9750561,0.043085326,9.644208
86651928957593,1.3141354,1.1561673,9.888876
86651948815385,2.236968,1.7092706,9.750389
86651968673305,2.339842,0.9541744,9.456041
86651988531097,2.059042,-0.22895648,9.681936
86652008391681,1.8774132,0.3061268,9.884798
86652028249601,1.5401871,0.89163995,9.875513
86652048107521,0.7805968,1.1046464,10.261058
86652067965313,0.34760815,0.54058576,10.53887
86652087823233,-0.32587954,-0.5178004,10.515774
86652107679528,-0.9954929,-0.68193245,9.911976
86652127537320,-1.4141618,-0.7763673,9.2607765
86652147395240,-1.8223605,-0.19804966,9.319428
86652167253032,-1.7888447,-0.35190386,9.758966
86652187110952,-1.5050364,-0.96022075,10.160552
86652206968980,-0.9898469,-0.7055546,10.358224
86652226826772,-0.21744727,0.0151980985,10.380616
86652246684693,0.18012723,0.56636477,10.3510065
86652266542486,-0.04818642,0.5388246,10.124957
86652286400276,-0.48109734,0.053893242,10.077798
86652306264602,-0.6034906,-0.45306277,10.230946
86652326122522,-0.6863864,-0.6693345,10.593329
86652345980314,-1.0976111,-0.6918623,10.531161
86652365838234,-1.3118567,-0.37450132,9.984328
86652385696154,-1.1660868,0.019350037,9.326829
86652405552396,-1.4407108,0.18168053,9.003405
86652425410317,-1.1479621,-0.090364024,9.438391
86652445268110,-0.899034,-0.7431315,9.989171
86652465126031,-0.84541076,-1.3861033,9.89063
86652484983824,-0.3200575,-1.9304067,9.504064
86652504843901,1.1884938,-0.58822525,9.767348
86652524701822,2.174004,1.3277061,9.635316
86652544559743,0.98238385,1.9252899,9.017942
86652564417664,-1.1733973,0.4438336,9.107878
86652584275457,-2.859651,-1.7453262,9.502198
86652604130998,-2.8831034,-1.5405499,9.482059
86652623988919,-1.5852947,0.11088435,9.542491
86652643846840,-0.7319662,0.6891256,10.4123335
86652663704633,-0.20655988,0.14953282,10.78963
86652683562554,0.010013962,-0.340088,10.788586
86652703423121,0.34164402,-0.9077887,10.4344225
86652723281042,0.55213606,-1.4430972,10.065919
86652743138963,0.604211,-0.4917962,9.854023
86652762996884,0.4208333,0.3177746,9.652937
86652782854805,-0.14133841,0.25286433,9.505171
86652802713778,-0.613836,0.13552287,9.462673
86652822571827,-0.8057422,-0.033857636,9.661994
86652842429730,-0.6250421,0.020618714,9.836622
86652862287650,-0.459664,-0.2026063,10.179713
86652882145698,-0.3158162,-0.30405727,10.468413
86652902003618,-0.028081201,-0.055182725,10.3442545
86652921865951,0.15211855,0.20712918,10.137308
86652941724127,0.12530209,0.2179958,9.716336
86652961582175,0.011949369,0.050349876,9.392297
86652981440351,-0.09072257,-0.06474282,9.433927
86653001298399,-0.16883704,0.0061944006,9.844193
86653021149835,-0.14006326,0.056664042,10.031053
86653041007755,0.06407853,-0.061825402,10.196235
86653060863465,0.11487187,-0.1255733,10.116702
86653080721513,0.026077228,-0.103486806,9.931747
86653100579433,-0.017991822,-0.018923132,9.9580345
86653120437591,-0.030168572,0.019238673,9.786545
86653140295511,0.067782655,0.055679414,9.776536
86653160153559,0.08302134,-0.03629596,9.883622
86653180011607,0.026616305,-0.07209003,9.956796
86653199869655,-0.056096848,-0.06465396,10.202738
86653219719932,-0.119754456,-0.018006604,10.2636385
86653239577724,-0.16118379,-0.05059352,10.142034
86653259435644,-0.054107863,-0.120896526,10.023534
86653279293437,-0.005506349,-0.023759129,9.845248
86653299151228,-0.095656775,0.15267111,9.7257805
86653319009410,-0.24007857,0.25275263,9.725117
86653338867330,-0.32756332,0.18695095,9.825486
86653358725122,-0.1151562,0.116372086,9.799442
86653378582914,0.13646142,0.09986641,9.98448
86653398440834,0.19511326,0.052646406,10.078987
86653418294558,0.15780444,0.011614521,10.05782
86653438152223,0.11805757,-4.790009E-4,9.963101
86653458010016,0.047587648,-0.115016855,9.741382
86653477867681,0.105845384,-0.13513215,9.68123
86653497725474,0.114544846,-0.11520817,9.629496
86653517586831,0.069745496,-0.07979548,9.622517
86653537444496,0.117315605,-0.13557969,9.767252
86653557302289,0.2368156,-0.22224994,9.90997
86653577159954,0.3569443,-0.21336518,10.002557
86653597017747,0.30808288,-0.16145904,9.876844
86653616872386,0.15587412,-0.119124815,9.678843
86653636730051,0.026257692,-0.07769092,9.626327
86653656587716,-0.076027535,-0.101442546,9.709523
86653676445381,-0.120291784,-0.16776556,9.846178
86653696303046,-0.10304136,-0.19787578,10.001024
86653716164257,-0.00732929,-0.12508123,9.964769
86653736022050,0.06427276,-0.011084537,9.94221
86653755879715,0.086454466,0.037572023,9.8658905
86653775737508,0.15290827,0.060104873,9.749254
86653795595173,0.122713044,0.033600345,9.681192
86653815457184,0.050054293,0.046401855,9.666808
86653835314977,0.099667504,0.13447613,9.768943
86653855172751,0.060764827,0.042589236,9.781851
86653875030543,0.07780066,0.0025043283,9.8063
86653894888335,0.09052717,0.008434994,9.805514
86653914751923,0.14528644,0.19491926,9.894826
86653934609843,-0.012045177,0.14039709,9.843122
86653954467891,-0.11806839,0.02883503,9.667396
86653974325811,-0.10226188,0.038142376,9.562356
86653994183731,-0.0055659125,0.13435729,9.734493
86654014046296,0.03170357,0.09120693,9.918473
86654033904344,0.013078962,-0.079898104,9.902293
86654053762392,0.09968875,-0.085187234,9.81869
86654073620568,0.09548797,0.09632803,9.763803
86654093478616,-0.0044299783,0.16276525,9.685287
86654113332873,-0.13593186,0.09000311,9.708491
86654133190793,-0.245375,0.015282239,9.711472
86654153048841,-0.18037474,0.034058508,9.722099
86654172906889,-0.07961103,0.12801546,9.76004
86654192764937,-0.09897497,0.14264326,9.8296385
86654212619074,-0.07621981,0.062727116,9.89292
86654232476994,-0.029228186,0.024412075,9.841405
86654252334914,0.011126759,0.08226036,9.733716
86654272192835,-0.009794294,0.18790916,9.696471
86654292050756,-0.08005723,0.17511573,9.754783
86654311912395,-0.07042278,0.10747213,9.815001
86654331770440,-0.08433444,-0.048683412,9.844162
86654351628488,-0.079628035,-0.028608778,9.812853
86654371486408,-0.05931432,0.0689497,9.7828
86654391344456,-0.024439847,0.07739609,9.714446
86654411201446,0.0048816414,0.020904347,9.692654
86654431059494,0.030954704,-0.028297672,9.6324415
86654450917543,0.067522965,0.05898227,9.634626
86654470775464,0.043477017,0.04658722,9.755151
86654490633513,0.058473058,0.044996664,9.851262
86654510487646,1.1257189E-4,0.013257263,9.822361
86654530345567,-0.013582823,0.07146598,9.802961
86654550203616,-0.021045523,0.052872933,9.785853
86654570061537,-0.0015446955,-0.0019693666,9.752121
86654589919586,-0.082595006,-0.13477051,9.676985
86654609771709,-0.0889623,-0.017314186,9.685891
86654629629630,-0.11177027,0.044930533,9.786449
86654649487423,-0.07713922,-0.02285142,9.9586735
86654669345344,-0.065521345,-0.067669965,9.926874
86654689203137,-0.13268377,-0.06935445,9.747773
86654709060948,-0.14901994,-0.042586207,9.658079
86654728918741,-0.12388827,-0.01706099,9.714262
86654748776662,-0.17306559,-0.07696029,9.68782
86654768634455,-0.18791226,-0.166352,9.710979
86654788492248,-0.093452185,-0.11112373,9.783097
86654808350151,-0.10171832,-0.016626295,9.924567
86654828204471,-0.20334838,-0.1567411,10.085678
86654848062263,-0.18594058,-0.2991466,9.975212
86654867919927,-0.082535535,-0.21218726,9.664375
86654887777719,-0.08736992,-0.01804181,9.664677
86654907635383,-0.1575857,-0.009101474,9.62074
86654927490455,-0.17332421,-0.13051555,9.549801
86654947348119,-0.07576417,-0.123149924,9.592546
86654967205783,-0.038179815,-0.08056255,9.86965
86654987063447,0.050666213,-0.080538504,10.064687
86655006920983,0.12377155,-0.12892653,9.931343
86655026779971,0.07640661,-0.08677958,9.769907
86655046637635,0.007887443,-0.10711685,9.743524
86655066497733,-0.022619853,-0.22209528,9.71563
86655086355397,-0.024146963,-0.32861584,9.677666
86655106213061,-0.004711896,-0.22601001,9.639531
86655126073395,0.032194473,-0.07732826,9.704132
86655145931187,0.1277133,-0.1015919,9.790166
86655165788851,0.116127215,-0.08100087,9.853667
86655185646516,0.009462104,-0.100355074,9.849366
86655205504309,-0.09351307,-0.093446344,9.848761
86655225358560,-0.101285025,-0.07399407,9.687181
86655245216222,-0.102900684,-0.042743582,9.608099
86655265073758,-0.10204075,-0.005745223,9.640074
86655284931294,-0.11028519,-0.029195232,9.778675
86655304788958,-0.033282474,-0.03675614,9.851783
86655324646646,0.03931762,-0.020222705,9.860757
86655344504182,-0.008377483,0.08011445,9.856505
86655364361847,0.004616096,-0.010691114,9.866106
86655384219384,0.099217586,-0.036912683,9.769088
86655404077049,0.02323159,0.027981699,9.614016
86655423934120,-0.08805528,-0.049617518,9.652645
86655443791657,-0.08345959,-0.030887574,9.78533
86655463649322,-0.07027252,-0.0013302147,9.773999
86655483506859,-0.08106515,-0.016590206,9.842628
86655503364524,-0.06288773,0.009384925,9.944205
86655523224473,-0.046855718,-0.04862043,9.882928
86655543082138,-0.034592494,-0.021966118,9.801184
86655562939803,-0.10004973,0.05441361,9.717186
86655582797468,-0.19779211,0.07861207,9.669083
86655602655133,-0.15251465,0.029829534,9.714001
86655622518246,-0.053390674,-0.03502759,9.810033
