UPTIMENANO,Ax,Ay,Az
81930064273496,-1.2549903,9.364527,-1.1879296999999998
81930084129623,-1.3028906999999998,9.534574000000001,-1.1999048
81930103983564,-1.2981006000000002,9.627979,-1.0873389
81930123839821,-1.2334352,9.7142,-1.0609937
81930143696076,-1.1711646,9.70941,-1.2430152
81930163552333,-1.1903248,9.6686945,-1.3436059999999999
81930183408590,-1.22146,9.697434,-1.0801538
81930203259237,-1.2166698999999999,9.575289,-1.0753639
81930223115237,-1.2837305,9.601633999999999,-1.0729688
81930242971238,-1.2406201000000001,9.702225,-1.1160791
81930262827365,-1.1735597,9.6758795,-1.1975098
81930282683571,-1.2166698999999999,9.75731,-1.1184741000000002
81930302539700,-1.1687696,9.73815,-1.1041040000000002
81930322395701,-1.1520045,9.580078,-1.096919
81930342251702,-1.1999048,9.532178,-1.0777588
81930362107831,-1.2334352,9.702225,-1.0466236
81930381963832,-1.1783496,9.72378,-0.974773
81930401815899,-1.1496094,9.678274,-1.0226734
81930421671772,-1.1903248,9.630374,-1.2454101999999998
81930441527773,-1.2046948999999998,9.630374,-1.1136841999999998
81930461383774,-1.2621753,9.546548,-1.0418334999999999
81930481239647,-1.2669654,9.618399,-0.97956306
81930501082598,-1.2597803,9.685459,-1.0538087
81930520938343,-1.22625,9.857901,-1.0274634
81930540793960,-1.2022998,9.77647,-1.0202783000000002
81930560649705,-1.223855,9.654325,-1.0825489
81930580495722,-1.1759547,9.592053,-0.9388476999999998
81930600351211,-1.1591895,9.491463000000001,-1.096919
81930620206700,-1.22146,9.5489435,-1.0370435
81930640062061,-1.3004956,9.704619000000001,-0.91729254
81930659917550,-1.22625,9.848321,-0.9915381
81930679773039,-1.1352394,9.877061,-1.0490186000000001
81930699618244,-1.0921290000000001,9.683064,-1.2166698999999999
81930719473349,-1.214275,9.580078,-1.1735597
81930739328561,-1.2118799999999998,9.541758999999999,-1.0298585
81930759183793,-1.2573853000000002,9.472302,-1.0250684
81930779039026,-1.2981006000000002,9.649534,-1.0633887
81930798893732,-1.223855,9.692644,-1.0921290000000001
81930818748836,-1.1807446000000001,9.68067,-1.0633887
81930838603813,-1.1807446000000001,9.735755000000001,-1.0825489
81930858458916,-1.1567944,9.707015,-1.1160791
81930878314020,-1.2022998,9.623189,-1.0035132
81930898169125,-1.2549903,9.575289,-1.0394385
81930918025813,-1.2382251,9.572892999999999,-1.0514137
81930937881045,-1.1687696,9.802814999999999,-0.9148975
81930957736150,-1.1232642,9.68067,-1.0657837
81930977591253,-1.2310401000000002,9.616004,-1.0657837
81930997447363,-1.1735597,9.642349000000001,-1.0562036
81931017302596,-1.1520045,9.611214,-1.0059083
81931037157699,-1.214275,9.644744000000001,-0.9388476999999998
81931057012803,-1.2022998,9.711803999999999,-0.98914313
81931076867908,-1.1999048,9.807606,-1.0322535
81931096723139,-1.1639795,9.745335,-1.0106983
81931116585917,-1.1855347,9.580078,-1.0657837
81931136441150,-1.2621753,9.611214,-0.9244776
81931156296509,-1.2525953,9.551338000000001,-0.95561284
81931176151741,-1.2957056999999998,9.639954,-0.9148975
81931196007102,-1.214275,9.6686945,-0.9915381
81931215847406,-1.1783496,9.745335,-1.0298585
81931235702382,-1.1424243,9.690249,-0.98435307
81931255557231,-1.1280543,9.651928999999999,-0.90771246
81931275412206,-1.2454101999999998,9.627979,-1.0633887
81931295268813,-1.1927198,9.697434,-0.90052736
81931315123790,-1.2334352,9.611214,-0.9364527
81931334978767,-1.22625,9.68067,-1.0059083
81931354833744,-1.2382251,9.699829,-1.0346485
81931374688721,-1.1448194,9.70941,-0.9627979
81931394543826,-1.1208692,9.522598,-0.96758795
81931414403575,-1.1543995,9.517808,-1.0777588
81931434258680,-1.219065,9.711803999999999,-0.9508228000000001
81931454113785,-1.1999048,9.74773,-0.98435307
81931473968890,-1.22146,9.802814999999999,-0.9364527
81931493823995,-1.1831397,9.704619000000001,-1.0466236
81931513687710,-1.1112891000000003,9.544153,-1.0609937
81931533542943,-1.1855347,9.575289,-0.96758795
81931553398176,-1.1807446000000001,9.5633135,-1.0083033000000001
81931573253409,-1.2406201000000001,9.685459,-0.9316626
81931593112008,-1.1663746000000002,9.793235000000001,-0.9484278
81931612967241,-1.0849438999999999,9.690249,-1.1232642
81931632822602,-1.1735597,9.697434,-1.1136841999999998
81931652677963,-1.1903248,9.673484,-1.0585986
81931672533196,-1.2382251,9.520203,-0.97956306
81931692388557,-1.3220508,9.5561285,-1.0106983
81931712254698,-1.2909156000000002,9.666299,-1.0729688
81931732110187,-1.2502003000000002,9.72857,-1.0825489
81931751965654,-1.1783496,9.730965,-1.0394385
81931771821142,-1.1615845,9.718989,-1.2022998
81931791676631,-1.2406201000000001,9.702225,-1.0609937
81931811537611,-1.2621753,9.568104,-0.9508228000000001
81931831393355,-1.2645704,9.544153,-1.1136841999999998
81931851249100,-1.2525953,9.635164,-1.1639795
81931871104715,-1.2166698999999999,9.73815,-1.1591895
81931890973296,-1.1903248,9.788445,-1.0394385
81931910829297,-1.1951148999999999,9.656719,-1.1711646
81931930685296,-1.2166698999999999,9.644744000000001,-1.1759547
81931950541296,-1.1831397,9.410032000000001,-1.2046948999999998
81931970397297,-1.2909156000000002,9.508227999999999,-1.096919
81931990253424,-1.3268408999999999,9.683064,-1.0178833
81932010114597,-1.223855,9.718989,-1.2286451
81932029970854,-1.1735597,9.778865,-1.1567944
81932049826981,-1.1064991000000002,9.740545,-1.2382251
81932069683237,-1.0873389,9.656719,-1.0562036
81932089539494,-1.2070899,9.536968,-1.1208692
81932109391790,-1.2525953,9.453142,-1.1256591999999999
81932129247918,-1.2885206,9.565708,-1.1759547
81932149104047,-1.1448194,9.718989,-1.0466236
81932168960174,-1.1280543,9.788445,-1.1831397
81932188816303,-1.1400293,9.742939999999999,-1.1975098
81932208672432,-1.1496094,9.618399,-1.2022998
81932228533733,-1.2022998,9.604028999999999,-1.1280543
81932248389989,-1.2669654,9.596844,-1.0490186000000001
81932268246118,-1.2669654,9.594449000000001,-1.0753639
81932288102373,-1.2909156000000002,9.77647,-1.0011181999999998
81932307956471,-1.096919,9.707015,-1.1807446000000001
81932327812600,-1.101709,9.6758795,-1.2046948999999998
81932347668727,-1.1328443000000001,9.699829,-1.1783496
81932367524984,-1.2022998,9.616004,-1.1831397
81932387381113,-1.22625,9.659114,-1.0418334999999999
81932407239508,-1.1783496,9.635164,-1.22625
81932427095765,-1.22146,9.6615095,-1.2573853000000002
81932446952022,-1.1711646,9.742939999999999,-1.0825489
81932466808279,-1.1088941,9.663903999999999,-1.2909156000000002
81932486664664,-1.1735597,9.663903999999999,-1.2166698999999999
81932506520921,-1.1903248,9.604028999999999,-1.2502003000000002
81932526377494,-1.1807446000000001,9.616004,-1.1783496
81932546233879,-1.1903248,9.613608000000001,-1.2502003000000002
81932566090136,-1.1759547,9.620794,-1.219065
81932585946521,-1.214275,9.697434,-1.2621753
81932605796220,-1.101709,9.64714,-1.2022998
81932625652477,-1.1041040000000002,9.642349000000001,-1.2166698999999999
81932645508734,-1.089734,9.642349000000001,-1.2406201000000001
81932665364991,-1.1352394,9.592053,-1.2166698999999999
81932685221120,-1.1711646,9.692644,-1.1496094
81932705072619,-1.1496094,9.716595,-1.223855
81932724928748,-1.1615845,9.754914999999999,-1.1903248
81932744785005,-1.1184741000000002,9.718989,-1.1304493
81932764641244,-1.101709,9.465117,-1.2478052
81932784497372,-1.1543995,9.496253,-1.2286451
81932804353629,-1.1783496,9.690249,-1.2334352
81932824192557,-1.1160791,9.70941,-1.1184741000000002
81932844048301,-1.1184741000000002,9.79084,-1.1567944
81932863904046,-1.0681788,9.656719,-1.3076807
81932883759789,-1.1400293,9.692644,-1.1567944
81932903612809,-1.1615845,9.5561285,-1.0633887
81932923468426,-1.1807446000000001,9.505833,-1.1041040000000002
81932943324041,-1.1879296999999998,9.702225,-1.0825489
81932963179657,-1.1041040000000002,9.745335,-1.0250684
81932983035402,-1.099314,9.783655,-1.0921290000000001
81933002888787,-1.101709,9.718989,-1.1136841999999998
81933022744275,-1.0442286,9.618399,-1.1400293
81933042599764,-1.1232642,9.589659,-1.1041040000000002
81933062455379,-1.2454101999999998,9.568104,-1.0825489
81933082310867,-1.2741505,9.730965,-1.0609937
81933102166356,-1.1639795,9.699829,-1.1256591999999999
81933122019255,-1.1280543,9.6615095,-1.1615845
81933141874742,-1.1352394,9.673484,-1.1711646
81933161730231,-1.1472143999999997,9.635164,-1.096919
81933181585718,-1.1735597,9.594449000000001,-1.0753639
81933201444717,-1.1759547,9.560919,-1.0825489
81933221300206,-1.1615845,9.692644,-1.1208692
81933241155693,-1.1160791,9.778865,-1.1064991000000002
81933261011182,-1.1112891000000003,9.685459,-1.0681788
81933280866671,-1.1184741000000002,9.687855,-1.1136841999999998
81933300722032,-1.0849438999999999,9.5633135,-1.1472143999999997
81933320578671,-1.219065,9.541758999999999,-1.099314
81933340434160,-1.2789403999999998,9.649534,-1.0514137
81933360289643,-1.1807446000000001,9.592053,-1.1472143999999997
81933380145131,-1.22146,9.766891000000001,-1.096919
81933400000620,-1.1567944,9.75731,-1.1903248
81933419854577,-1.1735597,9.632769,-1.1088941
81933439709937,-1.1831397,9.608819,-1.0130934
81933459565426,-1.1975098,9.484278,-1.2286451
81933479420785,-1.2885206,9.580078,-1.0106983
81933499286781,-1.2118799999999998,9.75731,-1.0538087
81933519142398,-1.1567944,9.7812605,-1.1879296999999998
81933538998141,-1.2070899,9.800421,-1.1328443000000001
81933558853757,-1.1472143999999997,9.508227999999999,-1.1112891000000003
81933578709374,-1.219065,9.390872,-1.1232642
81933598565117,-1.2717555,9.553733,-1.0873389
81933618423372,-1.2861254999999998,9.740545,-1.1567944
81933638279117,-1.2933106,9.896221,-1.0801538
81933658134860,-1.214275,9.80521,-1.1184741000000002
81933677990476,-1.1328443000000001,9.68067,-1.22146
81933697846221,-1.1951148999999999,9.539363,-1.0705738
81933717701134,-1.2765454,9.419611999999999,-1.1280543
81933737556878,-1.4082716,9.592053,-0.9699829
81933757412495,-1.3891114,9.70941,-1.1088941
81933777268238,-1.2525953,9.764495,-1.1591895
81933797125323,-1.1400293,9.793235000000001,-1.2549903
81933816981068,-1.0657837,9.68067,-1.1543995
81933836836811,-1.1232642,9.532178,-1.0202783000000002
81933856692683,-1.22625,9.479486999999999,-0.9963281999999999
81933876548428,-1.3028906999999998,9.541758999999999,-1.1639795
81933896404171,-1.2454101999999998,9.678274,-1.0849438999999999
81933916258166,-1.1951148999999999,9.754914999999999,-1.1615845
81933936113911,-1.0729688,9.800421,-1.1687696
81933955969654,-1.1184741000000002,9.77168,-1.22625
81933975825526,-1.1975098,9.7142,-1.1711646
81933995681271,-1.3100758,9.64714,-1.0442286
81934015540129,-1.2454101999999998,9.544153,-1.1136841999999998
81934035393794,-1.2693603999999998,9.630374,-1.1136841999999998
81934055249667,-1.1759547,9.553733,-1.2454101999999998
81934075105538,-1.1759547,9.568104,-1.1160791
81934094966690,-1.1783496,9.6758795,-1.1520045
81934114822691,-1.1328443000000001,9.637559,-1.2094848999999999
81934134678818,-1.1855347,9.6758795,-1.2070899
81934154534818,-1.2094848999999999,9.673484,-1.1208692
81934174390819,-1.2166698999999999,9.685459,-1.2022998
81934194246818,-1.2118799999999998,9.829161000000001,-1.0705738
81934214101130,-1.1639795,9.721385,-1.2358301999999999
81934233957131,-1.22146,9.625584,-1.2046948999999998
81934253813132,-1.2310401000000002,9.580078,-1.1256591999999999
81934273669130,-1.1951148999999999,9.493857,-1.2070899
81934293525131,-1.2406201000000001,9.582474000000001,-1.101709
81934313376002,-1.2046948999999998,9.666299,-1.1424243
81934333231874,-1.2094848999999999,9.7812605,-1.2502003000000002
81934353087875,-1.2334352,9.855506,-1.1879296999999998
81934372943746,-1.1999048,9.639954,-1.1759547
81934392799619,-1.1687696,9.457932000000001,-1.1328443000000001
81934412655492,-1.1975098,9.460327000000001,-1.089734
81934432509895,-1.2502003000000002,9.601633999999999,-1.1520045
81934452365768,-1.2454101999999998,9.788445,-1.0346485
81934472221513,-1.1711646,9.75731,-1.214275
81934492077258,-1.1088941,9.802814999999999,-1.2118799999999998
81934511927249,-1.1064991000000002,9.695039999999999,-1.1280543
81934531782994,-1.1448194,9.575289,-1.1041040000000002
81934551638611,-1.3196558,9.606423,-0.977168
81934571494356,-1.2382251,9.618399,-1.1687696
81934591349973,-1.2430152,9.730965,-1.0921290000000001
81934611202782,-1.1064991000000002,9.64714,-1.2166698999999999
81934631058527,-1.1567944,9.587264,-1.1112891000000003
81934650914144,-1.1041040000000002,9.577683,-1.0633887
81934670769761,-1.1496094,9.534574000000001,-1.1064991000000002
81934690625378,-1.2382251,9.649534,-1.1232642
81934710480995,-1.223855,9.778865,-1.1496094
81934730331382,-1.1543995,9.872271000000001,-1.1088941
81934750186853,-1.1041040000000002,9.800421,-1.0705738
81934770042342,-1.1160791,9.604028999999999,-1.1496094
81934789897829,-1.1687696,9.5561285,-1.0538087
81934809745924,-1.1543995,9.565708,-1.0585986
81934829601285,-1.2166698999999999,9.529783,-1.096919
81934849456644,-1.2525953,9.702225,-1.0921290000000001
81934869312004,-1.101709,9.778865,-1.1472143999999997
81934889167237,-1.0609937,9.798025,-0.9987232
81934909024808,-1.0705738,9.733359,-1.1208692
81934928880168,-1.1352394,9.587264,-1.1496094
81934948735529,-1.2430152,9.601633999999999,-0.94603276
81934968590888,-1.2957056999999998,9.491463000000001,-1.0657837
81934988446248,-1.2621753,9.536968,-1.0490186000000001
81935008301481,-1.1520045,9.74773,-0.98914313
81935028162795,-0.9867481,9.766891000000001,-1.0562036
81935048018155,-1.1160791,9.850716,-1.0106983
81935067873644,-1.1041040000000002,9.666299,-1.0825489
81935087729003,-1.1543995,9.606423,-0.9963281999999999
81935107582364,-1.1639795,9.582474000000001,-0.97956306
81935127437725,-1.1927198,9.587264,-1.0394385
81935147293212,-1.1759547,9.769285,-0.9244776
81935167148572,-1.1184741000000002,9.795630000000001,-1.0514137
81935187004061,-1.1256591999999999,9.639954,-1.0370435
81935206863071,-1.1280543,9.474698,-1.0538087
81935226718687,-1.1903248,9.524992999999998,-1.089734
81935246574176,-1.2669654,9.73815,-0.9436377
81935266429663,-1.1951148999999999,9.766891000000001,-0.9364527
81935286285151,-1.214275,9.7621,-1.1088941
81935306140640,-1.1615845,9.72378,-1.1831397
81935325998035,-1.1591895,9.599238,-1.0394385
81935345853651,-1.2406201000000001,9.513017999999999,-0.98435307
81935365709140,-1.2957056999999998,9.546548,-1.0154883
81935385564757,-1.2885206,9.639954,-1.0514137
81935405419326,-1.2166698999999999,9.70941,-1.0394385
81935425274815,-1.22625,9.72857,-1.1520045
81935445130299,-1.22146,9.75731,-1.0466236
81935464985787,-1.1496094,9.539363,-1.0035132
81935484841276,-1.3028906999999998,9.503438000000001,-1.0873389
81935504696763,-1.346001,9.639954,-1.0753639
81935524554567,-1.3124708,9.625584,-1.0370435
81935544410056,-1.2981006000000002,9.673484,-1.0202783000000002
81935564265543,-1.219065,9.711803999999999,-1.1927198
81935584121031,-1.22625,9.733359,-1.0346485
81935603976520,-1.2478052,9.611214,-0.9627979
81935623836560,-1.22146,9.496253,-1.0777588
81935643692176,-1.2765454,9.584868,-0.977168
81935663547793,-1.2022998,9.683064,-1.0538087
81935683403408,-1.2286451,9.697434,-1.1759547
81935703267381,-1.3100758,9.798025,-1.0442286
81935723123254,-1.2406201000000001,9.74773,-0.98435307
81935742978997,-1.2549903,9.572892999999999,-1.0106983
81935762834869,-1.2717555,9.529783,-1.1160791
81935782690614,-1.2669654,9.580078,-1.1951148999999999
81935802546485,-1.2525953,9.685459,-1.0753639
81935822403241,-1.2502003000000002,9.697434,-1.0657837
81935842259114,-1.2693603999999998,9.683064,-1.1687696
81935862114985,-1.2525953,9.68067,-1.101709
81935881970857,-1.2549903,9.601633999999999,-1.0418334999999999
81935901826730,-1.2861254999999998,9.544153,-1.099314
81935921685176,-1.3148658000000002,9.539363,-1.0801538
81935941541048,-1.2885206,9.711803999999999,-1.0514137
81935961397049,-1.22146,9.817185,-1.0705738
81935981252920,-1.2454101999999998,9.7740755,-1.1112891000000003
81936001115077,-1.2166698999999999,9.656719,-1.1567944
81936020971206,-1.2549903,9.503438000000001,-1.1424243
81936040823232,-1.3028906999999998,9.558523,-0.98914313
81936060679360,-1.2813355,9.632769,-1.0370435
81936080535489,-1.2525953,9.70941,-1.1448194
81936100391616,-1.22625,9.745335,-1.096919
81936120239760,-1.1136841999999998,9.644744000000001,-1.1591895
81936140095761,-1.1759547,9.560919,-1.0657837
81936159951760,-1.2454101999999998,9.575289,-1.0394385
81936179807632,-1.2046948999999998,9.582474000000001,-1.0083033000000001
81936199663633,-1.2765454,9.7740755,-1.0777588
81936219516793,-1.223855,9.754914999999999,-1.0657837
81936239372665,-1.1879296999999998,9.6686945,-1.214275
81936259228666,-1.0801538,9.374106,-1.0490186000000001
81936279084665,-1.1448194,9.285491,-1.1591895
81936298934037,-1.3531861,9.891430999999999,-1.0226734
81936318789782,-1.1711646,10.001602,-1.0585986
81936338645655,-1.1831397,9.77168,-0.9987232
81936358501397,-1.1615845,9.673484,-1.334026
81936378357270,-1.1232642,9.690249,-1.2502003000000002
81936398213013,-1.1376343,9.649534,-0.73527104
81936418063454,-1.2166698999999999,9.381292,-1.0849438999999999
81936437919071,-1.2957056999999998,9.503438000000001,-1.2981006000000002
81936457774558,-1.2166698999999999,9.865086,-1.0011181999999998
81936477630174,-1.0753639,9.795630000000001,-1.0059083
81936497485791,-1.1591895,9.704619000000001,-1.2549903
81936517337670,-1.1639795,9.702225,-1.1759547
81936537193287,-1.1735597,9.697434,-1.101709
81936557048776,-1.2741505,9.544153,-1.0106983
81936576904393,-1.346001,9.433982,-1.2022998
81936596759882,-1.2909156000000002,9.584868,-1.1543995
81936616615499,-1.1472143999999997,9.699829,-1.1376343
81936636460608,-1.1759547,9.726174,-1.2933106
81936656315969,-1.2621753,9.807606,-1.1879296999999998
81936676171330,-1.1927198,9.745335,-1.1352394
81936696026819,-1.2286451,9.604028999999999,-1.0849438999999999
81936715875384,-1.2885206,9.472302,-1.1831397
81936735730489,-1.3388159,9.517808,-1.0825489
81936755585708,-1.2717555,9.678274,-1.0274634
81936775440812,-1.1496094,9.707015,-1.2286451
81936795296045,-1.1448194,9.730965,-1.2525953
81936815151765,-1.099314,9.695039999999999,-1.0825489
81936835006869,-1.1376343,9.572892999999999,-1.1041040000000002
81936854861974,-1.2621753,9.582474000000001,-1.0681788
81936874717205,-1.2549903,9.611214,-1.1496094
81936894572309,-1.2358301999999999,9.802814999999999,-1.0250684
81936914427542,-1.1041040000000002,9.74773,-1.1160791
81936934289198,-1.0633887,9.654325,-1.1041040000000002
81936954144430,-1.1735597,9.637559,-1.1328443000000001
81936973999663,-1.1472143999999997,9.575289,-1.101709
81936993854894,-1.214275,9.596844,-1.0490186000000001
81937013712969,-1.1711646,9.659114,-1.096919
81937033568202,-1.1639795,9.683064,-1.1543995
81937053423433,-1.096919,9.766891000000001,-1.1160791
81937073278665,-1.1567944,9.695039999999999,-1.1400293
81937093133898,-1.2118799999999998,9.594449000000001,-1.1975098
81937112991183,-1.2070899,9.666299,-0.98914313
81937132846543,-1.1639795,9.613608000000001,-1.1879296999999998
81937152701776,-1.2334352,9.589659,-1.1831397
81937172557007,-1.1615845,9.673484,-1.094524
81937192412239,-1.1088941,9.6758795,-1.1615845
81937212267600,-1.1496094,9.704619000000001,-1.0873389
81937232127116,-1.1639795,9.616004,-1.219065
81937251982348,-1.2310401000000002,9.695039999999999,-1.0394385
81937271837709,-1.1400293,9.6686945,-1.0825489
81937291693068,-1.1543995,9.6758795,-1.1831397
81937311553345,-1.1424243,9.642349000000001,-1.1855347
81937331408834,-1.1448194,9.601633999999999,-1.1352394
81937351264321,-1.1735597,9.695039999999999,-0.97956306
81937371119810,-1.089734,9.568104,-1.2022998
81937390975299,-1.2046948999999998,9.613608000000001,-1.1280543
81937410836060,-1.2166698999999999,9.754914999999999,-1.1735597
81937430691677,-1.1615845,9.77647,-1.0562036
81937450547294,-1.1687696,9.745335,-1.099314
81937470402911,-1.1280543,9.68067,-1.1567944
81937490258528,-1.1951148999999999,9.570497999999999,-1.1496094
81937510114145,-1.22625,9.541758999999999,-1.0442286
81937529972906,-1.2070899,9.453142,-1.1735597
81937549828651,-1.1783496,9.596844,-1.101709
81937569684396,-1.1472143999999997,9.783655,-1.0633887
81937589540013,-1.1400293,9.879456,-1.22146
81937609401486,-1.1951148999999999,9.953702,-1.0370435
81937629257359,-1.1208692,9.6615095,-1.096919
81937649113232,-1.1711646,9.393267,-1.099314
81937668969105,-1.2765454,9.505833,-1.0442286
81937688825106,-1.1615845,9.592053,-1.1232642
81937708680979,-1.1999048,9.802814999999999,-1.0466236
81937728533840,-1.1567944,9.802814999999999,-1.2861254999999998
81937748389713,-1.1280543,9.742939999999999,-1.22146
81937768245586,-1.1687696,9.687855,-1.0442286
81937788101440,-1.1831397,9.489068,-1.0777588
81937807957185,-1.2885206,9.544153,-1.0825489
81937827813056,-1.1831397,9.570497999999999,-1.1615845
81937847668928,-1.1999048,9.6758795,-1.1927198
81937867524801,-1.1424243,9.733359,-1.1999048
81937887380672,-1.1352394,9.711803999999999,-1.101709
81937907238220,-1.1184741000000002,9.601633999999999,-1.1208692
81937927094093,-1.2070899,9.560919,-1.1400293
81937946950092,-1.2669654,9.635164,-1.1208692
81937966805964,-1.2454101999999998,9.683064,-1.1136841999999998
81937986661965,-1.1424243,9.6686945,-1.1376343
81938006517836,-1.1424243,9.687855,-1.2166698999999999
81938026378493,-1.1088941,9.64714,-1.1591895
81938046234622,-1.22625,9.515413,-1.1543995
81938066086742,-1.2669654,9.558523,-1.0849438999999999
81938085942870,-1.2310401000000002,9.654325,-1.1184741000000002
81938105798871,-1.1831397,9.75731,-1.1304493
81938125649941,-1.1496094,9.627979,-1.2118799999999998
81938145505941,-1.1951148999999999,9.73815,-1.1927198
81938165361942,-1.2118799999999998,9.79084,-1.1328443000000001
81938185217941,-1.1472143999999997,9.457932000000001,-1.1400293
81938205073941,-1.2885206,9.491463000000001,-1.1304493
81938224929942,-1.22146,9.575289,-1.1304493
81938244787306,-1.1591895,9.702225,-1.0466236
81938264643306,-1.1520045,9.79084,-1.1759547
81938284499179,-1.1735597,9.707015,-1.2909156000000002
81938304355050,-1.22146,9.759705,-1.0777588
81938324208811,-1.1567944,9.553733,-1.0466236
81938344064684,-1.2525953,9.419611999999999,-1.1496094
81938363920557,-1.2502003000000002,9.572892999999999,-1.1496094
81938383776430,-1.1591895,9.690249,-1.1472143999999997
81938403632303,-1.1903248,9.783655,-1.1256591999999999
81938423488176,-1.1759547,9.793235000000001,-1.1711646
81938443333887,-1.1376343,9.659114,-1.2070899
81938463189504,-1.1807446000000001,9.532178,-1.1400293
81938483045121,-1.3124708,9.498648,-1.1256591999999999
81938502900738,-1.3747413,9.654325,-1.1232642
81938522756355,-1.2430152,9.814791,-1.1088941
81938542616482,-1.1352394,9.6758795,-1.2430152
81938562472227,-1.1448194,9.702225,-1.2046948999999998
81938582327972,-1.1136841999999998,9.594449000000001,-1.1567944
81938602183717,-1.22625,9.64714,-1.0633887
81938622032580,-1.2621753,9.587264,-1.101709
81938641888197,-1.3100758,9.632769,-1.2454101999999998
81938661743942,-1.2310401000000002,9.754914999999999,-1.0873389
81938681599559,-1.1184741000000002,9.651928999999999,-1.223855
81938701455176,-1.1975098,9.635164,-1.094524
81938721310793,-1.1999048,9.565708,-1.1999048
81938741164294,-1.2286451,9.608819,-1.089734
81938761019911,-1.2525953,9.649534,-1.1927198
81938780875398,-1.2502003000000002,9.639954,-1.1927198
81938800731014,-1.2573853000000002,9.802814999999999,-1.1352394
81938820586631,-1.2286451,9.79084,-1.1591895
81938840440088,-1.2693603999999998,9.5633135,-1.1855347
81938860295576,-1.2645704,9.577683,-1.1112891000000003
81938880151193,-1.1639795,9.570497999999999,-1.1855347
81938900006680,-1.1304493,9.620794,-1.0729688
81938919864838,-1.22146,9.740545,-1.1160791
81938939720455,-1.1687696,9.78605,-1.2382251
81938959575942,-1.22146,9.754914999999999,-1.096919
81938979431558,-1.214275,9.639954,-1.1232642
81938999287047,-1.214275,9.455538,-1.1903248
81939019142662,-1.214275,9.489068,-1.1136841999999998
81939038996011,-1.2310401000000002,9.527389,-1.1400293
81939058851500,-1.2621753,9.644744000000001,-1.1783496
81939078706987,-1.22625,9.814791,-1.1352394
81939098562603,-1.1448194,9.874666,-1.2094848999999999
81939118418092,-1.22625,9.79084,-1.1543995
81939138268758,-1.2454101999999998,9.589659,-1.1424243
81939158124118,-1.2885206,9.457932000000001,-1.1591895
81939177979607,-1.3196558,9.505833,-1.0729688
81939197834968,-1.2430152,9.580078,-1.0849438999999999
81939217693914,-1.1975098,9.687855,-1.2094848999999999
81939237549403,-1.2118799999999998,9.7621,-1.2046948999999998
81939257404890,-1.1639795,9.735755000000001,-0.97237796
81939277260378,-1.1855347,9.551338000000001,-1.1735597
81939297115867,-1.3124708,9.599238,-1.1496094
81939316971354,-1.3531861,9.793235000000001,-1.0585986
81939336821039,-1.1903248,9.70941,-1.1184741000000002
81939356676272,-1.2933106,9.673484,-1.1663746000000002
81939376531633,-1.214275,9.639954,-1.1639795
81939396386994,-1.1783496,9.510622999999999,-1.1376343
81939416242355,-1.2573853000000002,9.544153,-1.0873389
81939436103512,-1.2573853000000002,9.580078,-1.1927198
81939455958873,-1.3028906999999998,9.72857,-1.1591895
81939475814362,-1.2717555,9.841136,-1.0106983
81939495669723,-1.1160791,9.635164,-1.3076807
81939515525084,-1.1472143999999997,9.699829,-1.0849438999999999
81939535380573,-1.1112891000000003,9.477093,-1.219065
81939555235544,-1.2454101999999998,9.467513,-1.0346485
81939575090905,-1.3148658000000002,9.623189,-1.0514137
81939594946394,-1.1999048,9.608819,-1.1975098
81939614801755,-1.2046948999999998,9.766891000000001,-1.1855347
81939634661796,-1.099314,9.740545,-1.2502003000000002
81939654517285,-1.1064991000000002,9.72378,-1.1759547
81939674372902,-1.2286451,9.707015,-1.0849438999999999
81939694228391,-1.3483961000000002,9.532178,-1.1831397
81939714083880,-1.3531861,9.596844,-1.0729688
81939733937967,-1.2454101999999998,9.527389,-1.1927198
81939753793438,-1.223855,9.544153,-1.2118799999999998
81939773648799,-1.1927198,9.671089,-1.1520045
81939793504286,-1.1304493,9.77647,-1.0585986
81939813359774,-1.1472143999999997,9.692644,-1.2166698999999999
81939833215263,-1.2430152,9.6758795,-1.1855347
81939853073006,-1.3052857,9.656719,-1.1807446000000001
81939872928494,-1.3172607,9.642349000000001,-1.1064991000000002
81939892784111,-1.2621753,9.589659,-1.0657837
81939912639726,-1.2430152,9.632769,-1.2406201000000001
81939932505893,-1.2286451,9.666299,-1.2861254999999998
81939952361766,-1.1951148999999999,9.642349000000001,-1.22625
81939972217509,-1.2334352,9.627979,-1.1208692
81939992073381,-1.2502003000000002,9.637559,-1.1663746000000002
81940011929254,-1.2478052,9.726174,-1.1591895
81940031790032,-1.2717555,9.7142,-1.1975098
81940051645904,-1.3388159,9.64714,-1.1591895
81940071501777,-1.3388159,9.606423,-1.1472143999999997
81940091355010,-1.2933106,9.402847,-1.1927198
81940111210882,-1.3795313,9.560919,-1.2118799999999998
81940131066755,-1.3699511999999998,9.72378,-1.1663746000000002
81940150928874,-1.3004956,9.70941,-1.1256591999999999
81940170784874,-1.2502003000000002,9.651928999999999,-1.1376343
81940190641003,-1.22625,9.627979,-1.3196558
81940210497002,-1.2885206,9.568104,-1.1735597
81940230349979,-1.3412110000000002,9.620794,-1.0514137
81940250205980,-1.3867163999999998,9.522598,-1.1807446000000001
81940270061979,-1.3795313,9.618399,-1.1232642
81940289917979,-1.2358301999999999,9.623189,-1.1424243
81940309773980,-1.2166698999999999,9.6758795,-1.2022998
81940329627993,-1.2621753,9.745335,-1.1041040000000002
81940349483991,-1.2621753,9.501043,-1.0705738
81940369339992,-1.3627661,9.433982,-1.0681788
81940389195863,-1.3364209999999999,9.412427000000001,-1.0154883
81940409051863,-1.2837305,9.431587,-0.977168
81940428907864,-1.214275,9.493857,-0.9053174
81940448756232,-1.094524,9.4507475,-1.1280543
81940468612105,-1.1639795,9.541758999999999,-1.1064991000000002
81940488467850,-1.1639795,9.489068,-1.1256591999999999
81940508323723,-1.223855,9.433982,-1.1136841999999998
81940528180516,-1.1927198,9.453142,-1.1136841999999998
81940548036389,-1.1615845,9.467513,-1.2525953
81940567892262,-1.2645704,9.553733,-1.0609937
81940587748135,-1.2693603999999998,9.589659,-0.96758795
81940607604136,-1.2382251,9.541758999999999,-1.0322535
81940627460009,-1.2022998,9.515413,-1.1424243
81940647307934,-1.2166698999999999,9.431587,-1.22146
81940667163679,-1.2597803,9.4435625,-1.0657837
81940687019424,-1.2046948999999998,9.467513,-1.0538087
81940706875156,-1.2310401000000002,9.484278,-1.1472143999999997
81940726730901,-1.2717555,9.477093,-1.1472143999999997
81940746586206,-1.22625,9.445957,-1.1567944
81940766441950,-1.2813355,9.553733,-1.2046948999999998
81940786297567,-1.2909156000000002,9.551338000000001,-1.219065
81940806153310,-1.3244458000000001,9.4507475,-1.1376343
81940826004056,-1.2861254999999998,9.479486999999999,-1.1424243
81940845859673,-1.2525953,9.501043,-1.214275
81940865715160,-1.214275,9.484278,-1.1855347
81940885570776,-1.2573853000000002,9.417216999999999,-1.1208692
81940905426393,-1.3124708,9.407638,-1.2070899
81940925282008,-1.3244458000000001,9.460327000000001,-1.22146
81940945130500,-1.2717555,9.522598,-1.2430152
81940964985861,-1.2789403999999998,9.541758999999999,-1.2717555
81940984841348,-1.22625,9.517808,-1.2933106
81941004696708,-1.3244458000000001,9.410032000000001,-1.2430152
81941024552069,-1.4178516,9.369317,-1.223855
81941044417842,-1.3939015,9.419611999999999,-1.1879296999999998
81941064273458,-1.3436059999999999,9.462723,-1.2837305
81941084129075,-1.3771361999999998,9.544153,-1.2693603999999998
81941103984690,-1.4346168,9.5633135,-1.2861254999999998
81941123833286,-1.4178516,9.536968,-1.2813355
81941143688647,-1.3891114,9.445957,-1.2693603999999998
81941163544136,-1.4226416000000002,9.338181500000001,-1.3028906999999998
81941183399494,-1.4178516,9.366921000000001,-1.2693603999999998
81941203254983,-1.4322218,9.386082,-1.22625
81941223110470,-1.4202466,9.489068,-1.2430152
81941242970554,-1.3867163999999998,9.529783,-1.2981006000000002
81941262826043,-1.3915064,9.508227999999999,-1.2957056999999998
81941282681530,-1.4034815,9.5489435,-1.1975098
81941302537019,-1.3747413,9.462723,-1.2310401000000002
81941322392508,-1.4058765,9.338181500000001,-1.2861254999999998
81941342245045,-1.4394068000000002,9.333391,-1.3483961000000002
81941362100406,-1.4992822000000001,9.457932000000001,-1.2981006000000002
81941381955895,-1.5160475,9.489068,-1.089734
81941401811256,-1.4849122,9.496253,-0.9963281999999999
81941421665537,-1.4849122,9.608819,-1.099314
81941441520898,-1.5064673000000002,9.625584,-1.1064991000000002
81941461376259,-1.4825171,9.575289,-0.88376224
81941481231620,-1.3771361999999998,9.678274,-0.7185059
81941501086853,-1.2334352,9.759705,-0.84544194
81941520942214,-1.1759547,9.72378,-1.0801538
81941540810843,-1.2813355,9.764495,-1.0035132
81941560666460,-1.4513819,9.989627,-0.6945557
81941580522077,-1.5926881000000002,10.123747999999999,-0.3281177
81941600377694,-1.6741188000000002,10.226734,-0.1580713
81941620233311,-1.6453785,10.818304,0.12454102
81941640093358,-1.2837305,11.014695,-0.038320314
81941659949103,-0.92208254,10.7943535,-0.43589357
81941679804848,-0.5029541000000001,10.166859,-1.331631
81941699660721,-0.977168,9.6686945,-0.89573735
81941719516466,-1.8872755,9.050778999999999,-0.366438
81941739372191,-1.6214283,8.938213000000001,0.5412744
81941759229934,-1.1999048,9.505833,1.9184108
81941779085806,-0.11017089999999999,9.855506,0.9867481
81941798941678,0.43589357,10.375225,1.0250684
81941818797550,-0.26584718,10.432706,1.5735278999999998
81941838653422,-0.96758795,9.912986,2.9410841
81941858507229,-0.88376224,9.299861,2.6201515
81941878363101,-0.9053174,8.516689999999999,2.1746778
81941898218973,-1.4489869,7.8556643,2.9937747000000003
81941918074845,-1.8561403000000003,7.680828,3.6021094
81941937930717,-1.587898,7.690408000000001,3.7769459999999997
81941957788521,-1.1352394,7.592212,3.527864
81941977644393,-0.977168,7.5155716,3.5901343999999997
81941997500265,-1.1615845,7.482041400000001,4.1218286
81942017356265,-1.4034815,7.482041400000001,5.1061816
81942037212137,-1.4274316999999999,7.711963000000001,5.345683999999999
81942057067290,-1.3436059999999999,7.977810400000001,5.5420755999999995
81942076921780,-1.3388159,8.061636,5.597161
81942096777652,-1.1208692,7.980205499999999,5.5588408
81942116633524,-0.7209009,7.802973700000001,6.7228202999999995
81942136489396,-0.87178713,7.786208599999999,7.534732000000001
81942156339407,-1.2621753,8.327483,7.726333
81942176195279,-1.2070899,8.377778999999999,8.602911
81942196051023,-0.73527104,7.4652762,9.2328005
81942215906896,0.5245093000000001,6.09293,7.90117
81942235762641,0.059875492,5.264253,6.5216384000000005
81942255624804,-1.0681788,3.9757326,5.336104
81942275480677,-1.2022998,3.8703517999999995,0.9436377
81942295336550,-2.9602442000000004,10.011182000000002,-4.813989599999999
81942315192423,-9.877061,24.989635,-5.628296400000001
81942335048296,-7.2976246,23.030507999999998,10.123747999999999
81942354907069,-1.9687061000000001,2.6512868,3.1350808
81942374763070,-1.8896705000000003,1.3388159,-2.9003687
81942394619071,-0.4263135,5.0894165000000005,-1.465752
81942414475072,0.5005590999999999,8.744216999999999,-2.6345215
81942434331073,0.39996827,11.716436,-8.696317
81942454175510,3.5542092000000003,12.564273,-3.2596216
81942474031255,2.675237,12.063714,7.95865
81942493886872,-1.9782863000000002,9.881851,3.8200562000000007
81942513742617,-0.55803955,8.401729,-2.4692652
81942533598362,-0.12933107,8.713080999999999,-0.85741705
81942553453411,-0.84544194,9.364527,0.8167017
81942573309028,-0.61073,8.808882,0.4263135
81942593164645,-0.3161426,8.701106,0.119750984
81942613020390,-0.117355965,9.172925,0.06945557
81942632876007,-0.55803955,9.280700999999999,-0.7041358
81942652727358,-0.8095166,9.079519,-0.50534916
81942672582954,-0.4766089,9.168135000000001,0.28261232
81942692438571,-0.081430666,9.433982,0.20597169
81942712294188,-0.20597169,9.5489435,-0.244292
81942732149933,-0.4263135,9.68067,-0.19160157
81942751998180,0.19399660000000002,10.219549,0.12933107
81942771853541,0.38799320000000004,11.448194,1.3819263000000002
81942791709025,-0.3281177,12.485237,1.6094532
81942811564385,-0.51971924,12.305611,0.5628295999999999
81942831419873,0.41194338,11.915223,-0.39278322
81942851275855,1.5208374,11.349998,0.035925295
81942871131343,0.70174074,10.894944,0.09340577
81942890986831,-1.1759547,11.876903,0.14130616
81942910842191,-1.7148341,12.880416,-0.91729254
81942930697679,0.5628295999999999,13.107942999999999,-1.3915064
81942950548414,3.0704152999999996,12.772639,-2.9937747000000003
81942970403774,3.63564,13.776153,-4.6726832
81942990259006,2.1052222,14.315032,-4.9720607
81943010114366,0.7759864000000001,13.294754000000001,-3.8943019999999997
81943029969598,1.1687696,12.228971000000001,1.2933106
81943049833717,0.728086,11.50328,6.583908999999999
81943069689205,0.19399660000000002,10.676997,2.1962330000000003
81943089544693,1.5328126,8.296348,-4.4212065
81943109400053,2.6584717999999996,7.084467999999999,-4.854705
81943129255541,2.7590625,5.5229154000000005,-7.0341725
81943149097632,1.8082398000000002,4.2511597000000005,-7.182664
81943168952864,-1.7196240000000003,5.585186,-3.6045046000000003
81943188808097,-3.7074904,6.4186525,-1.0418334999999999
81943208663330,-5.360054,6.4090724,0.613125
81943228518560,-6.9551373,6.6653395,2.6129665
81943248363017,-5.7935524,7.137158400000001,2.5866213
81943268217992,-1.8753004,7.745493400000001,1.5471827
81943288073096,-1.0059083,9.283096,2.299219
81943307928072,-2.074087,12.193045,2.0860621999999998
81943327783048,-0.6011499,13.179793,4.193679299999999
81943347636017,0.43589357,11.376344,14.9233675
81943367490993,1.3579761000000001,9.057964,7.7359133
81943387345970,5.149292,11.261382000000001,-9.407638
81943407200947,4.0356083,17.414188,-14.621594
81943427055796,-2.929109,12.051739,-4.402046
81943446915009,-2.2728736,7.2832546,0.15328126
81943466769986,-2.1866529999999997,7.7526784,2.914739
81943486624963,-3.5134937999999996,11.61345,-1.4178516
81943506479940,-4.1338040000000005,14.123431,-0.5939649
81943526334789,-1.9639161,12.125983999999999,0.050295413
81943546206114,0.5748047,8.602911,0.43349856
81943566061347,2.3662794,7.34313,0.69695073
81943585916708,2.2177882,7.977810400000001,-0.8310718
81943605771941,0.1460962,9.208851,-1.6238233
81943625627174,-1.1543995,9.216036,-1.1807446000000001
81943645486113,-2.1459377,8.473578999999999,0.15567628
81943665341474,-2.9626392999999998,8.052056,1.5088624
81943685196835,-2.2704787,9.139395,0.89573735
81943705052068,-2.3255641,9.826766000000001,0.5508545
81943724907429,-0.85741705,10.267449000000001,0.244292
81943744767910,0.17483643,9.944121,-0.15088624
81943764623271,0.83586186,9.592053,-2.1243825000000003
81943784478611,1.3483961000000002,10.473421,-2.3255641
81943804334099,0.97237796,10.935659,-1.3771361999999998
81943824189459,-0.45505372,11.711646,1.7866846
81943844052097,-0.6849755999999999,12.703184,2.8380982999999995
81943863907713,0.50534916,12.976216,0.8310718
81943883763329,1.5304176,14.573694,-1.219065
81943903618945,2.2776637,14.868282,-2.799778
81943923474561,2.0261867,11.304492999999999,-2.5195606
81943943339064,1.9184108,10.4494705,-2.6273365
81943963194936,0.05508545,12.410992,-3.1302907
81943983050808,0.68018556,13.445641,-3.319497
81944002906680,1.7699194999999999,12.930711,-2.5698562000000003
81944022762552,1.096919,12.949871,-0.4023633
81944042622575,0.7448511,12.188255,0.89573735
81944062478447,0.44786867,11.122471,1.0178833
81944082334447,0.30177248,9.251961,-0.974773
81944102190319,0.9436377,8.040080999999999,-3.3841627
81944122046503,1.1064991000000002,7.2664895000000005,-2.943479
81944141898334,-0.19878663,7.0245923999999995,-1.9040406000000003
81944161754206,-1.4825171,6.3875175,-2.6536817999999998
81944181610207,-3.3458424,7.031778,-1.7914747
81944201466078,-4.629573000000001,6.8042507,0.364043
81944221322078,-5.113367,6.1887307,1.9878663
81944241178078,-4.5385623,6.1767554,2.095642
81944261039143,-3.3673975,6.356382,1.6429833999999999
81944280895143,-2.555486,6.7515600000000004,1.6980689999999998
81944300751143,-2.1315675,7.2976246,2.3614892999999997
81944320607272,-1.1951148999999999,7.9299100000000005,3.3266823
81944340463273,0.2083667,10.011182000000002,5.5947657
81944360323092,2.0261867,14.121035999999998,11.280542
81944380179221,5.261858,15.395185999999999,11.711646
81944400035350,6.2270513,11.275752,0.8478370000000001
81944419891479,0.7879615,9.256751,-3.1255007000000004
81944439747608,-0.22992188,8.428074,3.5566041
81944459596343,0.9148975,10.679393,5.944439
81944479452344,-0.8765772,16.271763,-1.477727
81944499308345,-5.415139,17.617764,-6.974297
81944519164474,-7.534732000000001,12.760665,-1.7268091
81944539020475,-3.3266823,3.6260597999999997,7.8676395
81944558875524,-3.7314404999999997,2.3447242000000004,-0.0047900393
81944578731525,-3.2189064,5.230723,-2.8883936
81944598587526,-2.703977,9.996812,-4.653523000000001
81944618443655,-0.7089258,12.947476,-9.139395
81944638299656,1.8776953999999997,10.425521,-3.5853443
81944658160221,1.3220508,10.255474000000001,1.1136841999999998
81944678016478,-0.43110353,10.957214,8.008944999999999
81944697872735,-1.6118482,9.853110000000001,1.6286133999999999
81944717728992,-0.5939649,8.892708,-1.9974464
81944737585230,-0.3281177,9.110655,-2.0812721
81944757434729,-0.11017089999999999,8.504715,-1.6166383
81944777290729,0.32572266,8.301138,-1.3962965
81944797146729,0.25866213,9.635164,0.14849122
81944817002729,-0.17244141,10.066267999999999,0.52690434
81944836858729,-0.78556645,9.671089,0.07185059
81944856701021,-1.5974781999999998,9.19448,0.9699829
81944876556637,-2.2106032000000004,9.024434,1.8441651000000001
81944896412253,-1.829795,8.969349000000001,0.26345217
81944916267997,-1.4154567,8.097562,-1.8226098999999998
81944936123613,-1.1951148999999999,7.788603999999999,-2.6249416
81944955974018,-1.4202466,9.395662,-1.2669654
81944975829506,-0.97956306,11.139236,-0.035925295
81944995684994,-0.33769777,11.330838,-0.7711963000000001
81945015540354,-1.0873389,10.985955,-0.37122804
81945035395842,-1.6405883999999997,10.262659,0.119750984
81945055250221,-1.3076807,9.896221,-0.15088624
81945075105581,-0.8765772,10.001602,0.0071850587
81945094961069,-0.3281177,9.8866415,0.11496094
81945114816429,-0.22752686,10.190808,0.45744875
81945134671789,-0.06227051,10.942844000000001,-0.043110352000000005
81945154530337,0.8478370000000001,12.248130999999999,-0.34967285
81945174385826,1.22625,13.728252,-2.1171973
81945194241315,1.2525953,14.183307000000001,-2.9530592
81945214096932,0.9484278,12.339141,-1.7268091
81945233952421,-1.8585353,9.788445,-1.5304176
81945253812385,-4.351751,8.262817,-2.2273683999999996
81945273667873,-6.7252149999999995,8.351434,-3.046465
81945293523489,-7.922724700000001,9.441168,-1.0274634
81945313379105,-4.2152348,9.553733,-0.7161109
81945333234593,-2.4261549,9.841136,-1.8082398000000002
81945353092184,-2.1387525000000003,10.207574000000001,-2.0549269
81945372947929,-2.2632935,9.963282000000001,-1.463357
81945392803546,-2.9051588,9.683064,-0.68737066
81945412659163,-3.1374757,9.517808,-0.32332766
81945432514780,-3.1278956,9.383687,-0.51971924
81945452369669,-2.548301,9.704619000000001,-0.24668702
81945472225286,-2.0980372000000003,9.778865,-0.30177248
81945492080903,-1.8274,9.299861,-0.20597169
81945511936520,-2.4884255,8.691526,0.06227051
81945531792137,-2.6704468999999995,8.131092,-1.1927198
81945551650782,-1.9734962,8.289163,-0.73048097
81945571506527,-1.6765138,9.381292,1.3795313
81945591362144,-1.9663111,10.257869,2.6896071
81945611217889,-1.3723463,10.365644999999999,2.203418
81945631073506,-1.0059083,9.14179,-0.61073
81945650932225,-1.465752,8.028106,-1.6956740000000001
81945670787970,-1.1424243,7.937094999999999,-2.0812721
81945690643843,-1.0394385,8.562195,-1.7771046000000001
81945710499588,-1.3795313,9.78605,-1.0011181999999998
81945730355333,-2.064507,10.394385,-0.26584718
81945750205680,-3.1087356,10.619517,0.33290774
81945770061297,-3.4679885,10.538086,1.0130934
81945789916893,-3.4512233999999995,10.693763,0.5388794
81945809772509,-2.8716285,10.420731,-0.5484595
81945829628125,-1.8226098999999998,9.05557,-1.5567628
81945849488720,-1.2597803,9.14658,-1.6070582
81945869344592,-0.8813671999999999,9.934542,-1.0298585
81945889200336,-0.4622388,10.162068,-1.2621753
81945909056080,-0.083825685,10.078242,-1.5208374
81945928911824,-0.5987549,9.924961,-0.9388476999999998
81945948769013,-1.2334352,9.81958,-0.7113208000000001
81945968624757,-1.6741188000000002,9.637559,-1.1208692
81945988480629,-2.0237916,9.592053,-1.463357
81946008336501,-2.0429518,9.618399,-1.6094532
81946028192373,-1.8609301999999999,9.685459,-1.5543678
81946048045801,-1.7771046000000001,9.826766000000001,-1.2094848999999999
81946067901545,-1.6142433,9.948912,-1.1112891000000003
81946087757289,-1.4058765,9.788445,-1.2837305
81946107613033,-1.3795313,9.740545,-1.346001
81946127468905,-1.4944923,9.927357,-1.1352394
81946147324649,-1.4394068000000002,9.980047,-0.99393314
81946167179821,-1.3124708,9.960887,-1.0370435
81946187035566,-1.3939015,9.946517,-1.1400293
81946206891183,-1.3771361999999998,9.929751,-1.2645704
81946226746928,-1.2070899,9.81958,-1.4298267
81946246602541,-1.3100758,9.678274,-1.3675561999999999
81946266464788,-1.4489869,9.649534,-1.2645704
81946286320532,-1.456172,9.707015,-1.2525953
81946306176404,-1.4226416000000002,9.745335,-1.3220508
81946326032148,-1.3148658000000002,9.81,-1.465752
81946345888021,-1.3555812,9.848321,-1.5112573999999999
81946365747348,-1.4944923,9.7812605,-1.3962965
81946385603221,-1.5184423999999999,9.72378,-1.3220508
81946405459094,-1.5136524,9.862691,-1.2693603999999998
81946425315095,-1.5088624,9.81958,-1.3100758
81946445170968,-1.5088624,9.6686945,-1.3172607
81946465014105,-1.4873072,9.592053,-1.3148658000000002
81946484869722,-1.4082716,9.659114,-1.3172607
81946504725339,-1.2669654,9.695039999999999,-1.3627661
81946524580956,-1.2525953,9.649534,-1.3436059999999999
81946544436701,-1.3220508,9.673484,-1.2933106
81946564293476,-1.2813355,9.635164,-1.2382251
81946584149093,-1.2430152,9.5633135,-1.2621753
81946604004710,-1.2717555,9.608819,-1.2837305
81946623860327,-1.3268408999999999,9.783655,-1.2837305
81946643716072,-1.3076807,9.735755000000001,-1.2885206
81946663567019,-1.2957056999999998,9.642349000000001,-1.2549903
81946683422508,-1.2741505,9.594449000000001,-1.2525953
81946703278125,-1.2286451,9.541758999999999,-1.2406201000000001
81946723133614,-1.1831397,9.604028999999999,-1.2765454
81946742989103,-1.2286451,9.572892999999999,-1.2310401000000002
81946762841186,-1.2525953,9.541758999999999,-1.2166698999999999
81946782696655,-1.2813355,9.580078,-1.1663746000000002
81946802552015,-1.2669654,9.671089,-1.1663746000000002
81946822407503,-1.2334352,9.632769,-1.1903248
81946842262991,-1.2621753,9.592053,-1.1520045
81946862114816,-1.2909156000000002,9.570497999999999,-1.1280543
81946881970304,-1.3603711,9.570497999999999,-1.0801538
81946901825664,-1.4106666,9.572892999999999,-1.0825489
81946921681024,-1.4489869,9.644744000000001,-1.1232642
81946941536512,-1.4226416000000002,9.798025,-1.1567944
81946961394231,-1.4298267,9.7740755,-1.1136841999999998
81946981249591,-1.4585668999999999,9.783655,-1.0490186000000001
81947001105079,-1.456172,9.6758795,-0.9699829
81947020960439,-1.5112573999999999,9.663903999999999,-0.9987232
81947040815927,-1.4849122,9.618399,-1.096919
81947060674146,-1.4753321000000001,9.455538,-1.0849438999999999
81947080529634,-1.477727,9.493857,-1.1448194
81947100385122,-1.4489869,9.616004,-1.0729688
81947120240482,-1.4394068000000002,9.716595,-1.0705738
81947140095970,-1.4130616000000003,9.769285,-1.0921290000000001
81947159952027,-1.4178516,9.72378,-1.1208692
81947179807516,-1.463357,9.611214,-1.1304493
81947199663002,-1.5232325,9.560919,-1.099314
81947219518362,-1.456172,9.496253,-1.0514137
81947239373850,-1.4250367,9.496253,-1.0633887
81947259231502,-1.465752,9.5561285,-1.099314
81947279086990,-1.4130616000000003,9.695039999999999,-1.1136841999999998
81947298942478,-1.3579761000000001,9.73815,-1.1064991000000002
81947318798094,-1.3675561999999999,9.77168,-1.0226734
81947338653582,-1.3939015,9.659114,-1.0825489
81947358503966,-1.453777,9.568104,-1.0921290000000001
81947378359454,-1.4370118,9.527389,-1.0657837
81947398214814,-1.4034815,9.493857,-0.99393314
81947418070174,-1.3771361999999998,9.522598,-0.977168
81947437925534,-1.3699511999999998,9.6758795,-1.0585986
81947457782637,-1.3076807,9.833950999999999,-1.096919
81947477638125,-1.3052857,9.742939999999999,-1.0298585
81947497493485,-1.3244458000000001,9.6615095,-1.0370435
81947517348973,-1.4178516,9.608819,-1.0226734
81947537204461,-1.3747413,9.604028999999999,-1.0298585
81947557067012,-1.3627661,9.520203,-1.0226734
81947576922500,-1.3555812,9.529783,-1.0633887
81947596778116,-1.3651612,9.618399,-1.1064991000000002
81947616633604,-1.3579761000000001,9.814791,-1.0681788
81947636489220,-1.3124708,9.798025,-1.0154883
81947656344728,-1.3148658000000002,9.666299,-1.0873389
81947676200344,-1.3603711,9.618399,-1.0729688
81947696055832,-1.3364209999999999,9.649534,-1.089734
81947715911448,-1.4202466,9.73815,-1.0346485
81947735767064,-1.5280225,9.690249,-0.9029224
81947755621496,-1.5160475,9.630374,-0.87897223
81947775476984,-1.3747413,9.7142,-0.9699829
81947795332472,-1.2046948999999998,9.690249,-1.2621753
81947815188088,-1.1520045,9.606423,-1.3723463
81947835043576,-1.219065,9.4507475,-1.1280543
81947854903416,-1.3795313,9.386082,-0.974773
81947874759032,-1.4346168,9.517808,-1.0633887
81947894614776,-1.3867163999999998,9.625584,-1.0777588
81947914470392,-1.3699511999999998,9.73815,-1.0562036
81947934326136,-1.3436059999999999,9.766891000000001,-1.0106983
81947954182892,-1.2669654,9.7812605,-1.0729688
81947974038764,-1.2454101999999998,9.740545,-1.0418334999999999
81947993894508,-1.3364209999999999,9.627979,-1.0442286
81948013750252,-1.3603711,9.558523,-0.9364527
81948033605996,-1.3244458000000001,9.508227999999999,-0.9316626
81948053465239,-1.3675561999999999,9.553733,-0.9963281999999999
81948073320984,-1.3819263000000002,9.649534,-1.0226734
81948093176729,-1.214275,9.716595,-0.95561284
81948113032471,-1.214275,9.7621,-0.9412427
81948132888343,-1.2789403999999998,9.740545,-1.0322535
81948152750213,-1.3627661,9.685459,-1.0035132
81948172606213,-1.4441968,9.572892999999999,-0.92208254
81948192462213,-1.3939015,9.5561285,-0.8933423
81948212316039,-1.3699511999999998,9.584868,-0.91729254
81948232172040,-1.3196558,9.721385,-1.0130934
81948252025731,-1.331631,9.697434,-1.0298585
81948271881604,-1.3412110000000002,9.812395,-0.97237796
81948291737605,-1.2454101999999998,9.73815,-0.9388476999999998
81948311593478,-1.2861254999999998,9.604028999999999,-1.0442286
81948331449351,-1.453777,9.5489435,-1.0753639
81948351301772,-1.4681469999999999,9.517808,-1.0418334999999999
81948371157645,-1.3986914,9.513017999999999,-0.8478370000000001
81948391013518,-1.3579761000000001,9.625584,-0.96040285
81948410869263,-1.3052857,9.800421,-1.1496094
81948430725136,-1.2669654,9.833950999999999,-1.0801538
81948450568367,-1.3531861,9.685459,-0.92926764
81948470423856,-1.4489869,9.611214,-0.97237796
81948490279473,-1.4034815,9.5633135,-1.0442286
81948510134962,-1.3412110000000002,9.513017999999999,-0.977168
81948529990579,-1.331631,9.505833,-0.9268726
81948549845384,-1.3076807,9.594449000000001,-0.9915381
81948569701001,-1.3124708,9.7740755,-1.0825489
81948589556490,-1.3076807,9.850716,-1.0609937
81948609412107,-1.2358301999999999,9.70941,-0.9867481
81948629267596,-1.3196558,9.577683,-0.96040285
81948649117873,-1.4010864,9.594449000000001,-1.0298585
81948668973362,-1.4106666,9.5561285,-1.0154883
81948688828701,-1.4082716,9.541758999999999,-0.9699829
81948708684190,-1.3364209999999999,9.613608000000001,-1.0346485
81948728539679,-1.3076807,9.745335,-1.1232642
81948748395168,-1.3388159,9.905801,-1.0633887
81948768251675,-1.3028906999999998,9.73815,-0.98195803
81948788107159,-1.2789403999999998,9.587264,-0.96758795
81948807962519,-1.3723463,9.541758999999999,-1.0346485
81948827818007,-1.4034815,9.532178,-1.0753639
81948847673495,-1.346001,9.498648,-0.9699829
81948867514031,-1.334026,9.6615095,-0.9987232
81948887369263,-1.2885206,9.795630000000001,-1.094524
81948907224367,-1.2430152,9.73815,-1.1136841999999998
81948927079599,-1.3076807,9.685459,-1.0011181999999998
81948946934703,-1.4034815,9.659114,-0.97956306
81948966750779,-1.3723463,9.659114,-0.97237796
81948986605243,-1.3483961000000002,9.5561285,-0.974773
81949006459579,-1.3028906999999998,9.4507475,-1.0418334999999999
81949026313915,-1.3196558,9.484278,-1.0801538
81949046168251,-1.334026,9.702225,-1.0562036
81949066027865,-1.3076807,9.857901,-1.0106983
81949085882201,-1.3124708,9.745335,-1.0657837
81949105736537,-1.3771361999999998,9.639954,-1.101709
81949125591001,-1.4274316999999999,9.651928999999999,-1.0657837
81949145445338,-1.3388159,9.501043,-0.97237796
81949165312892,-1.3579761000000001,9.433982,-1.0083033000000001
81949185167485,-1.4585668999999999,9.496253,-1.0562036
81949205022076,-1.4178516,9.673484,-1.1088941
81949224876668,-1.3555812,9.77168,-1.0154883
81949244731260,-1.2957056999999998,9.845925,-1.0274634
81949264594336,-1.2813355,9.745335,-1.0873389
81949284449057,-1.4034815,9.644744000000001,-1.0921290000000001
81949304303650,-1.4849122,9.546548,-1.0921290000000001
81949324158371,-1.4681469999999999,9.534574000000001,-1.0490186000000001
81949344013092,-1.4082716,9.551338000000001,-1.089734
81949363872645,-1.4154567,9.606423,-1.1520045
81949383727494,-1.3172607,9.697434,-1.1615845
81949403582215,-1.3100758,9.721385,-1.1615845
81949423436936,-1.3052857,9.702225,-1.2310401000000002
81949443291785,-1.3819263000000002,9.635164,-1.22625
81949463156634,-1.4897022,9.611214,-1.1759547
81949483011483,-1.4920973,9.527389,-1.1376343
81949502866460,-1.4873072,9.429193,-1.1352394
81949522721309,-1.4346168,9.513017999999999,-1.1759547
81949542576286,-1.4298267,9.651928999999999,-1.2118799999999998
81949562441095,-1.3915064,9.7740755,-1.1496094
81949582296200,-1.4250367,9.718989,-1.1280543
81949602151177,-1.4873072,9.690249,-1.1352394
81949622006282,-1.456172,9.656719,-1.1400293
81949641861387,-1.4897022,9.587264,-1.0873389
81949661727780,-1.5208374,9.438772,-1.0466236
81949681583141,-1.5304176,9.419611999999999,-1.0825489
81949701438502,-1.4825171,9.651928999999999,-1.1160791
81949721293863,-1.4202466,9.80521,-1.1088941
81949741149204,-1.4154567,9.79084,-1.0059083
81949761019461,-1.3651612,9.642349000000001,-0.95561284
81949780875205,-1.4274316999999999,9.553733,-1.0609937
81949800730949,-1.456172,9.532178,-1.0562036
81949820586693,-1.5088624,9.539363,-0.974773
81949840442437,-1.5112573999999999,9.625584,-0.9364527
81949860303929,-1.4250367,9.64714,-1.0514137
81949880159929,-1.3819263000000002,9.704619000000001,-1.096919
81949900015929,-1.346001,9.690249,-1.0585986
81949919871801,-1.4010864,9.649534,-0.9867481
81949939727801,-1.4801221000000002,9.702225,-1.0202783000000002
81949959589043,-1.4729371,9.594449000000001,-1.0226734
81949979445171,-1.4394068000000002,9.541758999999999,-0.9915381
81949999301299,-1.4418018,9.575289,-0.9484278
81950019157427,-1.3292358999999998,9.637559,-1.0250684
81950039013555,-1.2981006000000002,9.666299,-1.0130934
81950058876327,-1.3172607,9.721385,-1.0322535
81950078732711,-1.4082716,9.6686945,-1.0202783000000002
81950098588967,-1.4178516,9.642349000000001,-1.0538087
81950118445223,-1.4154567,9.613608000000001,-0.98435307
81950138301608,-1.4441968,9.527389,-1.0202783000000002
81950158164837,-1.4202466,9.5561285,-1.0011181999999998
81950178021476,-1.3771361999999998,9.635164,-1.0298585
81950197877988,-1.346001,9.726174,-1.0298585
81950217734500,-1.3436059999999999,9.699829,-1.0705738
81950237591140,-1.4226416000000002,9.592053,-1.0585986
81950257451744,-1.456172,9.601633999999999,-0.98914313
81950277308512,-1.4202466,9.644744000000001,-0.96758795
81950297165152,-1.3771361999999998,9.596844,-0.974773
81950317021921,-1.3962965,9.592053,-1.0178833
81950336878562,-1.3651612,9.666299,-1.0585986
81950356736793,-1.3388159,9.800421,-1.0466236
81950376593690,-1.3939015,9.800421,-0.9867481
81950396450587,-1.3771361999999998,9.649534,-0.96040285
81950416307484,-1.3915064,9.570497999999999,-0.9627979
81950436164374,-1.3675561999999999,9.589659,-1.0250684
81950456005550,-1.3172607,9.639954,-1.0418334999999999
81950475862191,-1.334026,9.608819,-0.92926764
81950495718830,-1.334026,9.625584,-0.97956306
81950515575342,-1.3148658000000002,9.72378,-0.9915381
81950535431983,-1.2669654,9.77647,-1.0226734
81950555264369,-1.2861254999999998,9.72378,-0.9699829
81950575120241,-1.2957056999999998,9.575289,-0.98435307
81950594975986,-1.2837305,9.5489435,-0.98435307
81950614831857,-1.3268408999999999,9.541758999999999,-0.977168
81950634683012,-1.334026,9.541758999999999,-0.9508228000000001
81950654538757,-1.2909156000000002,9.594449000000001,-0.8909473
81950674394500,-1.2621753,9.788445,-0.90771246
81950694250116,-1.2717555,9.939331,-0.97956306
81950714105861,-1.2981006000000002,9.75252,-0.96040285
81950733961604,-1.331631,9.604028999999999,-0.87178713
81950753818744,-1.3603711,9.498648,-0.8861573
81950773674489,-1.2837305,9.501043,-0.95561284
81950793530232,-1.2885206,9.637559,-0.8382569
81950813385976,-1.3076807,9.695039999999999,-0.87418216
81950833241721,-1.3148658000000002,9.800421,-0.91729254
81950853089833,-1.2525953,9.793235000000001,-0.9053174
81950872945450,-1.1687696,9.754914999999999,-0.88376224
81950892801067,-1.22625,9.721385,-0.90052736
81950912656553,-1.3148658000000002,9.70941,-0.8885523000000001
81950932507482,-1.2837305,9.577683,-0.7759864000000001
81950952362971,-1.2118799999999998,9.505833,-0.8430469
81950972218458,-1.1615845,9.635164,-0.98435307
81950992073818,-1.0609937,9.721385,-0.9627979
81951011929307,-1.0609937,9.77168,-0.91250247
81951031784666,-1.1184741000000002,9.718989,-0.90771246
81951051645189,-1.1735597,9.604028999999999,-0.9436377
81951071500678,-1.2118799999999998,9.544153,-0.88376224
81951091356165,-1.2454101999999998,9.625584,-0.85023195
81951111211653,-1.2382251,9.663903999999999,-0.86939216
81951131067142,-1.2933106,9.695039999999999,-0.9508228000000001
81951150925817,-1.3843212999999999,9.687855,-0.85741705
81951170781433,-1.4058765,9.663903999999999,-0.87418216
81951190637050,-1.4346168,9.745335,-0.86939216
81951210492537,-1.463357,9.716595,-0.8598120000000001
81951230346836,-1.4226416000000002,9.620794,-0.8598120000000001
81951250202325,-1.3004956,9.577683,-0.8478370000000001
81951270057940,-1.2430152,9.592053,-0.9029224
81951289913428,-1.219065,9.685459,-0.974773
81951309768917,-1.1807446000000001,9.692644,-0.96040285
81951329624406,-1.1687696,9.79084,-0.91250247
81951349481147,-1.2022998,9.740545,-0.8669971
81951369336636,-1.3507911,9.663903999999999,-0.8310718
81951389192251,-1.4801221000000002,9.627979,-0.8167017
81951409047739,-1.453777,9.560919,-0.81909674
81951428903356,-1.3483961000000002,9.572892999999999,-0.84544194
81951448762718,-1.3052857,9.649534,-0.86220706
81951468618335,-1.2406201000000001,9.654325,-0.85741705
81951488473952,-1.1280543,9.68067,-0.9148975
81951508329441,-0.98195803,9.74773,-0.9268726
81951528185058,-0.8167017,9.745335,-0.8813671999999999
81951548040675,-0.79035646,9.750125,-0.79035646
81951567892786,-0.94603276,9.68067,-0.7711963000000001
81951587748275,-1.1472143999999997,9.529783,-0.79993653
81951607603892,-1.1831397,9.505833,-0.8382569
81951627459381,-1.22625,9.584868,-0.86939216
81951647313400,-1.2885206,9.831555,-0.9148975
81951667168889,-1.334026,9.881851,-0.85023195
81951687024378,-1.2861254999999998,9.821976,-0.87418216
81951706879867,-1.3627661,9.716595,-0.9268726
81951726735484,-1.3986914,9.580078,-0.9963281999999999
81951746593044,-1.3843212999999999,9.484278,-0.8646021
81951766448660,-1.4920973,9.544153,-0.77359134
81951786304277,-1.5184423999999999,9.687855,-0.90052736
81951806159892,-1.5735278999999998,9.745335,-1.0873389
81951826015508,-1.575923,9.683064,-1.0178833
81951845870997,-1.583108,9.618399,-1.0178833
81951865724357,-1.5256275,9.726174,-1.0514137
81951885579973,-1.5711329,9.584868,-0.9316626
81951905435590,-1.7411792000000001,9.532178,-0.71371585
81951925291205,-1.3100758,9.517808,-0.78556645
81951945149160,-0.974773,9.678274,-0.8167017
81951965004777,-0.92926764,9.750125,-0.97956306
81951984860520,-0.98914313,9.74773,-0.91010743
81952004716136,-0.9148975,9.627979,-0.7209009
81952024571881,-0.91729254,9.637559,-0.69216067
81952044418164,-1.0322535,9.594449000000001,-0.87418216
81952064273652,-1.0681788,9.920172,-1.4058765
81952084129141,-1.2382251,10.140513,-1.583108
81952103984500,-1.6956740000000001,9.611214,-0.19878663
81952123839989,-1.5208374,9.19927,-0.17962648
81952143695478,-1.3268408999999999,10.047108,-0.97956306
81952163538557,-1.0178833,9.735755000000001,-1.4226416000000002
81952183393790,-1.7148341,10.087823,-1.2645704
81952203248890,-1.949546,9.611214,-0.30895755
81952223104122,-0.89573735,9.354947,-1.0154883
81952242959354,-0.63707525,9.283096,-0.37601808
81952262820053,-1.3364209999999999,9.604028999999999,-0.2706372
81952282675285,-1.5950831,9.704619000000001,-1.0705738
81952302530518,-1.5256275,9.7740755,-1.223855
81952322385751,-1.3962965,9.845925,-0.87897223
81952342240984,-1.5256275,9.733359,-0.68737066
81952362100495,-1.6621436,9.568104,-0.7592211999999999
81952381955728,-1.5783178999999998,9.510622999999999,-0.8286768
81952401811089,-1.4849122,9.455538,-0.82388675
81952421666450,-1.4705421,9.445957,-0.84065187
81952441521811,-1.5160475,9.687855,-0.93405765
81952461371216,-1.4178516,9.992022,-1.0873389
81952481226321,-1.0083033000000001,9.618399,-0.83586186
81952501081554,-0.7232959,9.388477,-0.42152345
81952520936659,-0.9484278,10.073453,-0.44786867
81952540791892,-0.92208254,9.826766000000001,-0.7664063
81952560650227,-1.0849438999999999,9.685459,-0.76401126
81952580505332,-1.4513819,9.881851,-0.53169435
81952600360565,-1.5112573999999999,10.257869,-0.7209009
81952620215670,-1.2166698999999999,9.75252,-0.62510014
81952640070903,-1.3891114,9.453142,-0.6777906
81952659930554,-1.4705421,9.347761,-0.62031007
81952679785915,-1.3819263000000002,9.374106,-0.87897223
81952699641148,-1.3819263000000002,9.632769,-0.8909473
81952719496509,-1.5016773,9.568104,-0.6730005
81952739351722,-1.4609618999999998,9.625584,-0.5125342
81952759214201,-1.1759547,10.102193,-0.5676197
81952779069089,-0.84065187,10.164463,-0.74006104
81952798924577,-0.6730005,9.690249,-0.6011499
81952818780065,-0.6849755999999999,9.587264,-0.4382886
81952838635425,-0.6610254,9.630374,-0.42391850000000003
81952858490456,-0.7759864000000001,9.611214,-0.62749517
81952878345944,-1.0681788,9.651928999999999,-0.6586304000000001
81952898201432,-1.3603711,9.534574000000001,-0.613125
81952918056792,-1.6453785,9.726174,-0.68018556
81952937912280,-1.7723145,10.032737,-0.85741705
81952957767000,-1.6190332,9.524992999999998,-0.9148975
81952977622360,-1.7794994999999998,9.64714,-0.7376661
81952997477848,-1.8992506000000002,9.812395,-0.6562354
81953017333208,-1.7435743000000001,9.604028999999999,-0.85023195
81953037188696,-1.5783178999999998,9.553733,-0.71371585
81953057049693,-1.4226416000000002,9.383687,-0.5221143
81953076905310,-1.0657837,9.469908,-0.49816409999999994
81953096760927,-0.9316626,9.924961,-0.78556645
81953116616541,-1.0849438999999999,10.135722999999999,-0.65384036
81953136472157,-1.2022998,9.560919,-0.7041358
81953156328615,-1.0705738,9.441168,-0.49816409999999994
81953176184231,-0.8047266,9.592053,-0.40715334
81953196039975,-0.96758795,9.853110000000001,-0.57001466
81953215895591,-1.2693603999999998,9.807606,-0.5748047
81953235751207,-1.583108,9.704619000000001,-0.68976563
81953255612260,-1.7818946,9.740545,-0.53169435
81953275468005,-1.583108,9.697434,-0.5029541000000001
81953295323750,-1.3531861,9.78605,-0.6179150999999999
81953315179495,-1.22146,9.654325,-0.5748047
81953335035240,-1.1280543,9.441168,-0.49337405
81953354890021,-1.0466236,9.510622999999999,-0.3784131
81953374745766,-0.8933423,9.599238,-0.42152345
81953394601511,-0.85023195,9.821976,-0.47181886
81953414457256,-0.92926764,9.881851,-0.4263135
81953434313001,-1.0777588,9.953702,-0.4167334
81953454168874,-1.1400293,9.788445,-0.34009278
81953474024825,-1.1088941,9.616004,-0.51492923
81953493880570,-1.0825489,9.546548,-0.62031007
81953513736315,-1.3220508,9.620794,-0.6322852
81953533592060,-1.5471827,9.630374,-0.53169435
81953553447933,-1.5543678,9.678274,-0.39757326
81953573311016,-1.2909156000000002,9.759705,-0.5460645000000001
81953593166889,-1.1975098,9.862691,-0.7831714
81953613022890,-1.1783496,9.70941,-0.7664063
81953632878891,-1.219065,9.582474000000001,-0.5221143
81953652734764,-1.3723463,9.613608000000001,-0.48139894
81953672590499,-1.3675561999999999,9.649534,-0.6490503000000001
81953692446372,-1.3531861,9.666299,-0.6322852
81953712302353,-1.2597803,9.673484,-0.5292993
81953732158226,-1.223855,9.769285,-0.5963599
81953752014227,-1.2621753,9.853110000000001,-0.7232959
81953771865016,-1.2813355,9.795630000000001,-0.77359134
81953791720758,-1.3986914,9.692644,-0.6993457
81953811576502,-1.4753321000000001,9.73815,-0.60833496
81953831432374,-1.4418018,9.618399,-0.6011499
81953851288118,-1.2957056999999998,9.592053,-0.6562354
81953871142541,-1.3148658000000002,9.637559,-0.73048097
81953890998285,-1.3172607,9.6758795,-0.84065187
81953910854029,-1.2693603999999998,9.711803999999999,-0.7544312
81953930709773,-1.2933106,9.692644,-0.67539555
81953950565645,-1.3076807,9.656719,-0.81191164
81953970422816,-1.3436059999999999,9.572892999999999,-0.8478370000000001
81953990278688,-1.3268408999999999,9.587264,-0.74006104
81954010134432,-1.3388159,9.594449000000001,-0.6658155
81954029990304,-1.2861254999999998,9.690249,-0.67539555
81954049846048,-1.1687696,9.72857,-0.77359134
81954069704389,-1.1855347,9.807606,-0.79035646
81954089560261,-1.22146,9.769285,-0.7232959
81954109416133,-1.3100758,9.7812605,-0.69695073
81954129271877,-1.4010864,9.733359,-0.67539555
81954149127750,-1.3795313,9.5633135,-0.6658155
81954168990010,-1.3100758,9.589659,-0.6993457
81954188846010,-1.2502003000000002,9.6686945,-0.74724615
81954208702010,-1.22625,9.7142,-0.75203615
81954228558010,-1.2094848999999999,9.735755000000001,-0.72569096
81954248414010,-1.22146,9.707015,-0.7232959
81954268268832,-1.223855,9.683064,-0.73527104
81954288122823,-1.2286451,9.635164,-0.6730005
81954307978824,-1.2693603999999998,9.64714,-0.5508545
81954327834825,-1.2430152,9.6758795,-0.5963599
81954347690826,-1.2046948999999998,9.683064,-0.6730005
81954367549873,-1.1783496,9.716595,-0.62510014
81954387405874,-1.1759547,9.7621,-0.6394701999999999
81954407262003,-1.219065,9.814791,-0.58198977
81954427118132,-1.2310401000000002,9.7740755,-0.58677983
81954446974133,-1.2597803,9.659114,-0.6394701999999999
81954466820510,-1.2310401000000002,9.524992999999998,-0.6945557
81954486676383,-1.22146,9.553733,-0.6346801999999999
81954506532256,-1.1903248,9.6758795,-0.48379397
81954526388257,-1.1112891000000003,9.73815,-0.5604346
81954546244130,-1.1400293,9.891430999999999,-0.613125
81954566099729,-1.1208692,9.867481,-0.62031007
81954585955474,-1.1232642,9.7740755,-0.55803955
81954605811347,-1.1424243,9.651928999999999,-0.53169435
81954625667220,-1.22625,9.575289,-0.5292993
81954645523093,-1.2022998,9.498648,-0.51971924
81954665373310,-1.1807446000000001,9.673484,-0.5508545
81954685229055,-1.1112891000000003,9.802814999999999,-0.613125
81954705084800,-1.089734,9.788445,-0.70174074
81954724940545,-1.2118799999999998,9.891430999999999,-0.6322852
81954744796290,-1.2717555,9.836346,-0.5939649
81954764646380,-1.2957056999999998,9.666299,-0.5987549
81954784501996,-1.3627661,9.510622999999999,-0.57959473
81954804357612,-1.3603711,9.481883,-0.65384036
81954824213228,-1.2693603999999998,9.601633999999999,-0.67539555
81954844068844,-1.2502003000000002,9.750125,-0.6394701999999999
81954863917031,-1.22625,9.788445,-0.6490503000000001
81954883772519,-1.22625,9.80521,-0.6730005
81954903628007,-1.2957056999999998,9.77168,-0.6490503000000001
81954923483495,-1.3100758,9.663903999999999,-0.6227050999999999
81954943338983,-1.4010864,9.589659,-0.5508545
81954963194874,-1.4418018,9.620794,-0.5484595
81954983050362,-1.3627661,9.627979,-0.5963599
81955002905850,-1.3028906999999998,9.637559,-0.62031007
81955022761210,-1.3292358999999998,9.7142,-0.6993457
81955042616698,-1.3124708,9.77168,-0.6658155
81955062470202,-1.2789403999999998,9.82437,-0.5604346
81955082325562,-1.2861254999999998,9.73815,-0.5364844
81955102180922,-1.2789403999999998,9.699829,-0.57959473
81955122036282,-1.2166698999999999,9.642349000000001,-0.6011499
81955141891642,-1.1855347,9.666299,-0.52690434
81955161746094,-1.1639795,9.6615095,-0.54366946
81955181601454,-1.1280543,9.726174,-0.5364844
81955201456814,-1.096919,9.754914999999999,-0.5412744
81955221312174,-1.0849438999999999,9.79084,-0.5484595
81955241167534,-1.0250684,9.745335,-0.5748047
81955261021071,-1.0442286,9.72857,-0.59156984
81955280876431,-1.0490186000000001,9.651928999999999,-0.5556446
81955300731791,-1.0585986,9.639954,-0.61073
81955320587023,-1.0681788,9.699829,-0.5891748
81955340442383,-1.0562036,9.798025,-0.5748047
81955360300564,-1.0873389,9.843531,-0.5340894
81955380155925,-1.0825489,9.800421,-0.5748047
81955400011286,-1.1088941,9.77168,-0.58198977
81955419866647,-1.1184741000000002,9.6615095,-0.57959473
81955439722008,-1.1711646,9.6615095,-0.5676197
81955459574181,-1.214275,9.695039999999999,-0.5221143
81955479429414,-1.2310401000000002,9.695039999999999,-0.42870852
81955499284647,-1.2334352,9.730965,-0.45984375
81955519139880,-1.0681788,9.759705,-0.5604346
81955538995113,-0.97956306,9.74773,-0.63707525
81955558858806,-1.0585986,9.685459,-0.5508545
81955578714167,-1.0849438999999999,9.582474000000001,-0.5221143
81955598569528,-1.0705738,9.5489435,-0.48379397
81955618424889,-1.0777588,9.64714,-0.44786867
81955638280250,-1.1136841999999998,9.72857,-0.41912845
81955658139787,-1.0801538,9.872271000000001,-0.40954837
81955677995276,-1.0370435,9.845925,-0.4622388
81955697850765,-1.0442286,9.7740755,-0.5484595
81955717706254,-1.0633887,9.74773,-0.46463382
81955737561724,-1.0298585,9.716595,-0.38320315
81955757420473,-1.0609937,9.742939999999999,-0.41912845
81955777276089,-1.0370435,9.635164,-0.4047583
81955797131577,-1.0011181999999998,9.627979,-0.4622388
81955816987193,-1.0514137,9.666299,-0.5245093000000001
81955836842809,-1.0059083,9.800421,-0.51013917
81955856694183,-1.0657837,9.889036,-0.44307864
81955876549799,-1.1687696,9.759705,-0.39757326
81955896405287,-1.1879296999999998,9.606423,-0.48618898
81955916260775,-1.1687696,9.611214,-0.5843848
81955936116391,-1.1663746000000002,9.654325,-0.5508545
81955955971806,-1.1520045,9.637559,-0.4742139
81955975827294,-1.1687696,9.6615095,-0.4526587
81955995682910,-1.2070899,9.742939999999999,-0.50774413
81956015538526,-1.1663746000000002,9.833950999999999,-0.5388794
81956035394142,-1.1160791,9.745335,-0.45505372
81956055253141,-1.1280543,9.618399,-0.46463382
81956075108757,-1.1591895,9.620794,-0.5412744
81956094964373,-1.1999048,9.649534,-0.4742139
81956114819990,-1.2070899,9.697434,-0.38320315
81956134675607,-1.1855347,9.735755000000001,-0.42152345
81956154531221,-1.1064991000000002,9.79084,-0.6011499
81956174391171,-1.1064991000000002,9.877061,-0.6227050999999999
81956194246915,-1.0849438999999999,9.7812605,-0.4742139
81956214102659,-1.1136841999999998,9.6758795,-0.45744875
81956233958531,-1.1256591999999999,9.654325,-0.51971924
81956253813142,-1.1208692,9.637559,-0.5676197
81956273671927,-1.1376343,9.671089,-0.488584
81956293527800,-1.101709,9.75252,-0.49337405
81956313383673,-1.0801538,9.83874,-0.5987549
81956333239418,-1.1256591999999999,9.867481,-0.59156984
81956353095291,-1.0849438999999999,9.857901,-0.51732427
81956372954722,-1.0370435,9.695039999999999,-0.54366946
81956392810595,-1.0298585,9.577683,-0.6227050999999999
81956412666468,-1.099314,9.522598,-0.62749517
81956432522469,-1.1639795,9.568104,-0.53169435
81956452378342,-1.1472143999999997,9.735755000000001,-0.5125342
81956472227979,-1.1256591999999999,9.896221,-0.5628295999999999
81956492083596,-1.1352394,9.879456,-0.6322852
81956511939341,-1.1879296999999998,9.7740755,-0.6706055000000001
81956531795086,-1.1543995,9.649534,-0.6394701999999999
81956551650831,-1.1448194,9.601633999999999,-0.61073
81956571511274,-1.1543995,9.625584,-0.57001466
81956591367147,-1.1759547,9.623189,-0.5604346
81956611223020,-1.2022998,9.687855,-0.55803955
81956631078893,-1.1543995,9.7812605,-0.6227050999999999
81956650934638,-1.096919,9.850716,-0.6586304000000001
81956670783195,-1.0873389,9.83874,-0.58198977
81956690638940,-1.1112891000000003,9.6615095,-0.5508545
81956710494685,-1.1711646,9.644744000000001,-0.61552006
81956730350280,-1.2861254999999998,9.651928999999999,-0.6059399999999999
81956750202793,-1.2741505,9.651928999999999,-0.5676197
81956770058410,-1.2286451,9.637559,-0.5029541000000001
81956789914025,-1.099314,9.75252,-0.65384036
81956809769769,-1.0442286,9.81958,-0.63707525
81956829625386,-1.094524,9.829161000000001,-0.613125
81956849478197,-1.1759547,9.70941,-0.5724097
81956869333685,-1.1975098,9.601633999999999,-0.55324954
81956889189302,-1.1711646,9.611214,-0.5245093000000001
81956909044789,-1.1256591999999999,9.589659,-0.5364844
81956928900405,-1.089734,9.68067,-0.5748047
81956948755894,-1.0921290000000001,9.793235000000001,-0.6442603
81956968605109,-1.1448194,9.869876,-0.65384036
81956988460469,-1.1687696,9.917776,-0.5748047
81957008315958,-1.1735597,9.788445,-0.5628295999999999
81957028171317,-1.2070899,9.596844,-0.5891748
81957048024044,-1.1975098,9.529783,-0.5748047
81957067879405,-1.1088941,9.580078,-0.55803955
81957087734764,-1.0442286,9.637559,-0.5724097
81957107590124,-1.0370435,9.750125,-0.62989014
81957127445485,-1.0873389,9.850716,-0.61073
81957147306665,-1.099314,9.924961,-0.5724097
81957167162153,-1.0705738,9.754914999999999,-0.5292993
81957187017642,-1.1088941,9.690249,-0.5891748
81957206873129,-1.1496094,9.577683,-0.62031007
81957226728617,-1.2022998,9.618399,-0.5029541000000001
81957246584106,-1.1520045,9.663903999999999,-0.4143384
81957266439830,-1.0633887,9.745335,-0.5484595
81957286295318,-1.0633887,9.853110000000001,-0.62510014
81957306150807,-1.0585986,9.860296,-0.5388794
81957326006422,-0.9987232,9.814791,-0.49816409999999994
81957345860427,-1.0250684,9.74773,-0.51732427
81957365715788,-1.0873389,9.5633135,-0.5412744
81957385571277,-1.1831397,9.594449000000001,-0.48379397
81957405426766,-1.1328443000000001,9.72857,-0.40715334
81957425282255,-1.0154883,9.783655,-0.4382886
81957445137744,-0.9699829,9.759705,-0.48139894
81957464985973,-0.98914313,9.75731,-0.50534916
81957484841206,-1.0538087,9.795630000000001,-0.5221143
81957504696439,-0.98914313,9.730965,-0.488584
81957524551672,-1.0346485,9.587264,-0.45744875
81957544407033,-1.096919,9.604028999999999,-0.44547364
81957564264384,-1.089734,9.72378,-0.39757326
81957584119617,-1.0202783000000002,9.908196,-0.43589357
81957603974978,-0.98914313,9.877061,-0.45984375
81957623830211,-1.0106983,9.695039999999999,-0.49576905
81957643688646,-1.096919,9.721385,-0.47181886
81957663544007,-1.0609937,9.685459,-0.4047583
81957683399368,-1.0322535,9.639954,-0.41912845
81957703254601,-1.1424243,9.620794,-0.37601808
81957723109962,-1.0873389,9.671089,-0.4766089
81957742965323,-0.98914313,9.72857,-0.5125342
81957762827574,-0.98435307,9.853110000000001,-0.51971924
81957782683063,-1.0801538,9.80521,-0.5029541000000001
81957802538422,-1.1064991000000002,9.72857,-0.47181886
81957822393910,-1.0873389,9.788445,-0.39278322
81957842249399,-1.101709,9.78605,-0.5005590999999999
81957862103088,-0.9915381,9.489068,-0.4622388
81957881958576,-1.0777588,9.632769,-0.49576905
81957901814065,-1.0849438999999999,9.72857,-0.4622388
81957921669424,-0.9436377,9.855506,-0.5029541000000001
81957941531166,-0.974773,9.860296,-0.44068359999999995
81957961386783,-1.0418334999999999,9.80521,-0.57001466
81957981242398,-1.0394385,9.654325,-0.59156984
81958001098014,-1.0442286,9.589659,-0.5604346
81958020953631,-1.1376343,9.534574000000001,-0.5029541000000001
81958040809246,-1.0705738,9.589659,-0.51013917
81958060672463,-0.98435307,9.72378,-0.52690434
81958080528208,-1.0106983,9.869876,-0.5939649
81958100383951,-1.0322535,9.869876,-0.56522465
81958120239695,-0.974773,9.81958,-0.51013917
81958140095568,-0.9651929,9.783655,-0.51971924
81958159958534,-1.0370435,9.654325,-0.63707525
81958179814534,-1.0705738,9.587264,-0.62510014
81958199670535,-1.1041040000000002,9.613608000000001,-0.5245093000000001
81958219526534,-1.0442286,9.642349000000001,-0.49097902
81958239381650,-1.0370435,9.7621,-0.61552006
81958259237651,-1.0178833,9.850716,-0.6514453
81958279093522,-0.98435307,9.891430999999999,-0.58677983
81958298949522,-0.9651929,9.82437,-0.57001466
81958318805523,-1.0633887,9.735755000000001,-0.6490503000000001
81958338661394,-1.1304493,9.632769,-0.6346801999999999
81958358514113,-1.1112891000000003,9.611214,-0.5125342
81958378370114,-1.0442286,9.649534,-0.5221143
81958398225985,-1.0202783000000002,9.707015,-0.6849755999999999
81958418081985,-0.9867481,9.793235000000001,-0.73048097
81958437937858,-1.0298585,9.960887,-0.6059399999999999
81958457789785,-1.0035132,9.8866415,-0.58198977
81958477645657,-1.0106983,9.651928999999999,-0.73527104
81958497501530,-1.1328443000000001,9.489068,-0.73527104
81958517357401,-1.1759547,9.491463000000001,-0.6658155
81958537213273,-1.1520045,9.635164,-0.488584
81958557069146,-1.0226734,9.83874,-0.57719976
81958576920933,-1.0011181999999998,9.845925,-0.7041358
81958596776677,-0.9699829,9.879456,-0.7951465
81958616632422,-1.0130934,9.896221,-0.66342044
81958636488165,-1.0250684,9.793235000000001,-0.62031007
81958656334114,-1.099314,9.599238,-0.6682104999999999
81958676189603,-1.1136841999999998,9.544153,-0.6562354
81958696045218,-1.0106983,9.5561285,-0.6586304000000001
81958715900706,-0.98195803,9.6686945,-0.6825806
81958735756323,-0.9915381,9.795630000000001,-0.7424561
81958755616497,-1.0226734,9.874666,-0.7065308000000001
81958775471195,-1.0035132,9.896221,-0.73048097
81958795326812,-1.0729688,9.74773,-0.7232959
81958815182427,-1.0753639,9.577683,-0.72569096
81958835038171,-1.0777588,9.589659,-0.69216067
81958854893788,-1.0059083,9.620794,-0.6610254
81958874740163,-0.9915381,9.730965,-0.75203615
81958894595651,-1.0202783000000002,9.807606,-0.6945557
81958914451140,-1.0322535,9.855506,-0.6945557
81958934306627,-0.96758795,9.807606,-0.69695073
81958954157729,-0.9627979,9.7621,-0.73527104
81958974013090,-1.0753639,9.6686945,-0.76161623
81958993868449,-1.1088941,9.546548,-0.7065308000000001
81959013723809,-1.0801538,9.644744000000001,-0.5963599
81959033579298,-1.0585986,9.733359,-0.65384036
81959053437371,-1.0466236,9.77647,-0.7448511
81959073292731,-1.0562036,9.81958,-0.68737066
81959093148092,-1.0083033000000001,9.814791,-0.6586304000000001
81959113003323,-1.0011181999999998,9.7621,-0.7065308000000001
81959132858683,-1.0729688,9.6686945,-0.7089258
81959152714044,-1.1208692,9.594449000000001,-0.6849755999999999
81959172573024,-1.101709,9.601633999999999,-0.6466553
81959192428384,-1.0466236,9.637559,-0.6730005
81959212283745,-1.0585986,9.77647,-0.7448511
81959232139232,-1.0538087,9.826766000000001,-0.6849755999999999
81959251992209,-1.0250684,9.841136,-0.6562354
81959271847442,-1.0011181999999998,9.73815,-0.67539555
81959291702801,-1.0083033000000001,9.7142,-0.76161623
81959311558161,-1.1064991000000002,9.673484,-0.67539555
81959331413522,-1.0753639,9.599238,-0.6514453
81959351266369,-0.9915381,9.608819,-0.64186525
81959371121601,-0.94603276,9.72857,-0.76161623
81959390976962,-0.9963281999999999,9.860296,-0.7232959
81959410832193,-0.98435307,9.896221,-0.6011499
81959430687553,-0.90771246,9.788445,-0.6394701999999999
81959450542914,-0.9699829,9.683064,-0.7592211999999999
81959470400015,-1.0633887,9.575289,-0.7592211999999999
81959490255247,-1.0777588,9.580078,-0.62031007
81959510110480,-1.0418334999999999,9.740545,-0.5484595
81959529965711,-0.9268726,9.795630000000001,-0.6993457
81959549817153,-0.93405765,9.814791,-0.78556645
81959569672386,-1.0130934,9.800421,-0.7496411000000001
81959589527617,-1.0298585,9.733359,-0.6466553
81959609382721,-1.0250684,9.644744000000001,-0.613125
81959629237954,-1.099314,9.654325,-0.68976563
81959649093185,-1.0921290000000001,9.608819,-0.6658155
81959668957571,-0.9867481,9.726174,-0.6586304000000001
81959688812932,-0.977168,9.81,-0.6394701999999999
81959708668419,-0.88376224,9.826766000000001,-0.728086
81959728523779,-0.9651929,9.821976,-0.6706055000000001
81959748379140,-1.0106983,9.726174,-0.6730005
81959768235128,-1.0514137,9.616004,-0.6562354
81959788090616,-1.0633887,9.560919,-0.6011499
81959807946105,-1.0657837,9.649534,-0.6562354
81959827801592,-1.0346485,9.766891000000001,-0.6682104999999999
81959847658706,-0.974773,9.814791,-0.68737066
81959867514323,-0.96758795,9.821976,-0.69695073
81959887369810,-0.9963281999999999,9.80521,-0.68976563
81959907225426,-1.0106983,9.77168,-0.6730005
81959927080915,-1.0226734,9.654325,-0.6490503000000001
81959946936402,-0.99393314,9.558523,-0.6682104999999999
81959966794340,-0.94603276,9.632769,-0.71371585
81959986649957,-1.0106983,9.75252,-0.68018556
81960006505572,-1.0633887,9.793235000000001,-0.6227050999999999
81960026361188,-1.0274634,9.802814999999999,-0.60354495
81960046216805,-0.91010743,9.79084,-0.6706055000000001
81960066071770,-0.9196875,9.764495,-0.7783814
81960085927386,-1.0059083,9.687855,-0.7185059
81960105783003,-1.094524,9.659114,-0.58198977
81960125638618,-1.1136841999999998,9.644744000000001,-0.49097902
81960145502232,-1.0562036,9.718989,-0.5604346
81960165357977,-1.0035132,9.764495,-0.67539555
81960185213848,-0.9412427,9.850716,-0.62989014
81960205069592,-0.96040285,9.826766000000001,-0.62749517
81960224925337,-0.974773,9.831555,-0.62989014
81960244781080,-1.0418334999999999,9.73815,-0.61552006
81960264643936,-1.099314,9.584868,-0.60833496
81960284499681,-1.1448194,9.551338000000001,-0.5843848
81960304355552,-1.0418334999999999,9.608819,-0.57719976
81960324211424,-0.92208254,9.72857,-0.6059399999999999
81960344067297,-0.91729254,9.915381,-0.66342044
81960363924015,-0.96758795,9.8938265,-0.6011499
81960383779887,-0.977168,9.862691,-0.55324954
81960403635888,-0.9580079,9.735755000000001,-0.6059399999999999
81960423491759,-1.0418334999999999,9.577683,-0.6825806
81960443338732,-1.0777588,9.558523,-0.60833496
81960463194349,-1.0562036,9.613608000000001,-0.48379397
81960483050092,-0.9388476999999998,9.814791,-0.5245093000000001
81960502905836,-0.9148975,9.901011,-0.6322852
81960522761581,-0.9364527,9.881851,-0.62749517
81960542617324,-0.92926764,9.826766000000001,-0.51971924
81960562460365,-0.9316626,9.678274,-0.5676197
81960582315854,-1.0562036,9.639954,-0.6706055000000001
81960602171341,-1.089734,9.627979,-0.5748047
81960622026701,-0.974773,9.604028999999999,-0.51492923
81960641882190,-0.9699829,9.7142,-0.5676197
81960661724700,-0.9484278,9.855506,-0.6682104999999999
81960681579932,-0.98435307,9.843531,-0.57001466
81960701435165,-0.98435307,9.821976,-0.54366946
81960721290396,-0.9651929,9.726174,-0.5963599
81960741142135,-1.0059083,9.742939999999999,-0.64186525
81960760997368,-1.089734,9.639954,-0.5843848
81960780852599,-1.0562036,9.599238,-0.60354495
81960800708757,-1.0226734,9.707015,-0.6394701999999999
81960820563990,-1.0250684,9.826766000000001,-0.6825806
81960840419221,-1.0106983,9.857901,-0.6059399999999999
81960860265621,-0.9388476999999998,9.831555,-0.56522465
81960880120598,-0.9508228000000001,9.704619000000001,-0.6682104999999999
81960899975573,-1.0154883,9.663903999999999,-0.7041358
81960919830549,-1.1304493,9.599238,-0.58677983
81960939685526,-1.0777588,9.608819,-0.5628295999999999
81960959548838,-1.0442286,9.656719,-0.60833496
81960979403942,-0.9651929,9.821976,-0.67539555
81960999258919,-0.974773,9.917776,-0.6059399999999999
81961019114022,-0.9484278,9.836346,-0.59156984
81961038969126,-1.0059083,9.783655,-0.5963599
81961058824231,-1.0466236,9.635164,-0.6011499
81961078676524,-1.0729688,9.616004,-0.5484595
81961098531500,-1.0921290000000001,9.642349000000001,-0.488584
81961118386605,-1.0226734,9.716595,-0.59156984
81961138241580,-0.94603276,9.77647,-0.6227050999999999
81961158096186,-0.977168,9.836346,-0.63707525
81961177951163,-0.99393314,9.833950999999999,-0.57001466
81961197806010,-1.0059083,9.800421,-0.5484595
81961217660986,-1.0657837,9.683064,-0.5460645000000001
81961237515963,-1.1304493,9.5633135,-0.6322852
81961257376311,-1.1088941,9.620794,-0.5364844
81961277231287,-1.0083033000000001,9.769285,-0.48618898
81961297086392,-0.9699829,9.82437,-0.56522465
81961316941495,-1.0178833,9.788445,-0.6394701999999999
81961336796471,-0.9867481,9.901011,-0.57001466
81961356651576,-0.99393314,9.754914999999999,-0.50774413
81961376499938,-1.0154883,9.568104,-0.5843848
81961396354786,-1.094524,9.5489435,-0.55324954
81961416209763,-1.0322535,9.649534,-0.5484595
81961436064610,-0.977168,9.829161000000001,-0.49337405
81961455933393,-0.98435307,9.862691,-0.55324954
81961475788498,-0.9987232,9.798025,-0.6394701999999999
81961495643473,-1.0801538,9.7740755,-0.5748047
81961515498577,-1.0777588,9.740545,-0.51732427
81961535353682,-1.089734,9.570497999999999,-0.5245093000000001
81961555209838,-1.1376343,9.565708,-0.51971924
81961575064942,-1.101709,9.68067,-0.5484595
81961594920175,-0.96040285,9.795630000000001,-0.5604346
81961614775278,-0.97237796,9.860296,-0.59156984
81961634630382,-1.0226734,9.81958,-0.60354495
81961654485487,-1.0106983,9.697434,-0.58677983
81961674350641,-1.0825489,9.64714,-0.55803955
81961694205873,-1.1136841999999998,9.589659,-0.55803955
81961714061234,-1.0633887,9.551338000000001,-0.56522465
81961733916465,-1.0322535,9.7142,-0.61552006
81961753782589,-1.0346485,9.77168,-0.6658155
81961773638206,-1.0538087,9.915381,-0.57719976
81961793493821,-1.0514137,9.910591,-0.5364844
81961813349437,-1.0490186000000001,9.742939999999999,-0.62510014
81961833205054,-1.094524,9.637559,-0.6059399999999999
81961853070799,-1.1160791,9.587264,-0.5963599
81961872926671,-1.1112891000000003,9.644744000000001,-0.613125
81961892782672,-1.1304493,9.72378,-0.5724097
81961912638671,-1.0538087,9.764495,-0.62749517
81961932494543,-1.0106983,9.671089,-0.6658155
81961952350544,-1.0753639,9.7621,-0.68976563
81961972211328,-1.1400293,9.903406,-0.6610254
81961992067456,-1.1041040000000002,9.81,-0.6490503000000001
81962011923585,-1.1232642,9.625584,-0.6586304000000001
81962031779712,-1.2166698999999999,9.606423,-0.75203615
81962051636760,-1.1855347,9.673484,-0.71371585
81962071493017,-1.101709,9.72857,-0.65384036
81962091349272,-1.1424243,9.745335,-0.7161109
81962111205400,-1.1328443000000001,9.699829,-0.80233157
81962131061657,-1.1735597,9.769285,-0.69695073
81962150917912,-1.2022998,9.711803999999999,-0.5987549
81962170771515,-1.214275,9.594449000000001,-0.62749517
81962190627772,-1.1951148999999999,9.623189,-0.7424561
81962210483899,-1.2070899,9.721385,-0.74006104
81962230340155,-1.1400293,9.81,-0.7544312
81962250196412,-1.1184741000000002,9.750125,-0.7496411000000001
81962270050468,-1.1376343,9.733359,-0.7951465
81962289906596,-1.1352394,9.606423,-0.81191164
81962309762725,-1.1903248,9.604028999999999,-0.8310718
81962329618852,-1.3100758,9.587264,-0.81191164
81962349478918,-1.3052857,9.611214,-0.82388675
81962369335047,-1.2166698999999999,9.793235000000001,-0.8430469
81962389191174,-1.2502003000000002,9.740545,-0.8478370000000001
81962409047302,-1.2525953,9.80521,-0.8310718
81962428903559,-1.2621753,9.7812605,-0.7783814
81962448759686,-1.1879296999999998,9.699829,-0.8262818000000001
81962468606190,-1.1975098,9.541758999999999,-0.852627
81962488462191,-1.2933106,9.486672,-0.92926764
81962508318062,-1.3028906999999998,9.580078,-0.82388675
81962528174062,-1.1879296999999998,9.7621,-0.76161623
81962548029935,-1.1615845,9.81958,-0.7783814
81962567885961,-1.1975098,9.683064,-0.85023195
81962587741961,-1.2502003000000002,9.766891000000001,-0.84065187
81962607598090,-1.223855,9.68067,-0.7879615
81962627454089,-1.1711646,9.496253,-0.6945557
81962647304544,-1.1831397,9.536968,-0.7448511
81962667160417,-1.1951148999999999,9.551338000000001,-0.8047266
81962687016288,-1.099314,9.503438000000001,-0.74006104
81962706872160,-1.1639795,9.582474000000001,-0.6466553
81962726728033,-1.2046948999999998,9.692644,-0.73527104
81962746583904,-1.1280543,9.627979,-0.79754156
81962766434662,-1.1759547,9.5561285,-0.7376661
81962786290535,-1.1759547,9.429193,-0.7807764
81962806146278,-1.1448194,9.503438000000001,-0.7879615
81962825994778,-1.0921290000000001,9.584868,-0.8430469
81962845850523,-1.223855,9.594449000000001,-0.81909674
81962865698336,-1.1543995,9.673484,-0.7879615
81962885553952,-1.0753639,9.740545,-0.84544194
81962905409569,-1.1975098,9.656719,-0.9029224
81962925265056,-1.3292358999999998,9.546548,-0.8167017
81962945116070,-1.2525953,9.527389,-0.7783814
81962964971431,-1.2549903,9.536968,-0.86939216
81962984826790,-1.2645704,9.5489435,-0.9412427
81963004682150,-1.223855,9.613608000000001,-0.8933423
81963024537511,-1.1807446000000001,9.601633999999999,-0.90052736
81963044392998,-1.2334352,9.568104,-0.974773
81963064245591,-1.3483961000000002,9.433982,-0.90771246
81963084101080,-1.3388159,9.445957,-0.8646021
81963103956439,-1.3004956,9.532178,-0.8885523000000001
81963123811799,-1.2645704,9.5489435,-0.93405765
81963143667160,-1.2166698999999999,9.553733,-0.8933423
81963163523165,-1.2502003000000002,9.68067,-0.8861573
81963183378525,-1.2717555,9.687855,-0.86939216
81963203233886,-1.2502003000000002,9.520203,-0.83586186
81963223089117,-1.2693603999999998,9.402847,-0.84544194
81963242938400,-1.3052857,9.433982,-0.87418216
81963262793505,-1.2502003000000002,9.477093,-0.94603276
81963282648736,-1.2765454,9.584868,-0.92208254
81963302503968,-1.3244458000000001,9.596844,-0.7927515
81963322359201,-1.2693603999999998,9.510622999999999,-0.8214916999999999
81963342214432,-1.2478052,9.436378,-0.85023195
81963362072253,-1.1999048,9.436378,-0.8382569
81963381927614,-1.2909156000000002,9.5561285,-0.7711963000000001
81963401782845,-1.4154567,9.618399,-0.57719976
81963421638077,-1.3244458000000001,9.599238,-0.61552006
81963441493310,-1.2166698999999999,9.599238,-0.8047266
81963461351875,-1.1999048,9.560919,-0.6586304000000001
81963481207235,-1.1807446000000001,9.601633999999999,-0.5460645000000001
81963501062468,-1.1711646,9.673484,-0.4742139
81963520917827,-1.1112891000000003,9.644744000000001,-0.43589357
81963540773059,-1.0394385,9.522598,-0.6227050999999999
81963560628420,-1.0514137,9.412427000000001,-0.8310718
81963580481365,-1.1903248,9.551338000000001,-0.7113208000000001
81963600336597,-1.1951148999999999,9.584868,-0.49337405
81963620191830,-0.98914313,9.493857,-0.54366946
81963640047061,-0.9053174,9.639954,-0.50534916
81963659906063,-0.60354495,9.527389,-0.59156984
81963679761296,-0.32332766,9.189691,-0.76161623
81963699616527,-0.5963599,9.508227999999999,-1.0226734
81963719471887,-0.96758795,9.79084,-1.0130934
81963739327120,-0.79993653,9.800421,-1.0562036
81963759191447,-0.50534916,9.879456,-0.94603276
81963779046807,-0.4622388,9.77168,-0.6394701999999999
81963798902296,-0.6059399999999999,9.716595,-0.51013917
81963818757655,-0.91010743,9.616004,-0.42870852
81963838613143,-1.2597803,9.474698,-0.13651612
81963858468504,-1.3675561999999999,9.441168,0.18681154
81963878329775,-0.9029224,9.426797,0.25147706
81963898185391,-0.23231691,9.503438000000001,-0.19639161
81963918041008,0.16765137,9.620794,-0.5676197
81963937896623,0.24908204,9.618399,-0.6394701999999999
81963957764239,0.016765138,9.419611999999999,-0.26345217
81963977620112,-0.12693603,9.414823,0.19878663
81963997476111,-0.043110352000000005,9.541758999999999,0.2562671
81964017331983,-0.059875492,9.769285,-0.06227051
81964037187856,-0.41194338,9.941727,-0.38320315
81964057043655,-0.61552006,9.683064,-0.2945874
81964076899528,-0.5412744,9.465117,-0.15088624
81964096755529,0.033530276,9.78605,-0.2562671
81964116611399,0.5245093000000001,9.956097,-0.49097902
81964136467399,0.37122804,9.565708,-0.5891748
81964156323272,0.011975098,9.510622999999999,-0.4143384
81964176180111,-0.13651612,9.625584,-0.33530274
81964196035983,-0.20118165,9.649534,-0.42391850000000003
81964215891984,-0.3520679,10.157278,-0.62031007
81964235747983,-0.4023633,10.770403,-0.5029541000000001
81964255612766,-0.5748047,11.031461,-0.09580079
81964275468895,-0.40715334,11.321258,-0.081430666
81964295325152,0.119750984,12.353511,-0.3065625
81964315181281,0.21315674,12.717554,0.3520679
81964335037538,0.07903565,12.382252000000001,0.6945557
81964354893667,0.20597169,11.682906,1.463357
81964374745700,0.016765138,10.619517,2.6009912
81964394601829,-0.42152345,9.316627,1.3986914
81964414457958,-0.1460962,10.001602,0.031135255
81964434314087,1.3507911,12.80138,-2.2752686
81964454170216,3.1183155,12.28645,-3.3099171999999997
81964474016263,4.557722599999999,10.35367,-2.9937747000000003
81964493872264,4.727769,9.735755000000001,-0.95561284
81964513728137,1.2094848999999999,11.685300999999999,-1.1687696
81964533584138,-1.9016455,14.116245000000001,-2.4812402999999996
81964553440011,-4.0691385,13.517489999999999,1.1256591999999999
81964573290208,-3.6907252999999995,11.931988,4.912185
81964593146081,-1.829795,9.910591,2.2800586
81964613001954,-0.97956306,7.905959599999999,-1.6884888
81964632857827,0.5364844,7.31918,-3.67875
81964652713700,1.9064356,7.7814190000000005,-2.3351439999999997
81964672559467,2.7351123999999998,6.9958525,-2.0621118999999997
81964692415084,1.2669654,6.100115,-1.0633887
81964712270701,-0.75203615,5.7696023,0.8143066999999999
81964732126423,-2.1531227000000004,4.2080493,1.1783496
81964751982040,-3.0823902999999997,2.8740237,1.5687379
81964771834022,-3.4871485,2.8764186,3.6548
81964791689638,-2.5985963,3.0129347,3.9422023
81964811545254,-1.1975098,4.0595584,4.3158255
81964831400870,-0.16525635,6.0426345,5.848637999999999
81964851257756,0.98435307,10.554852,8.375383
81964871108781,1.0442286,18.089582,4.689448400000001
81964890964269,-0.69695073,18.736238,2.5315359
81964910819629,-1.8489552,10.209969000000001,3.5254687999999996
81964930675117,-3.671565,6.825806,5.628296400000001
81964950530477,-5.671406299999999,9.426797,2.5770411
81964970387239,-8.131092,17.08128,-1.6405883999999997
81964990242727,1.6980689999999998,19.157763,3.891907
81965010098087,2.44292,8.768167,-7.565867
81965029953447,3.5302589999999996,6.353987,-6.6533647
81965049808935,4.011657700000001,7.726333,-4.0859036
81965069659033,2.2297632999999997,10.854229,-4.703819
81965089514393,-0.8430469,12.875625999999999,-3.4991236000000003
81965109369625,-3.5374440000000003,12.540322999999999,6.7467704
81965129224985,-2.3998096,9.7621,5.942044
81965149080217,-0.977168,6.7803005999999995,-2.299219
81965168928538,-1.0394385,6.713239999999999,0.8813671999999999
81965188783515,-0.9364527,8.643626,3.0177248
81965208638620,0.3065625,8.619676,1.1232642
81965228493721,0.05269043,8.140672,-0.7376661
81965248348697,-0.5460645000000001,8.899892999999999,-0.6059399999999999
81965268209433,-0.6610254,9.153765,-0.47181886
81965288064537,-0.038320314,9.19448,0.3784131
81965307919642,0.16765137,10.291399,1.2885206
81965327774747,-0.34248779999999995,10.904525,-0.07424561
81965347629852,0.28500733,11.175161,-0.2945874
81965367489321,1.0801538,12.193045,1.1064991000000002
81965387344554,0.50534916,12.684024,1.8824854
81965407199787,0.6011499,11.742782,1.4801221000000002
81965427055020,1.1352394,10.990746000000001,1.2885206
81965446910253,0.8646021,11.141631,0.11256592
81965466771286,-1.8489552,13.158237,-0.34248779999999995
81965486626519,-1.9950514,14.188096,1.331631
81965506481880,0.9963281999999999,12.561878,-0.7376661
81965526337241,4.382886,13.2420635,-5.352869
81965546192474,5.47741,13.812078,-5.8007374
81965566048713,3.1326857000000006,14.221626,-2.4022048
81965585904074,2.6105714,14.200071,3.5422339999999997
81965605759435,3.6571949999999998,12.954661,4.9265550000000005
81965625614924,3.4248781000000004,11.041039999999999,0.09340577
81965645470285,1.9184108,10.729688000000001,-1.5447876
81965665332592,2.454895,8.552615,-5.762417299999999
81965685188081,2.1219873,5.9875492999999995,-9.242381
81965705043570,-0.97237796,5.669011599999999,-6.8976564
81965724899059,-3.307522,6.832991000000001,-3.0081446
81965744754676,-4.25595,7.0293827,0.5963599
81965764618531,-5.9635987,6.8042507,2.0381618
81965784474275,-6.4162574,6.761140299999999,1.5447876
81965804330019,-4.0739284,6.5384035,1.3675561999999999
81965824185635,-2.327959,7.084467999999999,1.5591576999999999
81965844041379,-1.1088941,7.680828,1.3196558
81965863905419,-0.44547364,9.21364,2.8452832999999997
81965883761419,-1.1687696,12.20502,4.4451566
81965903617419,-0.59156984,14.394067999999999,6.308481700000001
81965923473419,2.7231374,13.244457999999998,10.506950999999999
81965943329419,4.150569,10.542876,1.3531861
81965963182909,5.630691000000001,11.970308000000001,-7.3934255
81965983038909,0.8669971,11.728411,-7.364685499999999
81966002894781,-2.8740237,9.467513,-2.3327491
81966022750781,-4.4643164,8.044871,5.027146299999999
81966042606781,-3.671565,8.270002,2.0190015
81966062459892,-3.1566357999999997,11.050621000000001,-8.133486999999999
81966082315764,-1.6405883999999997,11.050621000000001,-4.9241605
81966102171764,-0.73527104,11.263778,1.4609618999999998
81966122027636,0.45744875,11.433824000000001,-0.2682422
81966141883636,1.1903248,9.924961,-0.51013917
81966161739509,0.7711963000000001,7.896380000000001,0.48379397
81966181588446,0.05269043,7.795789,0.16046631
81966201444191,-1.1112891000000003,8.672366,0.059875492
81966221300060,-2.699187,8.784932000000001,0.08861572
81966241155804,-3.4751735,8.717872,-0.8310718
81966261011548,-3.2260914,8.993299,-1.1232642
81966280871435,-2.2058132,9.369317,-0.61073
81966300727307,-0.91250247,10.391991,0.014370117
81966320583051,0.19399660000000002,10.236314,-1.2861254999999998
81966340438923,0.9029224,9.953702,-2.7901978
81966360294795,0.5364844,11.038646,-1.7627343999999998
81966380144742,0.26584718,12.456497,1.4178516
81966400000358,1.0106983,12.686419,1.8920655
81966419856102,1.7747096000000002,12.523558,-0.081430666
81966439711846,1.6956740000000001,12.209810000000001,-1.5543678
81966459567590,1.4250367,11.869717999999999,-1.9255958
81966479410954,1.6238233,11.512858999999999,-1.6956740000000001
81966499266442,1.3028906999999998,11.165582,-2.2728736
81966519121930,-0.5364844,10.962005,-2.9770092999999997
81966538977418,-2.7399025000000004,10.825489,-3.4440382000000005
81966558832906,-3.0991554,9.987232,-3.5254687999999996
81966578683949,-3.4871485,11.601475,-2.8692336
81966598539437,-2.912344,12.542717999999999,-3.4440382000000005
81966618394797,-2.191443,12.669654,-1.1472143999999997
81966638250285,-1.9567311,11.836186999999999,0.26345217
81966658105645,-2.4740553,10.859019,0.21555176
81966677954875,-3.9110669999999996,9.735755000000001,0.6610254
81966697810107,-2.1627028,9.239985,1.3220508
81966717665339,-1.2765454,8.289163,0.5005590999999999
81966737520571,-1.6357985000000002,7.482041400000001,0.6227050999999999
81966757375803,0.031135255,7.4269557,-1.2478052
81966777226019,0.5891748,6.567144,-3.4416432
81966797081123,-1.6525636000000001,4.4283915,-2.2129982000000004
81966816936227,-2.1555176,4.4116263,1.5495777
81966836791331,-1.7220191000000002,6.8018556,2.579436
81966856645875,-2.6081765,8.780142,1.4992822000000001
81966876499187,-2.5578809,7.8125539999999996,0.728086
81966896354291,-1.6525636000000001,7.216194000000001,1.4873072
81966916209267,-0.9987232,7.817344,2.699187
81966936064243,-0.61552006,8.995694,3.4057178
81966955919347,-0.0071850587,10.459050999999999,3.0368847999999997
81966975775280,1.1424243,10.863809,1.1160791
81966995630256,1.5807129,10.135722999999999,0.488584
81967015485360,0.7831714,9.577683,2.3543043
81967035340336,-0.13651612,9.369317,4.7133985
81967055195312,-0.51971924,8.54064,6.852151400000001
81967075047210,-0.33290774,7.4844365,6.959927
81967094902058,-0.26584718,9.3309965,4.7972245000000004
81967114757034,0.4143384,13.040882,1.1759547
81967134612010,-1.0202783000000002,13.3689995,-6.2031007
81967154466858,0.07185059,11.215877,-9.742939999999999
81967174321121,0.49097902,12.274476,-4.2367897
81967194175969,-3.9230419999999997,14.152171,-1.7172291000000002
81967214030817,-5.254673,12.214601,3.2117214
81967233885665,-1.4418018,9.501043,0.9963281999999999
81967253740513,-0.30895755,10.037527,-4.0356083
81967273604101,1.0825489,9.74773,-3.6691701
81967293459077,0.50774413,9.441168,-2.7183473
81967313314181,-1.0801538,9.611214,-1.4705421
81967333169157,-1.3627661,9.601633999999999,4.3445654000000005
81967353024133,-1.2957056999999998,9.683064,4.1050634
81967372884477,-0.7951465,8.509504,-1.5735278999999998
81967392739709,-0.16046631,8.957374,0.14849122
81967412594813,-0.12454102,10.190808,-0.17962648
81967432450045,-0.011975098,9.5489435,-1.3100758
81967452305149,-0.87178713,9.944121,-0.51492923
81967472165769,-1.8465601000000003,10.897339,-0.3305127
81967492021129,-1.954336,10.815908,-0.56522465
81967511876489,-1.8920655,10.471025,0.24668702
81967531731721,-1.5208374,9.996812,0.50774413
81967551587081,-0.86220706,9.529783,0.42391850000000003
81967571444525,-0.6011499,9.78605,0.3544629
81967591299885,-0.7783814,10.078242,-0.62989014
81967611155245,-1.1184741000000002,9.8866415,-0.85023195
81967631010605,-1.2861254999999998,9.594449000000001,0.08622070400000001
81967650865965,-1.1280543,9.989627,-0.5245093000000001
81967670722100,-0.90052736,10.95482,-0.90771246
81967690577460,-0.7927515,10.684182,-0.45026368
81967710432820,-0.9053174,9.81958,-0.30895755
81967730288180,-0.98195803,9.326205999999999,-0.68018556
81967750143668,-0.9244776,9.060359,-1.2813355
81967769979491,-1.1280543,8.978928999999999,-0.6610254
81967789834595,-0.9412427,10.142908,-0.098195806
81967809689571,-0.91010743,10.298584,-0.18441652
81967829544547,-0.6730005,9.927357,-0.91010743
81967849399523,-0.5029541000000001,10.188414,-1.0442286
81967869264658,-0.6945557,10.284214,-0.67539555
81967889120018,-1.0154883,9.726174,-0.80233157
81967908975250,-1.2525953,9.414823,-0.9987232
81967928830610,-1.2430152,9.618399,-0.8047266
81967948685842,-1.219065,9.898616,-0.5005590999999999
81967968554355,-1.0729688,10.054293,-0.7496411000000001
81967988409971,-0.977168,10.114168,-0.9196875
81968008265587,-1.0801538,10.126142999999999,-0.35925296
81968028121075,-1.1160791,10.008787,-0.2802173
81968047976691,-1.214275,9.920172,-0.43110353
81968067828558,-1.346001,9.912986,-0.5364844
81968087684046,-1.3603711,9.81,-0.49576905
81968107539406,-1.1807446000000001,9.812395,-0.39757326
81968127394894,-1.096919,9.795630000000001,-0.45984375
81968147250382,-1.2094848999999999,9.671089,-0.68737066
81968167106595,-1.4753321000000001,9.601633999999999,-0.7089258
81968186962083,-1.7483643,9.659114,-0.40954837
81968206817443,-1.7771046000000001,9.81958,-0.4047583
81968226672931,-1.6501685000000001,9.891430999999999,-0.5843848
81968246528419,-1.4968873,9.869876,-0.613125
81968266396585,-1.453777,9.836346,-0.5508545
81968286252329,-1.4849122,9.793235000000001,-0.5460645000000001
81968306107945,-1.4944923,9.721385,-0.6394701999999999
81968325963689,-1.4705421,9.730965,-0.7089258
81968345819433,-1.4298267,9.6615095,-0.6227050999999999
81968365675718,-1.4681469999999999,9.70941,-0.58198977
81968385531462,-1.4226416000000002,9.896221,-0.5676197
81968405387206,-1.4130616000000003,10.008787,-0.62989014
81968425242950,-1.4681469999999999,9.996812,-0.55324954
81968445098694,-1.3819263000000002,9.80521,-0.5724097
81968464949677,-1.3819263000000002,9.687855,-0.6227050999999999
81968484805293,-1.3531861,9.690249,-0.63707525
81968504660909,-1.2334352,9.707015,-0.5987549
81968524516525,-1.2046948999999998,9.730965,-0.44547364
81968544372141,-1.2861254999999998,9.877061,-0.38320315
81968564222838,-1.2621753,10.059082,-0.55324954
81968584078455,-1.1831397,9.924961,-0.6945557
81968603934070,-1.2693603999999998,9.678274,-0.6993457
81968623789558,-1.2478052,9.654325,-0.79993653
81968643645174,-1.1831397,9.843531,-0.79993653
81968663500369,-1.2741505,9.869876,-0.7065308000000001
81968683355985,-1.4801221000000002,9.841136,-0.7376661
81968703211473,-1.5208374,9.740545,-0.7185059
81968723066961,-1.4202466,9.735755000000001,-0.7232959
81968742922449,-1.2669654,9.649534,-0.89573735
81968762784860,-1.3843212999999999,9.697434,-0.8430469
81968782640476,-1.4010864,9.745335,-0.74006104
81968802496220,-1.2502003000000002,9.678274,-0.8143066999999999
81968822351836,-1.2525953,9.493857,-0.8214916999999999
81968842207580,-1.3675561999999999,9.524992999999998,-0.8430469
81968862059762,-1.4250367,9.68067,-0.8095166
81968881915506,-1.3891114,9.841136,-0.7664063
81968901771250,-1.2933106,9.843531,-0.7568262
81968921626866,-1.2909156000000002,9.735755000000001,-0.81909674
81968941482610,-1.3028906999999998,9.742939999999999,-0.83586186
81968961337878,-1.3244458000000001,9.575289,-0.7927515
81968981193622,-1.3867163999999998,9.505833,-0.7568262
81969001049366,-1.3004956,9.388477,-0.855022
81969020905110,-1.4322218,9.721385,-0.81909674
81969040760854,-1.3076807,9.946517,-0.8214916999999999
81969060625832,-1.1520045,9.788445,-0.8765772
81969080481704,-1.1759547,9.73815,-0.82388675
81969100337704,-1.2502003000000002,9.683064,-0.8669971
81969120193576,-1.4154567,9.568104,-0.8981324
81969140049576,-1.4513819,9.589659,-0.7376661
81969159903813,-1.1783496,9.529783,-0.8095166
81969179759814,-1.2070899,9.580078,-0.79035646
81969199615815,-1.2070899,9.879456,-0.75203615
81969219471688,-1.1975098,9.980047,-0.78556645
81969239327689,-1.099314,9.7142,-0.85741705
81969259184562,-1.1543995,9.656719,-0.8813671999999999
81969279040563,-1.3028906999999998,9.654325,-0.7759864000000001
81969298896564,-1.3268408999999999,9.627979,-0.7448511
81969318752565,-1.3100758,9.604028999999999,-0.7544312
81969338608566,-1.22146,9.5489435,-0.7664063
81969358446769,-1.1064991000000002,9.666299,-0.7783814
81969378302258,-1.1448194,9.826766000000001,-0.7807764
81969398157747,-1.1831397,9.798025,-0.8143066999999999
81969418013236,-1.1424243,9.702225,-0.8669971
81969437868597,-1.1687696,9.685459,-0.6849755999999999
81969457724086,-1.1663746000000002,9.6615095,-0.76880133
81969477574471,-1.3028906999999998,9.6758795,-0.87178713
81969497429832,-1.2502003000000002,9.649534,-0.80712163
81969517285193,-1.1304493,9.683064,-0.76880133
81969537140554,-1.0873389,9.730965,-0.732876
81969556995915,-1.2573853000000002,9.77647,-0.7807764
81969576851166,-1.3388159,9.7740755,-0.79754156
81969596706655,-1.214275,9.671089,-0.7759864000000001
81969616562016,-1.1567944,9.608819,-0.7089258
81969636417483,-1.1520045,9.651928999999999,-0.7927515
81969656272844,-1.2693603999999998,9.697434,-0.81909674
81969676132465,-1.2645704,9.64714,-0.8095166
81969695987954,-1.1759547,9.613608000000001,-0.7568262
81969715843443,-1.1615845,9.632769,-0.732876
81969735698804,-1.2430152,9.795630000000001,-0.7448511
81969755554293,-1.2525953,9.81958,-0.7448511
81969775411896,-1.1903248,9.616004,-0.7807764
81969795267384,-1.22625,9.630374,-0.76880133
81969815122744,-1.22146,9.75731,-0.78556645
81969834978232,-1.346001,9.798025,-0.72569096
81969854833720,-1.2286451,9.718989,-0.71371585
81969874698698,-1.0825489,9.584868,-0.8143066999999999
81969894554442,-1.1400293,9.697434,-0.7376661
81969914410186,-1.2693603999999998,9.798025,-0.7232959
81969934265802,-1.3172607,9.695039999999999,-0.8167017
81969954121546,-1.1687696,9.572892999999999,-0.7544312
81969973980836,-1.101709,9.625584,-0.7376661
81969993836708,-1.1711646,9.795630000000001,-0.70174074
81970013692452,-1.22146,9.77168,-0.7927515
81970033548324,-1.2406201000000001,9.702225,-0.7544312
81970053404068,-1.1831397,9.536968,-0.88376224
81970073256307,-1.2382251,9.582474000000001,-0.7711963000000001
81970093112051,-1.3579761000000001,9.6615095,-0.73048097
81970112967795,-1.4154567,9.666299,-0.74006104
81970132823539,-1.346001,9.627979,-0.70174074
81970152679283,-1.2334352,9.630374,-0.7041358
81970172526304,-1.2813355,9.8866415,-0.6706055000000001
81970192381920,-1.3004956,9.81958,-0.7065308000000001
81970212237409,-1.2909156000000002,9.651928999999999,-0.7065308000000001
81970232092898,-1.2645704,9.656719,-0.6346801999999999
81970251948384,-1.2525953,9.6615095,-0.5724097
81970271788986,-1.2310401000000002,9.663903999999999,-0.62989014
81970291644090,-1.1831397,9.644744000000001,-0.6586304000000001
81970311499322,-1.1424243,9.707015,-0.7089258
81970331354554,-1.1376343,9.75731,-0.7161109
81970351209786,-1.1999048,9.80521,-0.70174074
81970371070223,-1.2430152,9.683064,-0.7807764
81970390925584,-1.2909156000000002,9.618399,-0.74724615
81970410780945,-1.2909156000000002,9.623189,-0.7209009
81970430636306,-1.2933106,9.642349000000001,-0.68976563
81970450491667,-1.3915064,9.695039999999999,-0.6514453
81970470345400,-1.3292358999999998,9.795630000000001,-0.68018556
81970490200633,-1.1376343,9.817185,-0.7232959
81970510055994,-1.1376343,9.843531,-0.75203615
81970529911227,-1.2022998,9.778865,-0.76161623
81970549766460,-1.2334352,9.627979,-0.8598120000000001
81970569614237,-1.2645704,9.520203,-0.7185059
81970589469342,-1.2573853000000002,9.457932000000001,-0.6825806
81970609324447,-1.22625,9.457932000000001,-0.76401126
81970629179552,-1.22146,9.635164,-0.7759864000000001
81970649034657,-1.2621753,9.836346,-0.70174074
81970668893862,-1.2406201000000001,9.853110000000001,-0.7089258
81970688749095,-1.1807446000000001,9.843531,-0.77359134
81970708604328,-1.1975098,9.7740755,-0.7232959
81970728459561,-1.2166698999999999,9.620794,-0.68737066
81970748314794,-1.2406201000000001,9.498648,-0.7089258
81970768177767,-1.1927198,9.477093,-0.73048097
81970788033110,-1.1999048,9.577683,-0.7041358
81970807888470,-1.1831397,9.807606,-0.61073
81970827743830,-1.0514137,9.884246000000001,-0.6514453
81970847599190,-1.0633887,9.833950999999999,-0.7544312
81970867460828,-1.1591895,9.75252,-0.7664063
81970887316188,-1.1687696,9.7142,-0.6777906
81970907171676,-1.2118799999999998,9.630374,-0.6682104999999999
81970927027036,-1.2789403999999998,9.541758999999999,-0.62749517
81970946882524,-1.223855,9.608819,-0.6993457
81970966736910,-1.2909156000000002,9.831555,-0.60833496
81970986592270,-1.2406201000000001,9.977652,-0.5388794
81971006447630,-1.1304493,9.927357,-0.6394701999999999
81971026302990,-1.0562036,9.788445,-0.62510014
81971046158350,-1.0801538,9.711803999999999,-0.6059399999999999
81971066014202,-1.1088941,9.584868,-0.62989014
81971085869562,-1.1136841999999998,9.520203,-0.6514453
81971105724922,-1.1184741000000002,9.493857,-0.613125
81971125580154,-1.1543995,9.642349000000001,-0.5005590999999999
81971145435514,-1.1855347,9.81,-0.50774413
81971165285041,-1.2286451,9.857901,-0.5604346
81971185140273,-1.2573853000000002,9.81958,-0.5891748
81971204995377,-1.223855,9.740545,-0.5843848
81971224850609,-1.1064991000000002,9.584868,-0.6394701999999999
81971244705713,-1.1280543,9.388477,-0.69216067
81971264569039,-1.2693603999999998,9.505833,-0.6011499
81971284424399,-1.3148658000000002,9.726174,-0.4766089
81971304279759,-1.3436059999999999,9.81958,-0.5005590999999999
81971324135119,-1.2310401000000002,9.77168,-0.65384036
81971343990479,-1.223855,9.783655,-0.7376661
81971363846514,-1.1783496,9.79084,-0.62749517
81971383701874,-1.2573853000000002,9.659114,-0.6179150999999999
81971403557234,-1.3364209999999999,9.5561285,-0.67539555
81971423412594,-1.3843212999999999,9.608819,-0.6825806
81971443268082,-1.334026,9.707015,-0.6514453
81971463126008,-1.2621753,9.75731,-0.58198977
81971482981496,-1.223855,9.687855,-0.65384036
81971502836984,-1.3004956,9.7142,-0.72569096
81971522692472,-1.2573853000000002,9.697434,-0.6682104999999999
81971542547960,-1.2525953,9.699829,-0.6011499
81971562403795,-1.3076807,9.592053,-0.6993457
81971582259283,-1.3627661,9.707015,-0.7041358
81971602114899,-1.214275,9.793235000000001,-0.60833496
81971621970515,-1.1208692,9.788445,-0.6394701999999999
81971641826004,-1.1448194,9.620794,-0.73048097
81971661681621,-1.2621753,9.630374,-0.8430469
81971681542099,-1.3364209999999999,9.704619000000001,-0.6945557
81971701397843,-1.3124708,9.690249,-0.61552006
81971721253587,-1.2669654,9.560919,-0.69216067
81971741109203,-1.2573853000000002,9.575289,-0.69695073
81971760964947,-1.2837305,9.81958,-0.5843848
81971780822607,-1.223855,9.908196,-0.59156984
81971800678351,-1.1975098,9.7621,-0.7041358
81971820534095,-1.1687696,9.695039999999999,-0.7113208000000001
81971840389839,-1.1400293,9.72378,-0.6322852
81971860245711,-1.1088941,9.678274,-0.6466553
81971880097103,-1.1376343,9.532178,-0.73048097
81971899952591,-1.1855347,9.524992999999998,-0.6945557
81971919808207,-1.2334352,9.683064,-0.6179150999999999
81971939663823,-1.3028906999999998,9.912986,-0.56522465
81971959519311,-1.2813355,9.932146000000001,-0.64186525
81971979381955,-1.3028906999999998,9.742939999999999,-0.8861573
81971999237700,-1.3747413,9.527389,-0.8478370000000001
81972019093443,-1.4010864,9.513017999999999,-0.7496411000000001
81972038949187,-1.3819263000000002,9.539363,-0.6466553
81972058804932,-1.3819263000000002,9.618399,-0.732876
81972078661565,-1.3220508,9.695039999999999,-0.7376661
81972098517310,-1.1951148999999999,9.754914999999999,-0.7592211999999999
81972118373055,-1.2406201000000001,9.927357,-0.6658155
81972138228925,-1.2382251,9.759705,-0.6562354
81972158087406,-1.2837305,9.666299,-0.73048097
81972177943151,-1.2597803,9.630374,-0.66342044
81972197798894,-1.2549903,9.692644,-0.6562354
81972217654638,-1.346001,9.6615095,-0.5987549
81972237510511,-1.3076807,9.6758795,-0.5963599
81972257366254,-1.2310401000000002,9.783655,-0.6730005
81972277224065,-1.2070899,9.81,-0.6562354
81972297079810,-1.2957056999999998,9.745335,-0.7448511
81972316935683,-1.3028906999999998,9.654325,-0.7041358
81972336791428,-1.2430152,9.649534,-0.6849755999999999
81972356647301,-1.2070899,9.625584,-0.6514453
81972376502642,-1.2406201000000001,9.577683,-0.70174074
81972396358514,-1.3148658000000002,9.608819,-0.7496411000000001
81972416214387,-1.2693603999999998,9.716595,-0.66342044
81972436070258,-1.1687696,9.867481,-0.58198977
81972455919943,-1.1831397,9.889036,-0.5843848
81972475775688,-1.1687696,9.766891000000001,-0.69216067
81972495631431,-1.1496094,9.656719,-0.76880133
81972515487175,-1.1831397,9.577683,-0.63707525
81972535343048,-1.22146,9.565708,-0.44068359999999995
81972555198791,-1.22625,9.72857,-0.36883304
81972575049628,-1.1520045,9.740545,-0.53169435
81972594905245,-1.1831397,9.81958,-0.6777906
81972614760988,-1.1256591999999999,9.903406,-0.61073
81972634616604,-1.0154883,9.872271000000001,-0.5676197
81972654472349,-1.1160791,9.685459,-0.61073
81972674322484,-1.1783496,9.541758999999999,-0.58198977
81972694178100,-1.1567944,9.424402,-0.5556446
81972714033717,-1.2334352,9.515413,-0.5724097
81972733889204,-1.2789403999999998,9.730965,-0.55324954
81972753745838,-1.1759547,9.912986,-0.5460645000000001
81972773601455,-1.1352394,9.877061,-0.56522465
81972793456942,-1.1400293,9.759705,-0.5939649
81972813312559,-1.1567944,9.711803999999999,-0.6514453
81972833168048,-1.1687696,9.604028999999999,-0.613125
81972853024576,-1.2525953,9.558523,-0.52690434
81972872874663,-1.3220508,9.508227999999999,-0.44547364
81972892730024,-1.3244458000000001,9.627979,-0.5388794
81972912585511,-1.2669654,9.924961,-0.6059399999999999
81972932440999,-1.1639795,9.999207,-0.53169435
81972952296488,-1.1041040000000002,9.845925,-0.48618898
81972972147757,-1.0657837,9.707015,-0.5292993
81972992003117,-1.1903248,9.678274,-0.5724097
81973011858478,-1.3004956,9.584868,-0.58677983
81973031713837,-1.3124708,9.627979,-0.5005590999999999
81973051569197,-1.223855,9.623189,-0.43589357
81973071424558,-1.1831397,9.788445,-0.44547364
81973091279356,-1.1472143999999997,9.77168,-0.57719976
81973111134588,-1.096919,9.656719,-0.59156984
81973130989949,-1.1591895,9.733359,-0.45026368
81973150845308,-1.2166698999999999,9.788445,-0.366438
81973170690599,-1.2549903,9.783655,-0.46463382
81973190545576,-1.1831397,9.587264,-0.48139894
81973210400679,-1.1136841999999998,9.635164,-0.5125342
81973230255655,-1.1376343,9.735755000000001,-0.50774413
81973250110760,-1.223855,9.74773,-0.42870852
81973269967240,-1.1591895,9.730965,-0.4742139
81973289822216,-1.0442286,9.793235000000001,-0.44307864
81973309677321,-1.0633887,9.716595,-0.4766089
81973329532424,-1.1855347,9.611214,-0.5221143
81973349387400,-1.1711646,9.604028999999999,-0.45984375
81973369242505,-1.0849438999999999,9.656719,-0.4047583
81973389101454,-1.1208692,9.764495,-0.49816409999999994
81973408956559,-1.1280543,9.79084,-0.50774413
81973428811536,-1.0921290000000001,9.742939999999999,-0.42391850000000003
81973448666641,-1.1232642,9.845925,-0.45026368
81973468527118,-1.1567944,9.766891000000001,-0.45984375
81973488382351,-1.1759547,9.606423,-0.40715334
81973508237456,-1.1256591999999999,9.558523,-0.44307864
81973528092689,-1.1208692,9.656719,-0.43349856
81973547947794,-1.1400293,9.740545,-0.5005590999999999
81973567809091,-1.099314,9.769285,-0.49337405
81973587664452,-1.0753639,9.795630000000001,-0.47181886
81973607519813,-1.1615845,9.788445,-0.39278322
81973627375046,-1.2118799999999998,9.73815,-0.4023633
81973647230407,-1.214275,9.649534,-0.45984375
81973667085640,-1.22146,9.592053,-0.49337405
81973686946071,-1.1927198,9.704619000000001,-0.48618898
81973706801432,-1.1999048,9.843531,-0.4382886
81973726656921,-1.2502003000000002,9.850716,-0.40715334
81973746512266,-1.3148658000000002,9.730965,-0.5412744
81973766380542,-1.2789403999999998,9.627979,-0.57959473
81973786236287,-1.2382251,9.618399,-0.5604346
81973806092030,-1.214275,9.659114,-0.5029541000000001
81973825947774,-1.2286451,9.627979,-0.51492923
81973845803519,-1.2909156000000002,9.606423,-0.6011499
81973865659262,-1.3675561999999999,9.754914999999999,-0.5412744
81973885517165,-1.2741505,9.901011,-0.46702883
81973905372910,-1.2382251,9.881851,-0.47900394
81973925228781,-1.2070899,9.695039999999999,-0.55803955
81973945084653,-1.0849438999999999,9.5489435,-0.63707525
81973964940526,-1.1615845,9.589659,-0.62989014
81973984796475,-1.2286451,9.64714,-0.4622388
81974004652475,-1.3100758,9.618399,-0.49576905
81974024508348,-1.2334352,9.730965,-0.49816409999999994
81974044364219,-1.1783496,9.932146000000001,-0.54366946
81974064218817,-1.214275,9.867481,-0.51732427
81974084074690,-1.1927198,9.632769,-0.5460645000000001
81974103930561,-1.214275,9.6758795,-0.5628295999999999
81974123786433,-1.1496094,9.642349000000001,-0.55324954
81974143642306,-1.2645704,9.558523,-0.5843848
81974163498177,-1.331631,9.596844,-0.5221143
81974183355103,-1.2597803,9.613608000000001,-0.59156984
81974203210976,-1.2717555,9.7812605,-0.58677983
81974223066975,-1.2382251,9.944121,-0.49576905
81974242922847,-1.1735597,9.814791,-0.5556446
81974262778720,-1.1951148999999999,9.754914999999999,-0.60833496
81974282632342,-1.2118799999999998,9.625584,-0.5556446
81974302488214,-1.2430152,9.5561285,-0.51013917
81974322344087,-1.2597803,9.580078,-0.5221143
81974342199832,-1.2454101999999998,9.683064,-0.49816409999999994
81974362053897,-1.2334352,9.826766000000001,-0.56522465
81974381909770,-1.1711646,9.857901,-0.5508545
81974401765643,-1.1831397,9.812395,-0.5963599
81974421621516,-1.219065,9.750125,-0.5843848
81974441477389,-1.2334352,9.616004,-0.5412744
81974461333390,-1.2478052,9.5633135,-0.5484595
81974481182247,-1.2525953,9.575289,-0.5748047
81974501037992,-1.223855,9.649534,-0.6394701999999999
81974520893737,-1.2597803,9.798025,-0.55803955
81974540749482,-1.2741505,9.80521,-0.45744875
81974560605227,-1.2981006000000002,9.865086,-0.5292993
81974580451616,-1.2478052,9.798025,-0.5604346
81974600307233,-1.2070899,9.74773,-0.54366946
81974620162722,-1.2094848999999999,9.558523,-0.4263135
81974640018211,-1.2310401000000002,9.520203,-0.48618898
81974659875298,-1.2525953,9.604028999999999,-0.5939649
81974679730915,-1.2525953,9.77647,-0.488584
81974699586532,-1.2478052,9.826766000000001,-0.40715334
81974719442001,-1.2382251,9.778865,-0.48379397
81974739297618,-1.1855347,9.699829,-0.5221143
81974759153105,-1.1567944,9.75252,-0.50774413
81974779002829,-1.1520045,9.74773,-0.41912845
81974798858190,-1.1879296999999998,9.656719,-0.364043
81974818713549,-1.1807446000000001,9.551338000000001,-0.41194338
81974838568909,-1.1855347,9.584868,-0.4526587
81974858424270,-1.1304493,9.82437,-0.38320315
81974878275478,-1.1232642,10.042317,-0.35685793
81974898134898,-1.1639795,9.874666,-0.45026368
81974917990131,-1.2334352,9.740545,-0.4742139
81974937845362,-1.2382251,9.685459,-0.4526587
81974957700594,-1.1663746000000002,9.613608000000001,-0.39278322
81974977555827,-1.1663746000000002,9.472302,-0.50774413
81974997406365,-1.1831397,9.596844,-0.51492923
81975017261597,-1.1639795,9.7740755,-0.45984375
81975037116702,-1.1424243,9.80521,-0.4263135
81975056971805,-1.1448194,9.73815,-0.4047583
81975076823173,-1.1208692,9.802814999999999,-0.41912845
81975096678278,-1.1112891000000003,9.812395,-0.4742139
81975116533253,-1.1687696,9.685459,-0.49097902
81975136388357,-1.2022998,9.632769,-0.45026368
81975156243334,-1.22146,9.651928999999999,-0.50774413
81975176097585,-1.1687696,9.690249,-0.45744875
81975195952560,-1.2094848999999999,9.764495,-0.364043
81975215807537,-1.2310401000000002,9.632769,-0.33530274
81975235662512,-1.219065,9.558523,-0.42391850000000003
81975255517488,-1.1927198,9.692644,-0.51732427
81975275372465,-1.1975098,9.972861,-0.2921924
81975295234010,-1.0657837,9.901011,-0.24189699
81975315089114,-1.1232642,9.654325,-0.46463382
81975334944219,-1.2597803,9.651928999999999,-0.48618898
81975354799322,-1.1663746000000002,9.70941,-0.38799320000000004
81975374662455,-1.1208692,9.788445,-0.34488282
81975394517816,-1.214275,9.654325,-0.39996827
81975414373049,-1.3244458000000001,9.5489435,-0.44786867
81975434228410,-1.2693603999999998,9.558523,-0.33769777
81975454083643,-1.1400293,9.6615095,-0.3281177
81975473943708,-1.1376343,9.915381,-0.3784131
81975493799069,-1.101709,9.912986,-0.36164796
81975513654430,-1.0538087,9.742939999999999,-0.45505372
81975533509791,-1.1304493,9.730965,-0.44068359999999995
81975553365152,-1.1376343,9.6615095,-0.30895755
81975573220513,-1.1687696,9.580078,-0.41912845
81975593072808,-1.1903248,9.546548,-0.3903882
81975612928041,-1.1927198,9.635164,-0.33530274
81975632783402,-1.2094848999999999,9.814791,-0.37362307
81975652638763,-1.1496094,10.003997,-0.366438
81975672502004,-1.1256591999999999,9.891430999999999,-0.34248779999999995
81975692357365,-1.1448194,9.64714,-0.366438
81975712212854,-1.099314,9.551338000000001,-0.49097902
81975732068325,-1.0849438999999999,9.623189,-0.39517823
81975751923814,-1.1352394,9.568104,-0.34248779999999995
81975771779301,-1.2334352,9.608819,-0.38320315
81975791642664,-1.223855,9.778865,-0.42391850000000003
81975811498409,-1.214275,9.980047,-0.43589357
81975831354024,-1.1711646,9.958491,-0.39278322
