UPTIMENANO,Ax,Ay,Az
81921963113966,-0.48982763,0.24515411,9.365526
81921982969967,-0.83316946,-0.031175463,8.988518
81922002829300,-0.7238346,0.13011245,9.468139
81922022685428,-0.35364112,0.51202303,10.486211
81922042541557,-1.0159365,0.32032725,10.247096
81922062397684,-2.1715333,0.39753857,9.842848
81922082250874,-2.2533965,1.0970515,11.526414
81922102106875,-1.3088613,1.6855457,12.3761015
81922121962874,-0.78434926,0.43788567,10.557829
81922141818874,-1.5343952,-0.73879844,8.218878
81922161674875,-0.9399807,-0.8746047,9.163239
81922181530874,0.9275464,-0.17362306,11.110648
81922201382449,0.83620703,0.6143444,11.198131
81922221238322,-0.15336508,0.8100095,11.040521
81922241094193,0.026299948,0.7918588,11.029039
81922260950065,0.68878794,0.5801665,10.365693
81922280805938,0.4216192,0.5385206,9.779451
81922300662125,0.74629575,0.660312,9.649581
81922320517997,0.5313519,0.98775,10.064046
81922340373742,-0.5319725,1.3839775,9.946444
81922360229613,-0.48525262,1.2411373,9.408214
81922380083762,0.39862075,0.18147027,7.994627
81922399939635,0.7311481,-0.6826161,7.078804
81922419795506,1.1318663,-0.86884576,8.030425
81922439651378,0.6875403,-0.8051524,8.626425
81922459507123,-0.41621405,-0.6174352,7.8620133
81922479362994,-0.7016043,-0.980987,7.810052
81922499210485,0.3953285,-1.1407048,8.8997345
81922519066102,0.82410747,-0.7124921,9.54175
81922538921845,-0.28109455,0.053162254,8.621529
81922558777461,-0.57506114,0.3051237,8.496562
81922578633206,1.9216365,1.1115258,11.630465
81922598484554,1.1506631,-0.19089814,12.187257
81922618340042,0.2695714,-1.1582265,9.977804
81922638195659,0.96856385,-0.9564001,9.850735
81922658051274,0.53030497,-0.68383265,10.017706
81922677905586,2.0878236,-0.12627394,14.014741
81922697761075,2.273097,0.41355845,14.313998
81922717616562,0.5080106,-0.23345454,11.77944
81922737472050,-0.14947619,-0.5004743,11.461797
81922757327667,-0.6961928,-0.40626213,11.585374
81922777183154,-0.42551214,-0.36526558,10.94938
81922797041269,-0.7417812,0.42560413,9.956311
81922816896758,-0.8095383,1.9393008,9.916927
81922836752373,0.6518655,1.7854784,9.868082
81922856607861,1.5678991,1.3984635,9.606461
81922876463350,0.9011701,2.398725,9.43135
81922896318307,-0.5818514,1.425871,9.266029
81922916173795,-0.19241332,0.22989054,9.457998
81922936029412,1.1036719,0.23108758,10.426785
81922955884899,1.1613518,0.5518605,10.162213
81922975740515,0.3146882,-0.09340658,9.227299
81922995596004,-0.91353315,-0.66325974,8.351069
81923015406508,-0.73836917,0.009817334,8.464688
81923035261100,1.1454351,0.90275776,9.870611
81923055115821,0.7361871,0.5671555,10.504305
81923074970412,-1.2538732,0.82054543,8.110512
81923094827359,-0.5749508,0.94661325,6.7265043
81923114681952,-0.9080172,-0.018409008,6.828372
81923134536671,-1.4974862,-0.060671173,7.655062
81923154391263,-0.9365142,-0.32871982,7.531697
81923174245984,-1.4762418,-0.50209725,7.2018085
81923194108246,-3.0943305,-0.27049318,4.5785704
81923213962966,-3.0090034,0.31335104,2.660727
81923233817815,-0.6707681,0.80697745,4.7574177
81923253672534,1.5575639,0.7124931,8.494677
81923273527254,4.082208,-0.06405426,15.157937
81923293382103,5.4896097,-2.0836244,17.297277
81923313250128,0.45846942,-2.9094758,16.376139
81923333105104,-0.85900086,-1.4068023,12.175152
81923352960081,1.0658973,1.0421625,10.482825
81923372815056,2.4821947,1.6367536,12.198652
81923392683752,2.4370947,0.35312837,11.365111
81923412538985,-0.89810383,-6.1020327,2.9400597
81923432394216,0.5320672,-3.776953,0.90996015
81923452249448,3.5598009,-2.471263,10.430182
81923472104681,2.8436818,3.9099681,12.761409
81923491974059,0.12609982,12.280437,10.306122
81923511829547,-3.9095962,7.0100813,-3.3250225
81923531685036,-0.750002,-1.4296626,-1.0761621
81923551540395,-0.57404244,0.30429026,7.0275126
81923571395883,-1.9838537,3.933357,5.9848075
81923591251372,-0.26796803,5.652388,3.3754873
81923611114813,2.4636145,6.371455,2.4255934
81923630970429,3.9654858,6.4279866,2.8744938
81923650826045,4.4638543,6.0250406,4.9086194
81923670681661,4.544881,6.048443,9.782706
81923690537405,3.0016506,4.30662,14.024595
81923710399694,4.3552732,3.1417685,13.360519
81923730255566,9.587658,5.7881913,11.911416
81923750111310,7.8479934,3.5963643,19.529606
81923769967182,1.865221,-1.5057397,24.279535
81923789823054,-0.88083464,-1.6621696,24.222637
81923809689678,2.9616058,-5.266969,22.600899
81923829545806,7.2750077,-9.059742,19.822424
81923849401934,7.7272406,-9.568572,17.119997
81923869257934,-3.2288928,-8.295758,16.19263
81923889114062,-10.19102,-3.957945,15.225061
81923908976340,-6.464448,-1.8647751,11.556732
81923928832724,-3.7694623,-3.2830586,9.098628
81923948688980,-4.909621,-2.1143973,7.955911
81923968545364,-5.2054086,1.6186991,7.5329695
81923988404487,-3.457801,-1.1553056,10.471435
81924008264418,0.06586701,-0.17987967,7.8680415
81924028120802,1.8376924,-3.2899013,5.032306
81924047977314,0.6506734,-8.120583,4.432462
81924067833826,-1.3340944,-7.0832376,5.2257113
81924087690210,1.1439309,-9.91314,5.050324
81924107543071,-0.28768083,-6.9143953,3.6830194
81924127399455,-2.4649415,-4.067196,3.2917318
81924147255839,-0.15766425,-7.1985326,3.854934
81924167112223,2.6793945,-9.111039,7.7950883
81924186968735,2.9421327,-6.1645985,13.173104
81924206828904,0.23792857,-1.5970321,7.844302
81924226685416,-1.6533508,0.75233597,6.9893136
81924246541928,-1.6613216,5.0139394,6.806072
81924266398568,1.9351178,5.5138707,9.211811
81924286255080,3.463298,3.9203238,14.770705
81924306118260,1.4290087,2.144527,15.190529
81924325975028,-4.3909445,-3.599878,19.813595
81924345831796,-4.153695,0.9636012,13.744536
81924365688564,-0.6891978,6.8860836,11.381162
81924385545332,3.0321343,3.5924275,12.07625
81924405404733,1.6729182,2.2725499,9.328016
81924425261757,-0.11344008,2.2350965,8.704519
81924445118781,0.98363787,-0.40453792,8.731239
81924464975677,1.4661696,-0.31812754,8.111997
81924484832701,2.0901792,-1.5030539,7.211169
81924504683404,2.1957562,-0.013150899,9.558013
81924524540300,-0.14516063,-0.10224948,10.675443
81924544397196,0.6991299,-1.8036727,8.114672
81924564254220,1.3881029,-3.1925776,7.5246964
81924584111116,1.2605282,-2.7220333,8.153032
81924603936014,1.0886642,-0.58723676,7.3581767
81924623792014,0.56308705,1.030546,6.9446106
81924643647886,3.8880553,2.241515,11.771788
81924663503886,-1.223916,5.1223135,11.101559
81924683359886,-4.4058127,4.061062,11.934407
81924703209626,-3.6464665,2.4960973,12.872449
81924723065370,-3.3378556,2.1045437,12.188065
81924742921114,-0.8584406,0.88971937,12.540112
81924762776858,0.2924148,0.16245556,10.657707
81924782632602,0.24589935,-0.36457542,8.848123
81924802488248,0.25109416,0.31436172,9.833486
81924822343992,-1.1732641,1.2711912,11.917228
81924842199608,-1.7694523,1.7396725,10.980781
81924862055352,0.24142466,1.4479446,9.116981
81924881910968,1.2596695,1.4522216,8.137261
81924901759203,-0.5579722,1.7880107,7.944491
81924921614691,-1.7998489,-1.1906815,7.7756095
81924941470307,-1.0239098,-3.2246664,5.753983
81924961325795,0.34623522,-1.7637182,3.7046697
81924981181283,1.9217663,-0.8113441,5.3830943
81925001034083,6.5691133,2.804219,15.1907
81925020889443,-2.9177082,1.9811265,17.373636
81925040744931,-10.570015,-3.010081,15.678537
81925060600419,-10.640675,0.28850305,17.03978
81925080455907,2.4750962,-3.0370746,5.93823
81925100313656,6.489943,1.7561525,3.2054718
81925120169272,0.0369826,9.800634,11.430909
81925140024760,-0.42756268,4.1904473,11.146239
81925159880376,0.012018404,-6.2331285,12.575429
81925179735864,0.8136131,-3.2480881,12.946561
81925199590973,-4.513134,4.4558268,13.870744
81925219446461,-6.375968,4.906082,11.144995
81925239301949,-2.8086743,-0.30550098,9.9616995
81925259157437,1.6878617,-6.5832663,10.083915
81925279012925,2.7237241,-4.937727,10.200556
81925298871015,2.3914924,-1.3891563,9.026321
81925318726631,0.6092442,0.20391852,8.549002
81925338582119,-0.8574993,-0.6565133,6.8418937
81925358437607,1.0552502,-1.7468299,6.5265694
81925378293095,2.4561708,-2.9784663,6.9911904
81925398148814,2.9785233,-3.6352067,7.234534
81925418004302,1.2604328,-3.4195392,9.670289
81925437859918,-2.693439,-1.0251731,13.425152
81925457715406,-2.971989,3.0312972,13.891457
81925477571022,-0.6554806,4.8760786,11.304623
81925497426533,1.0944021,4.7011576,8.963564
81925517282149,0.7000171,2.8252738,9.327605
81925537137637,-0.4090141,0.3738322,10.000014
81925556993125,-0.23613709,-0.40940446,9.86059
81925576848613,0.72729206,-0.6366713,10.077614
81925596707727,-0.2306623,-1.2760448,9.563595
81925616563343,0.2886368,-0.24339916,9.261393
81925636418831,-0.19891872,-0.36834362,9.968675
81925656274447,-0.22103754,-0.834303,9.887575
81925676130063,0.22890127,-0.0053649,10.086891
81925695990750,0.43535984,-0.08174035,9.848064
81925715846366,0.59953475,0.04636964,9.465394
81925735702110,0.21721911,0.46081644,9.473488
81925755557726,0.09436462,0.46046746,9.687771
81925775413342,0.29813504,0.088699244,9.77944
81925795278532,0.42934728,0.013864233,9.764198
81925815134404,0.32029647,0.12676089,9.8201685
81925834990276,0.41230607,0.035677385,9.903394
81925854846148,0.45070425,0.0032959613,9.874449
81925874702020,0.26770842,0.2195414,9.722324
81925894565407,0.23475307,0.19302234,9.720237
81925914421407,0.41034114,-0.026376426,9.844592
81925934277535,0.46331027,-0.0553933,9.892161
81925954133663,0.45085797,0.17031898,9.958916
81925973989663,0.4014161,0.22236364,9.792501
81925993847869,0.20656554,0.1429631,9.665517
81926013704125,-0.021652166,0.22240748,9.595503
81926033560253,-0.041600723,0.3824645,9.616179
81926053416509,0.30585355,0.4414848,9.752694
81926073272637,0.69051176,0.24075612,9.809986
81926093128411,0.62441045,0.22101015,9.930775
81926112984667,0.29204994,0.16249084,10.038988
81926132840795,0.18433595,0.038116276,9.92157
81926152697051,0.2476098,-0.11527847,9.806916
81926172553179,0.251995,-0.0251575,9.655088
81926192405813,0.2905712,0.21464522,9.763514
81926212261941,0.40396363,0.30372065,9.881467
81926232118069,0.43302613,0.0980444,9.733591
81926251974197,0.42844462,-0.25955617,9.639544
81926271830325,0.31008682,-0.3754279,9.713907
81926291685953,0.16779214,-0.042798117,9.861983
81926311542081,0.31287494,0.103231385,10.05639
81926331398209,0.5069436,0.0453654,10.03975
81926351254337,0.49460235,-0.03212337,9.787355
81926371110465,0.29334852,-0.13220692,9.710665
81926390964228,0.16966002,-0.07478027,9.674117
81926410820356,0.17124823,-0.041132197,9.725522
81926430676484,0.24578533,0.047944527,9.653572
81926450532612,0.17960833,0.071891434,9.765784
81926470388868,0.13778871,0.15932184,9.903026
81926490239900,0.23976307,0.21137619,9.892142
81926510096028,0.4375045,0.10773018,9.809372
81926529952029,0.39215484,-0.033492584,9.750776
81926549808030,0.16659942,0.001542435,9.725686
81926569664031,-0.0018046624,0.029161703,9.712806
81926589520032,-0.044094924,-0.016645145,9.686091
81926609358661,0.00686874,-0.16378061,9.731664
81926629214278,0.18494497,-0.18546225,9.798714
81926649070023,0.29236284,-0.06986727,9.925174
81926668925640,0.2539088,0.15133128,9.90737
81926688781257,0.15632364,0.26253933,9.850551
81926708634092,0.18992603,0.12066869,9.787035
81926728489571,0.29029486,0.02488006,9.68956
81926748345187,0.41922456,9.057402E-4,9.673614
81926768200803,0.32010436,0.067104526,9.760875
81926788056291,0.21093561,0.15505174,9.748577
81926807910395,0.25569534,0.038326837,9.750545
81926827765883,0.33690563,-0.077186204,9.828415
81926847621371,0.36862692,0.0346793,9.853957
81926867476859,0.4009658,0.017219663,9.9486065
81926887332347,0.30924606,0.026844164,9.739765
81926907154224,0.21457008,-0.0933531,9.789442
81926927009072,0.28091386,-0.10135352,9.801107
81926946863920,0.366002,-0.096621916,9.812525
81926966718768,0.31134441,0.027347216,9.780294
81926986573616,0.2232125,0.0019087297,9.750024
81927006427634,0.21491113,-0.015604216,9.789692
81927026282354,0.3090392,-0.0487135,9.856811
81927046137074,0.36965853,0.046660174,9.699384
81927065991794,0.3626124,-0.028277686,9.589586
81927085846515,0.23238793,0.03513665,9.62905
81927105699046,0.21914718,0.043553825,9.875902
81927125553636,0.27138427,0.015382614,9.952152
81927145408228,0.3421991,-0.056703817,9.905784
81927165262820,0.23600702,-0.07589678,9.803882
81927185117412,0.17808785,0.050753582,9.765533
81927204981018,0.28896013,0.03511532,9.740334
81927224835738,0.29473764,0.026719632,9.74776
81927244690330,0.32513982,0.016953487,9.711173
81927264545050,0.23986559,0.054047808,9.806596
81927284399770,0.26237434,0.13728675,9.848701
81927304268635,0.2695545,0.10821833,9.759437
81927324123611,0.22596739,0.047073822,9.687453
81927343978459,0.17013478,0.07345345,9.619652
81927363833435,0.12754683,0.052536838,9.822968
81927383688411,0.21846691,0.08467278,9.908346
81927403558434,0.1563376,0.08019612,9.9347105
81927423413794,0.087940276,0.13528752,9.884659
81927443269026,0.14800121,0.10934649,9.776146
81927463124258,0.1794692,-0.009354768,9.858568
81927482979490,0.22075932,-0.059233315,9.805426
81927502844047,0.10639709,-0.012268544,9.69582
81927522699407,0.1539397,-0.010330015,9.679373
81927542554895,0.036240954,0.017750015,9.77542
81927562410383,0.22337471,-0.065731235,9.875248
81927582265871,0.21354045,-0.062186316,9.949421
81927602124734,0.08791116,0.06555402,9.833286
81927621980222,0.11487978,0.013410662,9.762818
81927641835838,0.11666877,-0.021511985,9.760961
81927661691454,0.23870277,-0.09592859,9.763716
81927681546942,0.25440362,-0.12116027,9.750878
81927701410000,0.13085322,-0.054533713,9.750357
81927721265744,0.08562035,0.021932801,9.77621
81927741121488,0.1645008,0.07707594,9.741037
81927760977232,0.2561741,0.09621298,9.733106
81927780832976,0.28074226,0.09518608,9.721612
81927800698277,0.33066106,0.117129974,9.813566
81927820554277,0.30761588,0.1544,10.006453
81927840410277,0.24969794,0.251999,9.887558
81927860266277,0.2701053,0.18263705,9.721881
81927880122277,0.22698082,0.09923771,9.5854845
81927899983822,0.15561923,0.070657946,9.621038
81927919840078,0.20085192,0.01861923,9.854066
81927939696334,0.2314117,0.0566415,9.925126
81927959552462,0.27471703,0.08714644,9.796822
81927979408718,0.26046053,0.048944995,9.755138
81927999268301,0.03708011,0.16308121,9.668424
81928019124685,0.037189625,0.28886396,9.755467
81928038981069,0.25128177,0.28699213,9.73944
81928058837325,0.31330097,0.1587473,9.720447
81928078693710,0.2935289,0.05022491,9.789392
81928098556167,0.23970576,0.18234971,9.724345
81928118412808,0.27128583,0.18684337,9.787149
81928138269321,0.3198508,0.18513235,9.784406
81928158125962,0.19792734,0.1666797,9.657331
81928177982598,0.2704688,0.051955666,9.70741
81928197837315,0.2217561,0.08954014,9.749369
81928217693955,0.27587992,0.10043637,9.8884945
81928237550467,0.39845684,0.13197345,9.867047
81928257407107,0.20062257,0.16827407,9.764837
81928277263620,0.18396823,0.105642095,9.823149
81928297126411,0.16044036,0.14677735,9.859432
81928316983180,0.22383508,0.10288252,9.759171
81928336839949,0.30455193,0.034710802,9.787304
81928356696718,0.25410026,0.07822406,9.783038
81928376553487,0.12160523,0.061290544,9.87299
81928396410928,0.08202934,0.050426606,9.8362465
81928416267825,0.031644765,0.038887385,9.791362
81928436124722,0.08756837,0.022720478,9.709994
81928455981619,0.07134337,0.015192316,9.794168
81928475838516,0.045661796,0.0047814646,9.826313
81928495676207,0.16525793,0.041630305,9.811024
81928515532592,0.17597674,0.09543862,9.786692
81928535388849,0.011695429,0.1360916,9.784421
81928555245106,0.010240662,0.10841124,9.808377
81928575101363,0.18635026,0.101833016,9.769569
81928594933542,0.22640288,0.060145352,9.67475
81928614789287,0.17038707,0.011423307,9.775715
81928634645160,0.17266273,0.022854345,9.878849
81928654500905,0.17306603,0.08062232,9.921437
81928674356650,0.27425012,0.091478854,9.873563
81928694212523,0.3276247,0.06929743,9.646697
81928714061922,0.29247314,0.06518381,9.547149
81928733917517,0.24558067,0.13145636,9.778662
81928753773006,0.1907524,0.20801866,9.980399
81928773628621,0.23606856,0.2027042,9.885163
81928793484237,0.2217875,0.111527316,9.715087
81928813336884,0.13631286,0.07754213,9.645221
81928833192372,0.15788665,0.027914856,9.761039
81928853047860,0.21338227,0.09653072,9.7302685
81928872903348,0.24178027,0.14594026,9.710913
81928892758836,0.20266514,0.1113234,9.762293
81928912615049,0.1622672,0.121166214,9.777719
81928932470665,0.17374267,0.11313457,9.747515
81928952326153,0.20833595,0.15348864,9.636161
81928972181641,0.174844,0.06337148,9.641432
81928992037129,0.21884832,0.0732489,9.6800785
81929011894529,0.25296694,0.122932255,9.826726
81929031750145,0.22599335,0.18083046,9.958412
81929051605633,0.20575258,0.2180321,9.928747
81929071461249,0.21429445,0.2078996,9.758143
81929091316865,0.16491517,0.153993,9.782789
81929111168860,0.15279408,0.1332316,9.807224
81929131024348,0.28119466,0.1319138,9.73144
81929150879836,0.3310161,0.11635122,9.655945
81929170735324,0.17480838,0.08554103,9.708482
81929190590812,0.17831685,0.113494165,9.833009
81929210441961,0.33823457,0.19357674,9.992338
81929230297320,0.2969888,0.36343765,9.893852
81929250152680,0.24558824,0.36415285,9.717023
81929270008040,0.23164082,0.24712457,9.745067
81929289863272,0.2155216,0.23056357,9.761476
81929309728590,0.32514316,0.20113386,9.830381
81929329583950,0.3426804,0.16042863,9.849567
81929349439438,0.22419812,0.10093519,9.765267
81929369294927,0.21986416,0.13465714,9.754697
81929389150416,0.18684815,0.16109934,9.725064
81929409011615,0.21817555,0.09243985,9.733037
81929428867232,0.2328143,0.009758163,9.859947
81929448722849,0.28755388,0.13561028,9.966044
81929468578338,0.2788881,0.20345654,9.98146
81929488433955,0.24012728,0.21137336,9.732824
81929508295996,0.16873313,0.1161036,9.528166
81929528151741,0.1459316,0.107774965,9.610795
81929548007486,0.30836457,0.15932716,9.73308
81929567863103,0.27012953,0.0965475,9.895236
81929587718848,0.28911507,0.12211426,9.942969
81929607573959,0.15293702,0.1953052,9.899648
81929627429576,0.22481512,0.23592117,9.932462
81929647285321,0.14826597,0.18922174,9.818121
81929667141066,0.22440368,0.05631134,9.780194
81929686996683,0.2624042,0.043018136,9.585453
81929706857334,0.0983893,0.10232791,9.613995
81929726713079,0.14685681,0.08155438,9.769879
81929746568934,0.12573156,0.108290695,9.76036
81929766424678,0.26674008,0.1116141,9.707423
81929786280550,0.19677082,0.13424303,9.802404
81929806144803,0.22011141,0.15527208,9.906722
81929826000803,0.2735625,0.10077505,9.961913
81929845856803,0.22948694,0.050685912,9.852263
81929865712803,0.15300527,0.06694852,9.728047
81929885568931,0.19748226,0.054365017,9.655891
81929905426132,0.21822713,0.025852023,9.682233
81929925282260,0.29676354,0.003318248,9.768319
81929945138388,0.23526393,0.049932227,9.799537
81929964994516,0.21805178,0.11642532,9.877005
81929984850772,0.11412791,0.18656531,9.9625635
81930004704727,0.26508027,0.13434686,10.042908
81930024560983,0.3685078,0.003923429,9.950433
81930044417239,0.2604539,0.056615744,9.63532
81930064273496,0.10291567,0.055136926,9.521917
81930084129623,0.102210745,0.02745302,9.697124
81930103983564,0.22090411,-0.003603805,9.773257
81930123839821,0.28361723,0.052872255,9.84528
81930143696076,0.13191912,0.17208852,9.856082
81930163552333,0.026395133,0.1927638,9.831986
81930183408590,0.2571717,0.058820937,9.830023
81930203259237,0.2419178,0.0484384,9.70886
81930223115237,0.22179805,-0.014326447,9.743777
81930242971238,0.21922332,0.05015055,9.842121
81930262827365,0.17863698,0.12895742,9.817605
81930282683571,0.17807658,0.080473535,9.89435
81930302539700,0.20815462,0.11542521,9.867116
81930322395701,0.19431965,0.11639707,9.708601
81930342251702,0.1822807,0.06185601,9.66575
81930362107831,0.22487184,0.029579867,9.833539
81930381963832,0.31599525,0.047942385,9.838111
81930401815899,0.27811134,0.09193367,9.795441
81930421671772,0.055071,0.15221539,9.781913
81930441527773,0.16545689,0.08036698,9.767387
81930461383774,0.18968248,-0.008772638,9.683958
81930481239647,0.2551999,-0.03606507,9.747405
81930501082598,0.20422624,0.00817744,9.821604
81930520938343,0.27195153,0.03798486,9.983094
81930540793960,0.27452073,0.05057385,9.898886
81930560649705,0.18889786,0.050962858,9.7896595
81930580495722,0.32596526,0.025016021,9.70386
81930600351211,0.17583744,0.103965655,9.622531
81930620206700,0.2119198,0.025534619,9.680092
81930640062061,0.31080073,-0.08799735,9.828937
81930659917550,0.30208656,0.021231545,9.96918
81930679773039,0.29549873,0.13007072,9.992062
81930699618244,0.1320569,0.23044366,9.816529
81930719473349,0.09959485,0.095243245,9.726798
81930739328561,0.22116913,0.030364713,9.670811
81930759183793,0.19064379,-0.023726495,9.608297
81930779039026,0.16961455,-0.030013645,9.792839
81930798893732,0.18387,0.042942546,9.828646
81930818748836,0.22339654,0.06983302,9.807424
81930838603813,0.21675037,0.08263245,9.8639345
81930858458916,0.19037028,0.12204733,9.836606
81930878314020,0.25056076,0.022789411,9.74654
81930898169125,0.18610398,-0.008128265,9.711174
81930918025813,0.18281388,0.016981713,9.707999
81930937881045,0.37288752,0.045133017,9.907432
81930957736150,0.23661765,0.14315312,9.799823
81930977591253,0.17579928,0.051856812,9.751169
81930997447363,0.20422037,0.11204402,9.767981
81931017302596,0.25301751,0.11161304,9.728202
81931037157699,0.29809654,0.034560617,9.761502
81931057012803,0.26551673,0.06992954,9.831974
81931076867908,0.24202865,0.095708534,9.9311
81931096723139,0.26462182,0.116034724,9.862272
81931116585917,0.1779957,0.10287336,9.709636
81931136441150,0.28771,-0.016316075,9.733454
81931156296509,0.252357,-0.0014031962,9.677115
81931176151741,0.2888451,-0.047518957,9.765189
81931196007102,0.25041696,0.058108494,9.791588
81931215847406,0.23882179,0.11211269,9.866664
81931235702382,0.28389364,0.124430925,9.801988
81931255557231,0.3534684,0.10704611,9.752937
81931275412206,0.18614453,0.10288679,9.763944
81931295268813,0.3555851,0.16454718,9.804093
81931315123790,0.30971396,0.11230159,9.729605
81931334978767,0.24950767,0.12911509,9.805712
81931354833744,0.22363177,0.11993999,9.829852
81931374688721,0.29453778,0.21370414,9.817221
81931394543826,0.26571518,0.21151932,9.63105
81931414403575,0.15640417,0.1777523,9.6450405
81931434258680,0.3079655,0.14049692,9.828263
81931454113785,0.2789402,0.16448581,9.865197
81931473968890,0.33378935,0.15073338,9.916146
81931493823995,0.2114364,0.1751687,9.828505
81931513687710,0.17564568,0.22408406,9.662841
81931533542943,0.2734775,0.15478608,9.691704
81931553398176,0.23149833,0.15790747,9.684486
81931573253409,0.32399267,0.11547824,9.802905
81931593112008,0.31977302,0.20396902,9.900684
81931612967241,0.13195394,0.2704947,9.810668
81931632822602,0.14385459,0.18372276,9.828699
81931652677963,0.19573545,0.16374618,9.800443
81931672533196,0.2555064,0.09497651,9.646382
81931692388557,0.23058671,0.016972652,9.697188
81931712254698,0.18226261,0.063144505,9.809071
81931732110187,0.17996702,0.11211151,9.865851
81931751965654,0.22182009,0.18355934,9.852803
81931771821142,0.06984198,0.19620465,9.859522
81931791676631,0.20561329,0.10960017,9.835838
81931811537611,0.30357406,0.065693006,9.692744
81931831393355,0.14058553,0.067311496,9.690511
81931851249100,0.10323753,0.09348172,9.784724
81931871104715,0.12702453,0.1406194,9.880266
81931890973296,0.25412342,0.16724266,9.91052
81931910829297,0.10582089,0.15077478,9.798887
81931930685296,0.095927745,0.12963745,9.790721
81931950541296,0.03108444,0.13082623,9.559379
81931970397297,0.15795767,0.04519128,9.656557
81931990253424,0.2647429,0.028751139,9.822802
81932010114597,0.057747934,0.12989444,9.871472
81932029970854,0.13445118,0.1897656,9.914007
81932049826981,0.05079058,0.24664074,9.877871
81932069683237,0.22285284,0.25686896,9.769057
81932089539494,0.14824137,0.12015181,9.676301
81932109391790,0.14228025,0.063572384,9.600713
81932129247918,0.11196306,0.042547256,9.722735
81932149104047,0.25461876,0.2086259,9.836485
81932168960174,0.14775336,0.22950512,9.920258
81932188816303,0.12790708,0.21114299,9.879153
81932208672432,0.1071009,0.18428041,9.758859
81932228533733,0.19944172,0.1124305,9.741817
81932248389989,0.2717976,0.04056137,9.732911
81932268246118,0.24545154,0.042620346,9.734116
81932288102373,0.35092774,0.04577828,9.905694
81932307956471,0.17384854,0.23896825,9.835455
81932327812600,0.14551371,0.23166253,9.808814
81932347668727,0.1479697,0.18582,9.833723
81932367524984,0.13619469,0.10524722,9.761314
81932387381113,0.28298077,0.092695236,9.787692
81932407239508,0.09467665,0.13004349,9.782776
81932427095765,0.069606684,0.08991291,9.818596
81932446952022,0.25048527,0.15738916,9.868177
81932466808279,0.030567834,0.20041914,9.810507
81932486664664,0.107612394,0.13913213,9.809059
81932506520921,0.067595914,0.11298708,9.757044
81932526377494,0.13975999,0.12675278,9.757797
81932546233879,0.06883319,0.114320196,9.766449
81932566090136,0.099804014,0.13067563,9.767376
81932585946521,0.069111496,0.10184786,9.8535595
81932605796220,0.1157502,0.20842628,9.781093
81932625652477,0.10103419,0.20486581,9.778653
81932645508734,0.07653564,0.21821354,9.779984
81932665364991,0.09623911,0.16705519,9.733416
81932685221120,0.17759137,0.1479458,9.827877
81932705072619,0.105995275,0.16990381,9.858577
81932724928748,0.14479761,0.16460808,9.893253
81932744785005,0.19708636,0.20445287,9.844135
81932764641244,0.05015221,0.17928565,9.608568
81932784497372,0.074747905,0.13149683,9.643556
81932804353629,0.096407175,0.13402227,9.837864
81932824192557,0.21236925,0.19337945,9.832943
81932844048301,0.18508492,0.20042518,9.91843
81932863904046,0.017521145,0.2360408,9.800369
81932883759789,0.17199467,0.1664629,9.8248625
81932903612809,0.24542391,0.12710378,9.681078
81932923468426,0.19815001,0.10241319,9.639725
81932943324041,0.24626316,0.12320807,9.830587
81932963179657,0.3081124,0.21115603,9.854027
81932983035402,0.24691856,0.22242671,9.900036
81933002888787,0.21268068,0.2129416,9.839831
81933022744275,0.17067608,0.25828665,9.736931
81933042599764,0.20191039,0.17532338,9.714464
81933062455379,0.21673094,0.053412043,9.706789
81933082310867,0.253967,0.048495255,9.8678255
81933102166356,0.18568978,0.15468863,9.831084
81933122019255,0.14494309,0.18584037,9.793416
81933141874742,0.13625358,0.1816043,9.807403
81933161730231,0.20469554,0.16332477,9.761514
81933181585718,0.21907862,0.13488494,9.722188
81933201444717,0.20605005,0.12954587,9.690548
81933221300206,0.1856519,0.16201416,9.823048
81933241155693,0.20071368,0.23578033,9.89951
81933261011182,0.22650556,0.22818561,9.802078
81933280866671,0.1819665,0.22063361,9.811423
81933300722032,0.13153669,0.23594977,9.689026
81933320578671,0.18093348,0.10096535,9.679713
81933340434160,0.24437039,0.057476167,9.787322
81933360289643,0.13859007,0.14508912,9.730237
81933380145131,0.20926873,0.13344257,9.900796
81933400000620,0.112325944,0.19315955,9.89496
81933419854577,0.17812824,0.16335528,9.764154
81933439709937,0.26978704,0.15417603,9.729286
81933459565426,0.04115628,0.11584401,9.637427
81933479420785,0.27328348,0.04819029,9.715076
81933499286781,0.24693847,0.14868733,9.88439
81933519142398,0.11442111,0.20254569,9.918078
81933538998141,0.17342289,0.15751141,9.936488
81933558853757,0.15499851,0.17504573,9.638612
81933578709374,0.13104793,0.087189145,9.534757
81933598565117,0.18843594,0.058727443,9.697141
81933618423372,0.14351565,0.06911848,9.891669
81933638279117,0.23971263,0.08454735,10.035436
81933658134860,0.18800281,0.14853346,9.9403305
81933677990476,0.0716968,0.2097542,9.820465
81933697846221,0.20382369,0.12837471,9.67036
81933717701134,0.1340223,0.033061992,9.571423
81933737556878,0.31693247,-0.07545228,9.737836
81933757412495,0.19455738,-0.039151758,9.868765
81933777268238,0.14883882,0.10433547,9.910855
81933797125323,0.06201455,0.22431202,9.936194
81933816981068,0.14616773,0.28147927,9.80221
81933836836811,0.26241937,0.20406121,9.6464815
81933856692683,0.28008288,0.094600745,9.60571
81933876548428,0.122851506,0.028817972,9.699568
81933896404171,0.2237406,0.09883863,9.81516
81933916258166,0.15839924,0.16081022,9.893685
81933936113911,0.15814,0.28811797,9.922576
81933955969654,0.10376572,0.23958318,9.90819
81933975825526,0.15076213,0.15263997,9.855216
81933995681271,0.26583028,0.028118031,9.787876
81934015540129,0.18618065,0.080740444,9.687159
81934035393794,0.19764462,0.067381926,9.775075
81934055249667,0.058020283,0.15397772,9.704672
81934075105538,0.187389,0.15123972,9.7015
81934094966690,0.15183066,0.17634597,9.812448
81934114822691,0.087486684,0.21368419,9.776268
81934134678818,0.10691809,0.16222838,9.820768
81934154534818,0.19416673,0.136964,9.81015
81934174390819,0.11515027,0.1320685,9.833779
81934194246818,0.26521808,0.15593384,9.956532
81934214101130,0.08466066,0.18906774,9.866333
81934233957131,0.1034965,0.11880086,9.776005
81934253813132,0.17588528,0.1026169,9.722088
81934273669130,0.0807541,0.12547722,9.643465
81934293525131,0.19755532,0.09198436,9.722612
81934313376002,0.16471924,0.1372122,9.8055
81934333231874,0.07043734,0.14862972,9.9333725
81934353087875,0.14228855,0.13475244,10.001257
81934372943746,0.091190465,0.12947252,9.78398
81934392799619,0.10990066,0.13577917,9.595381
81934412655492,0.15394045,0.10838741,9.596036
81934432509895,0.11184964,0.07476161,9.750046
81934452365768,0.2515844,0.10742405,9.91768
81934472221513,0.06699759,0.17356218,9.900332
81934492077258,0.07294762,0.24157615,9.936288
81934511927249,0.1423822,0.23042008,9.81923
81934531782994,0.15235892,0.17626761,9.703686
81934551638611,0.2881995,0.009629283,9.7414875
81934571494356,0.09692627,0.08866001,9.767066
81934591349973,0.18726726,0.100841045,9.868347
81934611202782,0.048488382,0.22226503,9.7836685
81934631058527,0.14716111,0.16594948,9.718003
81934650914144,0.19161311,0.21760853,9.695247
81934670769761,0.14501747,0.16583423,9.664653
81934690625378,0.14596647,0.09375499,9.791749
81934710480995,0.1356546,0.12548096,9.920256
81934730331382,0.18538561,0.20790839,9.99732
81934750186853,0.20949899,0.24915418,9.915013
81934770042342,0.10682504,0.20876363,9.733943
81934789897829,0.19756567,0.15149923,9.681642
81934809745924,0.19026925,0.16772379,9.6897745
81934829601285,0.14994952,0.100409456,9.667872
81934849456644,0.17026977,0.08677637,9.841667
81934869312004,0.11684712,0.24440627,9.903668
81934889167237,0.2653526,0.28899926,9.8980055
81934909024808,0.12990882,0.26898414,9.851473
81934928880168,0.082873784,0.1845691,9.720343
81934948735529,0.28967535,0.08214598,9.723207
81934968590888,0.15426227,0.01360389,9.637355
81934988446248,0.17153792,0.05513478,9.675475
81935008301481,0.25245902,0.19477402,9.860126
81935028162795,0.17687827,0.36049291,9.865097
81935048018155,0.234952,0.24680626,9.9593
81935067873644,0.14086753,0.2313741,9.785445
81935087729003,0.21729118,0.17676494,9.722666
81935107582364,0.2301073,0.16485076,9.698354
81935127437725,0.17238024,0.13582289,9.714447
81935147293212,0.30731276,0.18265107,9.876674
81935167148572,0.18194759,0.24334994,9.910524
81935187004061,0.17750308,0.21473616,9.756722
81935206863071,0.13548705,0.1926773,9.596743
81935226718687,0.1078167,0.13757451,9.659159
81935246574176,0.2808946,0.093392454,9.861014
81935266429663,0.28805804,0.17213674,9.878502
81935286285151,0.11488477,0.15164615,9.897805
81935306140640,0.034912806,0.19732146,9.862092
81935325998035,0.16140872,0.18577692,9.721574
81935345853651,0.20824763,0.09990867,9.641174
81935365709140,0.18232298,0.050087437,9.685602
81935385564757,0.1580049,0.07028698,9.780827
81935405419326,0.17727217,0.1511039,9.837638
81935425274815,0.06806608,0.14446735,9.8716955
81935445130299,0.17608623,0.15305294,9.886255
81935464985787,0.19243345,0.19575009,9.656747
81935484841276,0.10743941,0.038985644,9.65309
81935504696763,0.14030243,0.019750008,9.791667
81935524554567,0.17698854,0.052491285,9.768104
81935544410056,0.19922903,0.073479906,9.811077
81935564265543,0.03270056,0.1605676,9.859056
81935584121031,0.1941035,0.15850344,9.861525
81935603976520,0.2507774,0.12002474,9.735611
81935623836560,0.12337986,0.1338125,9.633235
81935643692176,0.23682597,0.09294446,9.715421
81935663547793,0.171558,0.18030737,9.811006
81935683403408,0.0531388,0.16048227,9.843987
81935703267381,0.20158228,0.09793772,9.9376955
81935723123254,0.25223348,0.16060224,9.871015
81935742978997,0.20891461,0.12101697,9.704561
81935762834869,0.09787346,0.09937808,9.677825
81935782690614,0.02523752,0.10849807,9.736476
81935802546485,0.1504204,0.14873004,9.822871
81935822403241,0.1606385,0.15316305,9.833101
81935842259114,0.059145857,0.12355635,9.834647
81935862114985,0.11836657,0.1474693,9.821526
81935881970857,0.17443068,0.13435881,9.736701
81935901826730,0.11428718,0.090197675,9.691867
81935921685176,0.13738137,0.06464677,9.688756
81935941541048,0.18246311,0.11920991,9.850756
81935961397049,0.16680883,0.19929914,9.947244
81935981252920,0.12679014,0.16484168,9.913391
81936001115077,0.067201786,0.16877288,9.79988
81936020971206,0.06921079,0.10904796,9.652915
81936040823232,0.23436825,0.08591512,9.694277
81936060679360,0.19563617,0.10876549,9.770231
81936080535489,0.09470795,0.13906558,9.855147
81936100391616,0.143781,0.17143773,9.88071
81936120239760,0.058027074,0.2597034,9.774163
81936140095761,0.14778684,0.19441524,9.688666
81936159951760,0.1850868,0.12974234,9.709097
81936179807632,0.2143295,0.17216979,9.706501
81936199663633,0.17514426,0.12409024,9.9135065
81936219516793,0.17697558,0.17398027,9.885873
81936239372665,-0.0025635664,0.17853647,9.815165
81936259228666,0.10486675,0.2698451,9.489851
81936279084665,0.00927158,0.16982298,9.425802
81936298934037,0.25467384,0.0985146,10.032089
81936318789782,0.18505697,0.28296968,10.1197815
81936338645655,0.22471125,0.24735129,9.887938
81936358501397,-0.1130317,0.17455137,9.83168
81936378357270,-0.040128786,0.23338401,9.832069
81936398213013,0.47050488,0.32128587,9.727473
81936418063454,0.12042181,0.13059041,9.520214
81936437919071,-0.0573663,0.031030117,9.678585
81936457774558,0.2444077,0.22859213,9.984511
81936477630174,0.13922048,0.3690337,9.897834
81936497485791,-0.056163754,0.17645599,9.852112
81936517337670,0.01719252,0.2038733,9.840177
81936537193287,0.08809452,0.22462457,9.82716
81936557048776,0.20358469,0.14423187,9.678514
81936576904393,0.05396341,-0.01764984,9.604898
81936596759882,0.08317718,0.07801878,9.739396
81936616615499,0.044621978,0.23405226,9.830579
81936636460608,-0.082429856,0.14968368,9.880528
81936656315969,0.05423684,0.12974447,9.958597
81936676171330,0.06877152,0.20233794,9.881157
81936696026819,0.12085283,0.16546902,9.740745
81936715875384,0.049339227,0.048464637,9.632232
81936735730489,0.16431843,0.052384075,9.670745
81936755585708,0.19555397,0.1634088,9.812091
81936775440812,-0.042705126,0.19325347,9.84978
81936795296045,-0.06490122,0.19149816,9.875749
81936815151765,0.063054524,0.2974468,9.812327
81936835006869,0.0631729,0.2316935,9.700303
81936854861974,0.14966129,0.13712515,9.72197
81936874717205,0.075051405,0.116904765,9.759749
81936894572309,0.18431935,0.22777803,9.929118
81936914427542,0.03921691,0.2910035,9.8689785
81936934289198,0.03659118,0.31365138,9.770164
81936954144430,0.045186546,0.20520611,9.772358
81936973999663,0.055839263,0.23158504,9.70357
81936993854894,0.14377774,0.20109887,9.726933
81937013712969,0.08427817,0.22683468,9.788504
81937033568202,0.031725213,0.21056378,9.818549
81937053423433,0.037841406,0.3006992,9.886819
81937073278665,0.04328642,0.22425306,9.827486
81937093133898,0.015279328,0.1312815,9.743648
81937112991183,0.19550243,0.24821338,9.7863655
81937132846543,-0.008692479,0.17826308,9.754776
81937152701776,0.031575177,0.118421696,9.740006
81937172557007,0.062438883,0.24057704,9.801111
81937192412239,-0.04525467,0.2431708,9.805121
81937212267600,0.038250163,0.26427835,9.829153
81937232127116,-0.056899928,0.15450011,9.761218
81937251982348,0.12413408,0.23340899,9.8244505
81937271837709,0.031910494,0.2690825,9.791926
81937291693068,-0.037295908,0.19476758,9.81406
81937311553345,-0.0379223,0.19800721,9.77982
81937331408834,0.0021604828,0.2191947,9.733587
81937351264321,0.10448099,0.32665008,9.808822
81937371119810,-0.11241258,0.20720255,9.70186
81937390975299,0.021120114,0.18693243,9.752429
81937410836060,-0.003151864,0.17367357,9.898775
81937430691677,0.0413926,0.29730493,9.897178
81937450547294,0.015905842,0.25662595,9.873195
81937470402911,-0.053412907,0.23311077,9.81167
81937490258528,-8.2136464E-4,0.17060183,9.711604
81937510114145,0.09602994,0.21636693,9.673842
81937529972906,-0.009098083,0.1236251,9.601086
81937549828651,0.021338485,0.22037412,9.72896
81937569684396,0.026155738,0.30370793,9.903226
81937589540013,-0.09144793,0.21740608,10.016968
81937609401486,0.07813478,0.32048965,10.073289
81937629257359,-0.015883498,0.27592963,9.784067
81937649113232,0.018520221,0.18877137,9.527729
81937668969105,0.13152218,0.17453788,9.645366
81937688825106,-0.005760881,0.21625789,9.724798
81937708680979,0.075098254,0.2821588,9.926991
81937728533840,-0.12538514,0.14658427,9.952401
81937748389713,-0.099515714,0.20009415,9.881267
81937768245586,0.055190265,0.28391746,9.809553
81937788101440,0.041664083,0.21462432,9.620604
81937807957185,0.11227648,0.14818132,9.689608
81937827813056,-0.020035898,0.17247008,9.711508
81937847668928,-0.0311185,0.15794934,9.821361
81937867524801,-0.077406816,0.2032985,9.870963
81937887380672,-0.011036747,0.27208003,9.836032
81937907238220,-0.03941124,0.2509877,9.728009
81937927094093,0.01048262,0.16889334,9.702539
81937946950092,0.06909583,0.15717842,9.781026
81937966805964,0.05987963,0.18687403,9.824183
81937986661965,-0.029575754,0.23941924,9.799225
81938006517836,-0.08277392,0.19001757,9.828375
81938026378493,-0.06499796,0.24525897,9.776312
81938046234622,0.019064086,0.14002189,9.66227
81938066086742,0.098787814,0.16779026,9.701018
81938085942870,0.050734118,0.1899465,9.794579
81938105798871,0.009708809,0.23588446,9.890758
81938125649941,-0.07348553,0.18257962,9.769826
81938145505941,-0.024546107,0.18516639,9.88168
81938165361942,0.03176896,0.22175108,9.92786
81938185217941,-0.010816918,0.2062581,9.592998
81938205073941,0.08584858,0.11240538,9.643968
81938224929942,0.045223065,0.17969021,9.717085
81938244787306,0.07362609,0.30283841,9.82218
81938264643306,-0.03157323,0.24687296,9.92515
81938284499179,-0.10900314,0.14399862,9.860894
81938304355050,0.09600055,0.2481107,9.891137
81938324208811,0.13911103,0.27223572,9.675428
81938344064684,0.07966774,0.11966319,9.570737
81938363920557,0.087957434,0.14968365,9.72084
81938383776430,0.05793605,0.25313738,9.823101
81938403632303,0.09646397,0.25134,9.916219
81938423488176,0.049892038,0.24697979,9.929674
81938443333887,-0.00714712,0.24180192,9.797511
81938463189504,0.064097166,0.2081558,9.669994
81938483045121,0.13189214,0.09063371,9.653412
81938502900738,0.17041741,0.06445579,9.8145
81938522756355,0.13620524,0.21701367,9.951843
81938542616482,-0.03948826,0.23205778,9.818405
81938562472227,7.344496E-4,0.24423684,9.840499
81938582327972,0.02383031,0.2722818,9.724051
81938602183717,0.15971136,0.22036393,9.778941
81938622032580,0.13710684,0.16153082,9.73024
81938641888197,0.031261217,0.06740654,9.800613
81938661743942,0.14678586,0.22574987,9.888559
81938681599559,-0.030946761,0.25060356,9.790034
81938701455176,0.11855111,0.23086035,9.767345
81938721310793,0.02053628,0.17229956,9.713505
81938741164294,0.13688213,0.19885153,9.745163
81938761019911,0.05640417,0.14301863,9.8021145
81938780875398,0.054791387,0.14342818,9.79238
81938800731014,0.12288619,0.18947257,9.945552
81938820586631,0.08848932,0.20369862,9.933002
81938840440088,0.067802794,0.11863945,9.7188015
81938860295576,0.13253264,0.15616694,9.722354
81938880151193,0.023299156,0.21638486,9.711202
81938900006680,0.12851754,0.29783103,9.740825
81938919864838,0.1272939,0.22241448,9.876748
81938939720455,-0.0021111758,0.2347847,9.930301
81938959575942,0.1492288,0.23065335,9.888281
81938979431558,0.10732778,0.20985818,9.778003
81938999287047,0.03264899,0.15216978,9.605951
81939019142662,0.11036207,0.18369019,9.628667
81939038996011,0.09391395,0.1660515,9.672118
81939058851500,0.07803533,0.14519352,9.79671
81939078706987,0.11710499,0.22302032,9.952846
81939098562603,0.023625975,0.28567952,10.010012
81939118418092,0.09703691,0.21360084,9.931861
81939138268758,0.106462486,0.162346,9.735504
81939158124118,0.09339958,0.09545156,9.614503
81939177979607,0.18869705,0.10016403,9.654428
81939197834968,0.15943782,0.18151276,9.718114
81939217693914,0.034360427,0.20595105,9.834013
81939237549403,0.049554013,0.20687631,9.908243
81939257404890,0.2577666,0.31134292,9.844893
81939277260378,0.057560124,0.20321797,9.693614
81939297115867,0.1223927,0.098438,9.755248
81939316971354,0.2537518,0.07852611,9.939245
81939336821039,0.16213329,0.21746428,9.842098
81939356676272,0.1257415,0.104957215,9.827641
81939376531633,0.11300986,0.17742795,9.78334
81939396386994,0.11923211,0.19562206,9.647909
81939416242355,0.18377367,0.12972377,9.685224
81939436103512,0.08419217,0.122214586,9.734447
81939455958873,0.14037085,0.105109416,9.882082
81939475814362,0.2945762,0.17179395,9.968477
81939495669723,-0.04288938,0.2549553,9.783925
81939515525084,0.18785304,0.2623794,9.822206
81939535380573,0.025790337,0.24590442,9.616403
81939555235544,0.22525339,0.13600545,9.601359
81939575090905,0.23621409,0.090289414,9.76607
81939594946394,0.07448226,0.18243985,9.755222
81939614801755,0.1047126,0.20403802,9.909405
81939634661796,0.023076111,0.29508165,9.877352
81939654517285,0.09522522,0.2946734,9.852064
81939674372902,0.20032114,0.18372832,9.840676
81939694228391,0.10125961,0.026731046,9.698938
81939714083880,0.21754467,0.04592492,9.748452
81939733937967,0.07655443,0.12568104,9.681068
81939753793438,0.06357071,0.1465991,9.697
81939773648799,0.13514708,0.20089364,9.809233
81939793504286,0.23439404,0.28509644,9.891497
81939813359774,0.07260632,0.24598606,9.832494
81939833215263,0.10939362,0.15098833,9.825398
81939853073006,0.12237218,0.08575792,9.814675
81939872928494,0.19457759,0.08154208,9.792338
81939892784111,0.22362992,0.13068362,9.727458
81939912639726,0.057158813,0.14790711,9.790266
81939932505893,0.014526843,0.16697872,9.827151
81939952361766,0.06825787,0.19989792,9.790928
81939972217509,0.17062221,0.17158112,9.768169
81939992073381,0.124622144,0.15742046,9.785993
81940011929254,0.14176509,0.17432013,9.871611
81940031790032,0.10828188,0.14659543,9.868326
81940051645904,0.14472388,0.07531826,9.806978
81940071501777,0.1516906,0.07003524,9.765448
81940091355010,0.07852821,0.081599295,9.5653515
81940111210882,0.08747842,0.022451993,9.735233
81940131066755,0.15094104,0.060850557,9.887498
81940150928874,0.18288201,0.13606021,9.857945
81940170784874,0.15740596,0.17774455,9.795947
81940190641003,-0.027689738,0.18118651,9.793344
81940210497002,0.1184693,0.12815534,9.723975
81940230349979,0.25373554,0.098727465,9.766773
81940250205980,0.11961626,0.026489202,9.694431
81940270061979,0.19225489,0.053967018,9.779496
81940289917979,0.17316823,0.20052892,9.765654
81940309773980,0.11964116,0.22545461,9.822593
81940329627993,0.22823869,0.1943027,9.88402
81940349483991,0.2299943,0.15837087,9.640078
81940369339992,0.22907725,0.04890951,9.588707
81940389195863,0.28071162,0.067629,9.556551
81940409051863,0.32386464,0.116223924,9.562388
81940428907864,0.40409732,0.19196375,9.603502
81940448756232,0.210313,0.35573256,9.571643
81940468612105,0.24585225,0.30102113,9.6681595
81940488467850,0.21962646,0.2929367,9.619269
81940508323723,0.2253372,0.2253974,9.572699
81940528180516,0.22722787,0.2590893,9.586763
81940548036389,0.09091103,0.29166836,9.615548
81940567892262,0.29497322,0.2035568,9.688664
81940587748135,0.39252314,0.20455644,9.711495
81940607604136,0.3211508,0.2278481,9.668964
81940627460009,0.20757212,0.25903392,9.653164
81940647307934,0.11811677,0.23183642,9.5843315
81940667163679,0.27494848,0.19148454,9.580791
81940687019424,0.28878155,0.24960984,9.594265
81940706875156,0.20652077,0.23325554,9.6273575
81940726730901,0.20662448,0.19192049,9.626486
81940746586206,0.1916173,0.23205389,9.590485
81940766441950,0.16470748,0.19727612,9.710863
81940786297567,0.1504044,0.18736932,9.711997
81940806153310,0.22794648,0.1472334,9.606838
81940826004056,0.23144287,0.19412631,9.629573
81940845859673,0.16247794,0.23030886,9.655767
81940865715160,0.20395175,0.27281827,9.628888
81940885570776,0.26345465,0.22348554,9.56044
81940905426393,0.17710756,0.16898337,9.572011
81940925282008,0.17985712,0.1724138,9.627141
81940945130500,0.17355312,0.23924312,9.682715
81940964985861,0.14790219,0.23607026,9.706731
81940984841348,0.1423918,0.2930699,9.67775
81941004696708,0.17665821,0.18459345,9.580327
81941024552069,0.18682887,0.08524015,9.55249
81941044417842,0.24250442,0.12198486,9.59216
81941064273458,0.16044785,0.18932185,9.640268
81941084129075,0.18590593,0.16752389,9.722964
81941103984690,0.17509858,0.12334772,9.753119
81941123833286,0.18551967,0.1506294,9.723622
81941143688647,0.18420833,0.16420203,9.628404
81941163544136,0.13245644,0.11707165,9.533722
81941183399494,0.17165288,0.13164486,9.555837
81941203254983,0.21675733,0.11802187,9.570401
81941223110470,0.21949069,0.1573749,9.671177
81941242970554,0.17233108,0.20474914,9.713556
81941262826043,0.17115583,0.19650167,9.692966
81941282681530,-1.16304,-0.12652206,9.654919
81941302537019,-1.1933954,-0.10186164,9.566291
81941322392508,-1.2564237,-0.13615236,9.446433
81941342245045,-1.3236831,-0.15852953,9.445898
81941362100406,-1.2811958,-0.21244329,9.57595
81941381955895,-1.07815,-0.2621067,9.607144
81941401811256,-0.98059285,-0.24728775,9.610085
81941421665537,-1.078908,-0.21696511,9.722743
81941441520898,-1.089273,-0.23497275,9.741864
81941461376259,-0.8672171,-0.25616175,9.687484
81941481231620,-0.6834136,-0.17093831,9.776782
81941501086853,-0.781164,8.174456E-4,9.842649
81941520942214,-1.0031941,0.09443027,9.802355
81941540810843,-0.94496673,-0.017734922,9.853981
81941560666460,-0.66427594,-0.21400976,10.09428
81941580522077,-0.3244808,-0.40214682,10.240487
81941600377694,-0.16844673,-0.5005461,10.350595
81941620233311,0.13084807,-0.45793098,10.933053
81941640093358,0.038760148,-0.05414053,11.089117
81941659949103,-0.2957149,0.34570292,10.832883
81941679804848,-1.1216606,0.8452034,10.169499
81941699660721,-0.7885882,0.2505234,9.724002
81941719516466,-0.44262445,-0.80006194,9.207425
81941739372191,0.022360565,-0.7397591,9.070057
81941759229934,1.460289,-0.6663489,9.638697
81941779085806,0.4880416,0.75192124,9.864749
81941798941678,0.37348488,1.4296838,10.329696
81941818797550,0.3968316,0.7142668,10.522374
81941838653422,1.1594633,-0.3953334,10.312752
81941858507229,0.6979778,-0.13136332,9.676219
81941878363101,0.1773008,0.029672531,8.834621
81941898218973,0.54196626,-0.7975579,8.476078
81941918074845,0.70429146,-1.3205832,8.554274
81941937930717,0.8235739,-1.020135,8.6145315
81941957788521,0.72192,-0.42278683,8.406923
81941977644393,0.74080783,-0.25936425,8.349352
81941997500265,1.0063925,-0.57527643,8.542596
81942017356265,1.6046808,-1.1356794,8.953156
81942037212137,1.2054245,-0.74955297,9.384744
81942057067290,1.3200932,-0.6644578,9.694391
81942076921780,1.0777943,-0.5948737,9.82828
81942096777652,1.1894891,-0.4256104,9.707972
81942116633524,2.2391005,-0.578404,10.06252
81942136489396,2.67895,-0.9698126,10.489991
81942156339407,2.3365471,-1.160811,11.127865
81942176195279,3.0756304,-1.2320251,11.605039
81942196051023,7.5282364,-2.5798998,8.842248
81942215906896,6.925424,-1.2259178,7.09669
81942235762641,5.548548,-1.3005465,6.1457224
81942255624804,4.123338,-2.1424878,4.881525
81942275480677,0.064473316,-0.6408774,4.111048
81942295336550,-6.403949,1.193912,9.472344
81942315192423,-11.135837,-1.6605427,25.039001
81942335048296,4.447125,-5.6312284,25.192503
81942354907069,1.8634684,-2.4059541,3.3871415
81942374763070,-3.5123749,-0.34577587,1.1485139
81942394619071,-1.9298961,1.2144624,4.7992616
81942414475072,-2.9319422,3.2447023,8.032945
81942434331073,-8.757613,6.0372157,9.99585
81942454175510,-2.6055636,7.0280566,11.177474
81942474031255,7.3388953,1.9298054,12.58756
81942493886872,1.8876607,-1.1778693,10.545464
81942513742617,-3.1733015,2.1551566,7.891969
81942533598362,-1.5556036,2.0034916,8.380679
81942553453411,-0.3641023,0.8638618,9.391341
81942573309028,-0.581644,1.1074543,8.751364
81942593164645,-0.7358221,1.4662778,8.551733
81942613020390,-0.74180603,1.7622439,8.972478
81942632876007,-1.6328434,1.6757817,9.025752
81942652727358,-1.5344765,1.3324778,8.900463
81942672582954,-0.6893814,1.3566908,9.057918
81942692438571,-0.62435687,1.7975172,9.242736
81942712294188,-1.0948565,1.8772633,9.303848
81942732149933,-1.1451662,1.6855558,9.4753
81942751998180,-0.64990735,2.2374215,9.953145
81942771853541,0.47032478,2.197528,11.316849
81942791709025,3.1295261,0.5902682,12.183465
81942811564385,2.312308,0.66580033,12.092347
81942831419873,1.803007,1.8874295,11.63973
81942851275855,2.455261,2.7755463,10.835346
81942871131343,2.0437427,2.0752132,10.522243
81942890986831,1.4608516,0.628826,11.829377
81942910842191,0.14776759,0.8754803,12.996108
81942930697679,-0.09551114,3.4446952,12.735626
81942950548414,-1.9088737,6.3995214,11.701828
81942970403774,-4.3376894,7.6559696,12.141039
81942990259006,-4.990005,7.0010085,12.655404
81943010114366,-4.4825068,5.5473223,11.901788
81943029969598,0.5670001,4.006583,11.670998
81943049833717,4.5553894,1.2466587,12.405551
81943069689205,0.19765604,2.5648265,10.59443
81943089544693,-4.671701,5.879123,5.8597865
81943109400053,-4.2979493,6.463772,4.535703
81943129255541,-5.389599,7.1755323,2.6567929
81943149097632,-5.6706514,6.149596,1.720148
81943168952864,-4.9364123,1.6423196,4.480903
81943188808097,-4.056205,-1.0965825,6.194732
81943208663330,-3.583242,-3.3014977,6.814896
81943228518560,-1.4310935,-5.6408706,8.109306
81943248363017,-1.1886545,-4.438731,8.37136
81943268217992,-0.7467141,0.21431987,8.080822
81943288073096,0.16439192,1.3921237,9.513627
81943307928072,-0.31835163,1.353397,12.465583
81943327783048,2.326113,2.785144,13.359919
81943347636017,13.274991,2.8623953,12.957601
81943367490993,5.863487,7.249993,7.536069
81943387345970,-11.464676,4.3055654,9.584412
81943407200947,-16.214285,3.272996,16.115698
81943427055796,-3.699845,-0.3202963,12.625793
81943446915009,0.53391665,0.5104705,7.595367
81943466769986,2.9853845,1.8507594,7.813024
81943486624963,-0.7100359,0.23884411,12.192865
81943506479940,0.111907184,0.8646542,14.702118
81943526334789,-0.03120657,2.3224795,12.062508
81943546206114,-0.45186865,3.4894915,7.8833795
81943566061347,-0.8428589,4.712716,6.089867
81943585916708,-2.2227936,4.178557,6.844968
81943605771941,-2.199859,2.4932435,8.74102
81943625627174,-1.2722479,1.5630051,9.143332
81943645486113,0.3997551,1.0105879,8.674661
81943665341474,1.993658,0.7196405,8.449672
81943685196835,1.0775492,1.4208832,9.290099
81943705052068,0.7358235,1.4604893,9.980109
81943724907429,-0.16680968,2.7359686,9.934889
81943744767910,-0.9200344,3.3525586,9.319485
81943764623271,-2.9618764,3.0066714,8.911025
81943784478611,-2.5091484,3.4071045,9.950617
81943804334099,-1.408,3.7116432,10.328209
81943824189459,2.1783657,4.099811,10.90909
81943844052097,3.333847,4.805024,11.648695
81943863907713,0.9952357,5.181891,11.894781
81943883763329,-1.3405794,5.6791544,13.497069
81943903618945,-3.4478064,5.575637,13.824517
81943923474561,-3.5104573,4.0859923,10.451151
81943943339064,-3.947456,3.3846354,9.629977
81943963194936,-4.119217,1.7803886,11.987356
81943983050808,-5.24072,2.0026658,12.680345
81944002906680,-5.5828543,2.7698474,11.751586
81944022762552,-3.8842478,3.0820413,12.019899
81944042622575,-2.7337174,3.131822,11.516477
81944062478447,-2.5177555,2.4436479,10.612989
81944082334447,-3.6673334,1.0603597,8.489189
81944102190319,-5.67273,0.30856174,6.686618
81944122046503,-5.080549,0.23042603,6.0683775
81944141898334,-3.4757442,-0.72216994,6.3566866
81944161754206,-3.2395575,-2.4690702,5.78353
81944181610207,-1.8075476,-3.6456265,6.8769264
81944201466078,0.8533232,-3.7357824,7.292399
81944221322078,2.6622586,-3.2578902,7.1201873
81944241178078,2.5436597,-2.6843581,7.0332494
81944261039143,1.8089443,-1.7665719,6.9317594
81944280895143,1.300335,-1.1256038,7.213852
81944300751143,2.5846357,0.75638705,7.4915338
81944320607272,2.62078,2.1553204,7.9915395
81944340463273,3.1910028,4.9182158,9.858868
81944360323092,5.846881,10.488791,13.65866
81944380179221,3.898879,13.275647,14.505777
81944400035350,-4.4444065,6.254129,10.3812685
81944419891479,-3.580581,-0.6066776,9.104311
81944439747608,2.1050901,3.0666459,8.360563
81944459596343,2.9231613,5.737715,10.428643
81944479452344,-1.8130759,-0.01719087,16.261452
81944499308345,-2.9476461,-6.9095507,18.218664
81944519164474,2.73835,-5.4105577,13.6314335
81944539020475,7.7481904,3.2246919,3.9600248
81944558875524,2.3039153,-2.5024107,2.802021
81944578731525,-0.40183368,-3.7821848,5.621232
81944598587526,-2.4336507,-4.1195655,10.296094
81944618443655,-7.3203225,-5.386543,13.00255
81944638299656,-4.7432065,-0.0020203162,10.127879
81944658160221,-0.88517666,2.7395368,9.993711
81944678016478,5.3268642,6.170372,10.860048
81944697872735,1.4900838,0.8977588,9.965336
81944717728992,-1.7933449,-0.8950628,8.910984
81944737585230,-2.0025134,-0.857565,9.093839
81944757434729,-1.6699902,-0.5119401,8.479673
81944777290729,-1.7869298,0.002037794,8.232346
81944797146729,-0.75168395,1.4234184,9.504429
81944817002729,-0.19560656,1.592884,9.952968
81944836858729,0.042969026,0.882587,9.662889
81944856701021,1.3283148,1.1164259,9.220653
81944876556637,2.3485217,1.5476995,9.045286
81944896412253,1.1508976,0.53134793,9.069723
81944916267997,-0.32353732,-0.944248,8.360601
81944936123613,-0.9326578,-1.4331871,8.127553
81944955974018,-0.016472766,-0.13853578,9.585474
81944975829506,0.2838173,1.5115193,11.076017
81944995684994,-0.66458154,1.3595272,11.260847
81945015540354,0.1817571,1.2980233,10.967837
81945035395842,0.9955296,1.3120596,10.262332
81945055250221,0.57108665,1.3772172,9.871429
81945075105581,0.3677958,1.9127034,9.849199
81945094961069,0.043455362,2.387416,9.600258
81945114816429,0.091706,2.8598914,9.794193
81945134671789,-0.41907096,2.7585385,10.581421
81945154530337,-1.482569,3.5256314,11.67175
81945174385826,-2.9484508,2.7979486,13.339014
81945194241315,-3.5102055,2.2982268,13.92309
81945214096932,-2.4204662,2.5587933,11.988734
81945233952421,0.023402674,0.37196207,10.073288
81945253812385,1.3930632,-2.116237,9.260345
81945273667873,2.5984728,-4.3762236,9.917284
81945293523489,4.585434,-3.643658,10.893046
81945313379105,1.939514,-1.2094634,10.214223
81945333234593,-0.5610527,-2.0347905,10.077141
81945353092184,-0.97718954,-1.9858658,10.396779
81945372947929,-0.45634106,-1.6612484,10.176586
81945392803546,0.5679086,-1.5554793,9.996605
81945412659163,1.0024484,-1.4624788,9.8688
81945432514780,0.87602043,-1.6120269,9.73352
81945452369669,0.609039,-0.99017775,9.969101
81945472225286,0.23822461,-0.718674,9.977263
81945492080903,0.1607282,-0.5107075,9.4648075
81945511936520,0.8877885,-0.8195486,8.959852
81945531792137,0.22301854,-1.9118625,8.423987
81945551650782,0.018420242,-1.0877917,8.482623
81945571506527,1.1262276,0.7567126,9.533177
81945591362144,2.1346498,1.599725,10.450283
81945611217889,1.3618631,1.6568782,10.468289
81945631073506,-0.6915791,-0.26516795,9.187414
81945650932225,-0.97905064,-1.4734863,8.145215
81945670787970,-1.4659749,-1.5447819,8.006178
81945690643843,-1.4009005,-1.1940914,8.611698
81945710499588,-0.7591061,-0.74234724,9.876477
81945730355333,0.17120445,-0.6117448,10.58171
81945750205680,1.3095223,-0.86006343,10.958772
81945770061297,2.042538,-0.61424345,10.934135
81945789916893,1.811097,-0.6030559,11.086665
81945809772509,0.8250609,-1.1002922,10.735331
81945829628125,-0.3441586,-1.3895718,9.257398
81945849488720,-0.8051337,-1.0289357,9.280229
81945869344592,-0.843861,-0.20193921,9.988978
81945889200336,-1.3720917,-0.13454232,10.157445
81945909056080,-1.846336,-0.100070946,10.023572
81945928911824,-1.049689,0.16161738,9.930602
81945948769013,-0.33426836,0.036727175,9.9165745
81945968624757,-0.1635333,-0.53910106,9.8297615
81945988480629,-0.020633606,-1.0030385,9.860938
81946008336501,-0.03248236,-1.1063697,9.902145
81946028192373,-0.12871586,-0.9103865,9.941925
81946048045801,0.04133948,-0.5128395,10.045974
81946067901545,-0.0220657,-0.2711685,10.136447
81946087757289,-0.26957795,-0.26935607,9.964582
81946107613033,-0.31281456,-0.26893553,9.92083
81946127468905,-0.09415342,-0.101433635,10.102254
81946147324649,-0.046366245,0.0770367,10.131785
81946167179821,-0.15747856,0.13110086,10.098281
81946187035566,-0.14849207,-3.7063652E-4,10.107113
81946206891183,-0.23208897,-0.09549283,10.101118
81946226746928,-0.45845133,-0.15496516,9.984558
81946246602541,-0.26358733,-0.14179166,9.85728
81946266464788,-0.07995568,-0.12105449,9.83825
81946286320532,-0.060827907,-0.09732143,9.894565
81946306176404,-0.115855016,-0.12161176,9.935546
81946326032148,-0.25238082,-0.06718829,10.002259
81946345888021,-0.24488276,-0.11911041,10.051704
81946365747348,-0.06231711,-0.108258985,9.992026
81946385603221,0.0011305219,-0.06966203,9.92978
81946405459094,0.017434327,0.002749308,10.058567
81946425315095,-0.006022532,-0.036747042,10.020765
81946445170968,-0.0011518175,-0.07100636,9.873725
81946465014105,-0.01354164,-0.07214945,9.795053
81946484869722,-0.08515294,-0.020422164,9.849325
81946504725339,-0.2305225,0.021989249,9.86927
81946524580956,-0.2296471,0.03690325,9.820065
81946544436701,-0.14556348,0.047115713,9.847505
81946564293476,-0.14790213,0.107017316,9.79684
81946584149093,-0.18885049,0.09355887,9.72372
81946604004710,-0.17893627,0.069167264,9.775373
81946623860327,-0.14275935,0.07324613,9.95503
81946643716072,-0.15867032,0.07025732,9.905812
81946663567019,-0.14526781,0.086917125,9.808165
81946683422508,-0.15932252,0.091159895,9.757674
81946703278125,-0.18807259,0.11495595,9.697694
81946723133614,-0.24927914,0.12039803,9.756542
81946742989103,-0.1847167,0.12876956,9.727004
81946762841186,-0.15504158,0.12243295,9.698216
81946782696655,-0.14256525,0.14707664,9.733353
81946802552015,-0.16434598,0.1684273,9.820399
81946822407503,-0.2103297,0.15185975,9.780652
81946842262991,-0.16857691,0.15994488,9.740314
81946862114816,-0.13032994,0.16365118,9.720579
81946881970304,-0.04529987,0.17346394,9.725207
81946901825664,-0.0014628515,0.15019676,9.73548
81946921681024,0.008354515,0.11331827,9.816794
81946941536512,-0.03909639,0.13069884,9.967185
81946961394231,-0.005607661,0.16609038,9.939297
81946981249591,0.061454166,0.21311285,9.944777
81947001105079,0.10478149,0.27036747,9.828524
81947020960439,0.14502487,0.22209436,9.828633
81947040815927,0.081787124,0.1424903,9.792588
81947060674146,0.08909281,0.12423287,9.630032
81947080529634,0.0545221,0.073349066,9.675704
81947100385122,0.058231436,0.16519499,9.782008
81947120240482,0.042202394,0.18607315,9.87896
81947140095970,0.0024371624,0.18700108,9.929422
81947159952027,-0.005762492,0.15191394,9.889155
81947179807516,0.03489486,0.09970271,9.786908
81947199663002,0.098804794,0.0785125,9.742894
81947219518362,0.07001303,0.1402827,9.6633415
81947239373850,0.03606854,0.14275771,9.660158
81947259231502,0.045754325,0.09924026,9.729572
81947279086990,-0.018713942,0.13434695,9.859636
81947298942478,-0.067813635,0.17197078,9.892715
81947318798094,-0.02213414,0.24182045,9.916797
81947338653582,-0.023770973,0.15454666,9.817784
81947358503966,0.027902342,0.09781388,9.738813
81947378359454,0.028716264,0.117856316,9.693159
81947398214814,0.037483867,0.1851794,9.646517
81947418070174,0.019135702,0.21372887,9.668774
81947437925534,-0.04136362,0.17271464,9.827945
81947457782637,-0.12736048,0.19662836,9.978225
81947477638125,-0.09026185,0.23750186,9.880522
81947497493485,-0.07224522,0.20733643,9.804396
81947517348973,0.020186475,0.1656156,9.765128
81947537204461,-0.020432355,0.17917842,9.754761
81947557067012,-0.022159936,0.17433007,9.669869
81947576922500,-0.05041884,0.14260766,9.683093
81947596778116,-0.070157625,0.11579231,9.77667
81947616633604,-0.0713055,0.18610674,9.963711
81947636489220,-0.08658502,0.24911542,9.93406
81947656344728,-0.107524194,0.16460513,9.813759
81947676200344,-0.058520745,0.1457709,9.771938
81947696055832,-0.08930024,0.14727205,9.800888
81947715911448,0.0038901537,0.16780126,9.893987
81947735767064,0.16802135,0.21747662,9.847615
81947755621496,0.17397103,0.2304915,9.784258
81947775476984,-0.0023950562,0.23081616,9.856125
81947795332472,-0.30316696,0.05142455,9.841277
81947815188088,-0.40729478,-0.041378878,9.763514
81947835043576,-0.2181499,0.093156606,9.592651
81947854903416,-0.0019649463,0.119865514,9.536114
81947874759032,-0.011130377,0.03616025,9.68381
81947894614776,-0.06338864,0.067308426,9.784062
81947914470392,-0.0746264,0.112662405,9.889673
81947934326136,-0.0776087,0.1677086,9.908823
81947954182892,-0.17678213,0.15686832,9.91835
81947974038764,-0.17576386,0.18994854,9.87156
81947993894508,-0.09139165,0.12624428,9.774974
81948013750252,-0.011618776,0.1947912,9.698188
81948033605996,-0.035679847,0.20843127,9.642814
81948053465239,-0.03527598,0.13997635,9.701334
81948073320984,-0.043455865,0.12713745,9.800564
81948093176729,-0.15733853,0.27895477,9.833479
81948113032471,-0.15333577,0.29859462,9.8765545
81948132888343,-0.14276592,0.18538557,9.875461
81948152750213,-0.050344605,0.16299433,9.830727
81948172606213,0.068535455,0.1758782,9.723199
81948192462213,0.04395817,0.2253219,9.695766
81948212316039,0.018376136,0.20923862,9.723362
81948232172040,-0.083793,0.17721777,9.860767
81948252025731,-0.0806274,0.15282142,9.840946
81948271881604,-0.050661158,0.21676761,9.948764
81948291737605,-0.109618254,0.28031614,9.857658
81948311593478,-0.120298795,0.14719425,9.744011
81948331449351,0.0101505285,0.02699251,9.718609
81948351301772,0.041989964,0.042731486,9.686379
81948371157645,0.08397052,0.2410713,9.649222
81948391013518,-0.017072478,0.18585713,9.766447
81948410869263,-0.17249513,0.08263088,9.951735
81948430725136,-0.17139123,0.16655561,9.971027
81948450568367,-0.0091708675,0.22508885,9.820998
81948470423856,0.055214215,0.12749034,9.767354
81948490279473,-0.017509867,0.08113377,9.721638
81948510134962,-0.03217144,0.16041856,9.655279
81948529990579,-0.013695039,0.20656894,9.641075
81948549845384,-0.07389669,0.1793153,9.731854
81948569701001,-0.12968919,0.1312111,9.919325
81948589556490,-0.12793969,0.16525823,9.991428
81948609412107,-0.14064895,0.23954308,9.833432
81948629267596,-0.046348047,0.19673891,9.713652
81948649117873,-0.0142651675,0.09994476,9.750225
81948668973362,0.00404419,0.10060869,9.712396
81948688828701,0.026653845,0.13783845,9.692757
81948708684190,-0.073163055,0.13171676,9.75988
81948728539679,-0.15290785,0.09411666,9.895
81948748395168,-0.10653045,0.15721239,10.050474
81948768251675,-0.08306797,0.21493478,9.8711815
81948788107159,-0.08392131,0.2252451,9.717498
81948807962519,-0.035590965,0.11610861,9.694546
81948827818007,-0.028865105,0.06488242,9.694512
81948847673495,-0.023870934,0.17519335,9.640831
81948867514031,-0.06144671,0.18285032,9.802277
81948887369263,-0.16002984,0.14533861,9.938103
81948907224367,-0.20297416,0.14603335,9.876964
81948927079599,-0.09119524,0.20141654,9.821991
81948946934703,0.007212786,0.17474693,9.808018
81948966750779,-0.014942451,0.20037265,9.802396
81948986605243,-0.02990164,0.19273466,9.697934
81949006459579,-0.09543698,0.13927856,9.595368
81949026313915,-0.10201086,0.105102316,9.635264
81949046168251,-0.09496977,0.15641764,9.848598
81949066027865,-0.10799946,0.23573881,9.992124
81949085882201,-0.12336652,0.16943507,9.888685
81949105736537,-0.077298075,0.092092924,9.799211
81949125591001,-0.016182927,0.10379382,9.814386
81949145445338,-0.034114063,0.20011164,9.641918
81949165312892,-0.032956213,0.15336338,9.583119
81949185167485,0.024705654,0.07441873,9.665177
81949205022076,-0.051605295,0.08123121,9.839052
81949224876668,-0.06799545,0.2109081,9.91491
81949244731260,-0.13075334,0.2495077,9.979851
81949264594336,-0.19757518,0.20817551,9.885004
81949284449057,-0.08646172,0.12760906,9.806111
81949304303650,-0.008355202,0.07103674,9.72261
81949324158371,-5.029474E-4,0.11395899,9.703144
81949344013092,-0.07379578,0.110558815,9.714995
81949363872645,-0.10282871,0.06349908,9.777494
81949383727494,-0.19962054,0.11854528,9.85245
81949403582215,-0.2077128,0.12628995,9.874807
81949423436936,-0.24483427,0.06539852,9.863476
81949443291785,-0.17093563,0.020840403,9.809186
81949463156634,-0.050913345,0.008309802,9.796676
81949483011483,-0.023232983,0.025022754,9.710332
81949502866460,-0.018472672,0.011684706,9.613014
81949522721309,-0.09082095,0.016930899,9.691748
81949542576286,-0.1237089,0.013342301,9.831445
81949562441095,-0.13551085,0.10719014,9.937837
81949582296200,-0.09149621,0.099793084,9.886539
81949602151177,-0.038975477,0.05870097,9.868982
81949622006282,-0.06563584,0.0634117,9.831785
81949641861387,-0.0050337603,0.080201365,9.762719
81949661727780,0.053759497,0.073602565,9.617197
81949681583141,0.04570878,0.034682952,9.60416
81949701438502,-0.030593503,0.0705638,9.828392
81949721293863,-0.09289545,0.13408563,9.968063
81949741149204,-0.04649324,0.22199471,9.941051
81949761019461,-0.06355775,0.25932175,9.781642
81949780875205,-0.054863807,0.121014744,9.716966
81949800730949,-0.026575578,0.10908067,9.699785
81949820586693,0.05496097,0.15898454,9.705565
81949840442437,0.06639107,0.20280398,9.78607
81949860303929,-0.060605317,0.13602395,9.807206
81949880159929,-0.1242375,0.12029357,9.862185
81949900015929,-0.14010024,0.16311389,9.838041
81949919871801,-0.0565128,0.19653895,9.798388
81949939727801,-0.0022564286,0.14366506,9.866319
81949959589043,0.0050310562,0.12528203,9.759771
81949979445171,-0.0050685974,0.154897,9.699286
81949999301299,0.018276507,0.19463176,9.727602
81950019157427,-0.123026595,0.18611096,9.780104
81950039013555,-0.15002277,0.21156977,9.802115
81950058876327,-0.14555581,0.19440906,9.861391
81950078732711,-0.049790055,0.15412378,9.822506
81950098588967,-0.054582026,0.11262726,9.802042
81950118445223,-0.019588012,0.1658331,9.765555
81950138301608,-0.0047467574,0.10628001,9.689506
81950158164837,-0.018786991,0.13902184,9.711811
81950178021476,-0.075380795,0.13303037,9.7862215
81950197877988,-0.11085608,0.16208334,9.870776
81950217734500,-0.12925932,0.11780512,9.84924
81950237591140,-0.042750854,0.073080264,9.754221
81950257451744,0.02015433,0.12036532,9.760908
81950277308512,-0.0076218145,0.15898445,9.795361
81950297165152,-0.04193171,0.15912093,9.74264
81950317021921,-0.042725164,0.11180829,9.745711
81950336878562,-0.09482995,0.10043446,9.81848
81950356736793,-0.12545685,0.14431244,9.944825
81950376593690,-0.050289728,0.1754058,9.946437
81950396450587,-0.040518846,0.18078028,9.792756
81950416307484,-0.021513712,0.15957735,9.717602
81950436164374,-0.059703376,0.09351444,9.740134
81950456005550,-0.11635564,0.10209697,9.783933
81950475862191,-0.049053643,0.1901296,9.74341
81950495718830,-0.07155723,0.14259847,9.765529
81950515575342,-0.099425904,0.14583926,9.860665
81950535431983,-0.1604856,0.1466799,9.90874
81950555264369,-0.115016095,0.17267844,9.854128
81950575120241,-0.10172776,0.119647354,9.711298
81950594975986,-0.11020047,0.12006566,9.68363
81950614831857,-0.06483875,0.105324775,9.682212
81950634683012,-0.044154685,0.11723589,9.680554
81950654538757,-0.06426724,0.19654271,9.719615
81950674394500,-0.114346355,0.21779826,9.908086
81950694250116,-0.14580865,0.16921641,10.065649
81950714105861,-0.096966624,0.14739722,9.88372
81950733961604,-0.016166417,0.1895745,9.733161
81950753818744,0.015851479,0.14680074,9.635268
81950773674489,-0.08208506,0.11348323,9.633865
81950793530232,-0.03802309,0.23252907,9.7565365
81950813385976,-0.03992307,0.19521636,9.819794
81950833241721,-0.060258012,0.16947292,9.929059
81950853089833,-0.10874943,0.19855396,9.911852
81950872945450,-0.17276864,0.24493928,9.859797
81950892801067,-0.12430322,0.20211393,9.836852
81950912656553,-0.035093468,0.172626,9.836666
81950932507482,-0.003544,0.26391125,9.690845
81950952362971,-0.08953721,0.21971712,9.616857
81950972218458,-0.20268404,0.11468085,9.751945
81950992073818,-0.29589227,0.17444791,9.820389
81951011929307,-0.281416,0.22814791,9.864728
81951031784666,-0.22252923,0.1934538,9.82073
81951051645189,-0.17335042,0.1228782,9.719047
81951071500678,-0.109352,0.15433477,9.659438
81951091356165,-0.06900406,0.18188077,9.741047
81951111211653,-0.085420415,0.17079335,9.779757
81951131067142,-0.06966907,0.080207296,9.826456
81951150925817,0.050973378,0.12465524,9.822825
81951170781433,0.06653901,0.0952632,9.80399
81951190637050,0.08738186,0.10059042,9.887758
81951210492537,0.12177469,0.09047239,9.86255
81951230346836,0.09281844,0.091841504,9.762469
81951250202325,-0.010129849,0.14304139,9.701627
81951270057940,-0.08915206,0.11486276,9.713223
81951289913428,-0.15607631,0.06083589,9.808994
81951309768917,-0.1861271,0.08953188,9.809242
81951329624406,-0.1872181,0.15217462,9.899548
81951349481147,-0.13916743,0.16963215,9.850243
81951369336636,0.018782612,0.13975309,9.792164
81951389192251,0.14881687,0.10026425,9.773617
81951409047739,0.13097034,0.09639797,9.704077
81951428903356,0.02258635,0.11037283,9.703636
81951448762718,-0.063534945,0.14050423,9.774297
81951468618335,-0.12155311,0.16940391,9.7691765
81951488473952,-0.24953057,0.16191126,9.784499
81951508329441,-0.39478222,0.21450327,9.83055
81951528185058,-0.5288791,0.31675866,9.799761
81951548040675,-0.5186321,0.4107233,9.791659
81951567892786,-0.36159453,0.36085212,9.743927
81951587748275,-0.17327146,0.23832932,9.627354
81951607603892,-0.1526605,0.18641485,9.612766
81951627459381,-0.13263822,0.15352942,9.699901
81951647313400,-0.11671694,0.12494,9.956284
81951667168889,-0.05497611,0.17493114,10.005991
81951687024378,-0.10237563,0.16180433,9.942477
81951706879867,-0.042018365,0.06978904,9.85504
81951726735484,-0.02248052,-0.027192743,9.732711
81951746593044,0.02280107,0.08500562,9.623288
81951766448660,0.15090002,0.137685,9.688857
81951786304277,0.11252718,0.03246676,9.846697
81951806159892,0.09531562,-0.1468887,9.929712
81951826015508,0.12681931,-0.09385175,9.86187
81951845870997,0.14022341,-0.105319805,9.799243
81951865724357,0.06392546,-0.10970872,9.90027
81951885579973,0.15866421,-0.031136107,9.756025
81951905435590,0.39703402,0.1103163,9.707405
81951925291205,-0.030215738,0.17673491,9.637942
81951945149160,-0.36912578,0.27643168,9.750565
81951965004777,-0.47512335,0.14945896,9.830562
81951984860520,-0.40761843,0.2011772,9.829463
81952004716136,-0.40390053,0.38617697,9.682069
81952024571881,-0.39248252,0.41345558,9.68907
81952044418164,-0.3521662,0.2112723,9.680625
81952064273652,-0.5484496,-0.24500489,10.058157
81952084129141,-0.4773585,-0.43618682,10.317527
81952103984500,0.49477664,0.60530525,9.730316
81952123839989,0.38306272,0.625116,9.297004
81952143695478,-0.17831416,0.07556115,10.17973
81952163538557,-0.5942874,-0.2705581,9.870083
81952183393790,0.07132099,-0.31859958,10.305212
81952203248890,0.70964557,0.36619693,9.779262
81952223104122,-0.4932821,0.040113457,9.439473
81952242959354,-0.4886384,0.7100462,9.272552
81952262820053,0.15418062,0.59743404,9.680697
81952282675285,0.033422165,-0.24815738,9.889761
81952302530518,-0.09546625,-0.3551521,9.961059
81952322385751,-0.092720985,0.019487113,9.982761
81952342240984,0.110272065,0.13441223,9.874618
81952362100495,0.22658734,-0.0035132107,9.738399
81952381955728,0.129453,-0.045169808,9.675275
81952401811089,0.051115666,-0.014531295,9.606671
81952421666450,0.03261116,-0.026118914,9.596539
81952441521811,0.013687159,-0.09594812,9.84967
81952461371216,-0.16665377,-0.16077566,10.1478815
81952481226321,-0.40954465,0.16835107,9.697056
81952501081554,-0.49192837,0.6223324,9.392288
81952520936659,-0.36746767,0.60965234,10.102863
81952540791892,-0.48504138,0.29177153,9.883449
81952560650227,-0.31914663,0.21610667,9.768336
81952580505332,0.0845447,0.3249682,9.996372
81952600360565,0.02860639,0.17972302,10.392034
81952620215670,-0.1528549,0.30588365,9.84204
81952640070903,0.018011283,0.15451121,9.577408
81952659930554,0.12578563,0.16391246,9.4807825
81952679785915,-0.055715006,-0.0392628,9.515858
81952699641148,-0.087751634,-0.015264721,9.771684
81952719496509,0.111210845,0.13391769,9.707023
81952739351722,0.14050172,0.24065113,9.745324
81952759214201,-0.18852696,0.3488205,10.178513
81952779069089,-0.56584007,0.31670427,10.205401
81952798924577,-0.6133102,0.4407628,9.7028265
81952818780065,-0.53004867,0.5631547,9.590559
81952838635425,-0.5480905,0.5902791,9.628703
81952858490456,-0.5185153,0.35659456,9.64237
81952878345944,-0.26841655,0.22624032,9.726835
81952898201432,0.029881189,0.1451994,9.64949
81952918056792,0.24755728,0.0013813697,9.884691
81952937912280,0.2672559,-0.16994222,10.219187
81952957767000,0.16208568,-0.23829298,9.700552
81952977622360,0.37069523,-0.13064466,9.829731
81952997477848,0.49638626,-0.08468605,10.003366
81953017333208,0.30108523,-0.23800139,9.790455
81953037188696,0.2028699,-0.06472822,9.707159
81953057049693,0.12904553,0.12153154,9.503613
81953076905310,-0.19989707,0.2830128,9.536412
81953096760927,-0.4788059,0.120022185,9.987307
81953116616541,-0.32084045,0.20341164,10.207504
81953136472157,-0.17023875,0.04661899,9.660296
81953156328615,-0.20094573,0.27065763,9.508748
81953176184231,-0.428509,0.46777403,9.613449
81953196039975,-0.3695237,0.29160854,9.905725
81953215895591,-0.09088295,0.17591791,9.904121
81953235751207,0.16590358,-0.08092724,9.855334
81953255612260,0.40962657,-0.020745674,9.907971
81953275468005,0.24935962,0.085137784,9.835143
81953295323750,-0.015071536,0.09251644,9.898027
81953315179495,-0.10062444,0.1712498,9.746226
81953335035240,-0.1271637,0.25751603,9.51678
81953354890021,-0.1555349,0.40404332,9.565727
81953374745766,-0.31982753,0.442636,9.634465
81953394601511,-0.4020953,0.44418743,9.851789
81953414457256,-0.31728992,0.45833382,9.918949
81953434313001,-0.18765572,0.4119637,10.01032
81953454168874,-0.082204334,0.43291804,9.850626
81953474024825,-0.17071562,0.26843238,9.688196
81953493880570,-0.23415777,0.1768791,9.623262
81953513736315,-0.03318944,0.07235197,9.731442
81953533592060,0.21110013,0.06650948,9.76584
81953553447933,0.2722846,0.18929693,9.804753
81953573311016,-0.036190044,0.18024535,9.8581295
81953593166889,-0.23445214,0.021468302,9.963165
81953613022890,-0.22926278,0.025476659,9.807922
81953632878891,-0.07246056,0.21036151,9.671248
81953652734764,0.0791782,0.18464917,9.720916
81953672590499,-0.002841267,0.041376743,9.767461
81953692446372,-0.009844667,0.064651944,9.780796
81953712302353,-0.0044884128,0.2546711,9.766197
81953732158226,-0.07516827,0.22297691,9.860884
81953752014227,-0.105281174,0.104192786,9.958819
81953771865016,-0.10531919,0.04348633,9.908666
81953791720758,0.040983777,0.046124432,9.817789
81953811576502,0.14872994,0.10255676,9.866388
81953831432374,0.13647215,0.110634685,9.74284
81953851288118,-0.010698211,0.12093604,9.70063
81953871142541,-0.03132566,0.049074605,9.754057
81953890998285,-0.08164174,-0.05210904,9.800774
81953910854029,-0.092091136,0.046454698,9.82288
81953930709773,-0.0347914,0.099491,9.801278
81953950565645,-0.07800282,-0.0365345,9.778244
81953970422816,-0.050802197,-0.09598637,9.703227
81953990278688,-0.01884949,0.008868275,9.706875
81954010134432,0.023883644,0.070303425,9.709979
81954029990304,-0.035566844,0.09785153,9.79798
81954049846048,-0.18618874,0.065935306,9.82703
81954069704389,-0.18560107,0.057676505,9.908657
81954089560261,-0.121139154,0.09737968,9.870658
81954109416133,-0.03100761,0.08566482,9.892764
81954129271877,0.065221615,0.061197434,9.856443
81954149127750,0.06571201,0.056891467,9.684825
81954168990010,-0.0115622515,0.053268164,9.703813
81954188846010,-0.093362615,0.04654058,9.7772255
81954208702010,-0.122107215,0.055008207,9.819217
81954228558010,-0.13062705,0.08389699,9.836173
81954248414010,-0.11951359,0.074166685,9.809256
81954268268832,-0.12129618,0.05990405,9.786822
81954288122823,-0.09538597,0.09930997,9.735499
81954307978824,-0.0010881524,0.1873738,9.744071
81954327834825,-0.048761554,0.16430427,9.772103
81954347690826,-0.12026282,0.11710947,9.779457
81954367549873,-0.12243085,0.17572482,9.805387
81954387405874,-0.13548687,0.17041035,9.851041
81954407262003,-0.074406914,0.2065885,9.904885
81954427118132,-0.062880345,0.19131884,9.8667
81954446974133,-0.053983323,0.11664899,9.761043
81954466820510,-0.0944251,0.06491342,9.628615
81954486676383,-0.07576601,0.12525475,9.6512785
81954506532256,-0.03908449,0.28722972,9.756514
81954526388257,-0.15060896,0.266816,9.81258
81954546244130,-0.16479804,0.22755906,9.971814
81954566099729,-0.18287243,0.22734308,9.946014
81954585955474,-0.1421464,0.2678993,9.849555
81954605811347,-0.102079414,0.26545402,9.72968
81954625667220,-0.02166588,0.21724923,9.665524
81954645523093,-0.03111465,0.2269201,9.585796
81954665373310,-0.08014654,0.23331223,9.757717
81954685229055,-0.18207659,0.2296311,9.880294
81954705084800,-0.24308157,0.16116625,9.869578
81954724940545,-0.11195395,0.17650543,9.983244
81954744796290,-0.03648932,0.173796,9.9344015
81954764646380,-0.0034547765,0.13571443,9.770173
81954784501996,0.08160963,0.087332435,9.624485
81954804357612,0.047283128,0.017252792,9.6011305
81954824213228,-0.051937494,0.05267724,9.708416
81954844068844,-0.06361292,0.10873269,9.849924
81954863917031,-0.09274518,0.11260295,9.885209
81954883772519,-0.105305426,0.091544546,9.903499
81954903628007,-0.028457632,0.07583409,9.878224
81954923483495,0.008464208,0.078307256,9.771843
81954943338983,0.13077682,0.089838125,9.705817
81954963194874,0.16877533,0.07539936,9.741925
81954983050362,0.07840989,0.06839771,9.74166
81955002905850,0.015003081,0.07213099,9.744714
81955022761210,-0.0055482127,-0.004033437,9.829629
81955042616698,-0.0082690455,0.036775157,9.881812
81955062470202,0.009086115,0.14824091,9.921994
81955082325562,0.03779635,0.152007,9.836106
81955102180922,0.01818773,0.11034742,9.800296
81955122036282,-0.03945864,0.110232085,9.736675
81955141891642,-0.029305145,0.18831958,9.75111
81955161746094,-0.06015505,0.17844181,9.744728
81955181601454,-0.09216363,0.20560487,9.803472
81955201456814,-0.123108596,0.21487358,9.828186
81955221312174,-0.1371732,0.21554966,9.862717
81955241167534,-0.19636464,0.21303362,9.811665
81955261021071,-0.1845929,0.18511261,9.798832
81955280876431,-0.15465297,0.20158753,9.721336
81955300731791,-0.1712019,0.1441684,9.714537
81955320587023,-0.1565292,0.16156775,9.773648
81955340442383,-0.16039686,0.107327655,9.869651
81955360300564,-0.11656355,0.13196096,9.916231
81955380155925,-0.13801102,0.09443672,9.875353
81955400011286,-0.11683031,0.07179108,9.850649
81955419866647,-0.09871398,0.05636853,9.742625
81955439722008,-0.047463797,0.040314786,9.748573
81955459574181,0.010015323,0.06169577,9.784526
81955479429414,0.071966276,0.13350166,9.781106
81955499284647,0.055323966,0.10971466,9.818828
81955519139880,-0.13979308,0.109264694,9.832367
81955538995113,-0.25382632,0.0863812,9.813855
81955558858806,-0.13726711,0.11372433,9.75707
81955578714167,-0.09192996,0.11336668,9.656718
81955598569528,-0.08207733,0.14958256,9.619428
81955618424889,-0.06536169,0.18814324,9.715441
81955638280250,-0.026357377,0.20424059,9.798909
81955658139787,-0.061539643,0.24577561,9.936397
81955677995276,-0.12324563,0.21905428,9.907986
81955697850765,-0.1553481,0.13317008,9.842861
81955717706254,-0.094147995,0.19252017,9.814224
81955737561724,-0.08313656,0.27446598,9.774326
81955757420473,-0.07765686,0.23069263,9.806478
81955777276089,-0.085186996,0.24093616,9.695895
81955797131577,-0.1500674,0.2008464,9.687676
81955816987193,-0.1336803,0.12922022,9.735673
81955836842809,-0.17595471,0.17913124,9.861911
81955856694183,-0.09887569,0.22097959,9.953223
81955876549799,0.024863347,0.19949822,9.83542
81955896405287,0.01501853,0.094911896,9.69132
81955916260775,-0.04786456,0.016535737,9.699505
81955936116391,-0.03682184,0.05005187,9.739919
81955955971806,-0.009658426,0.12133096,9.716982
81955975827294,0.013793953,0.13624944,9.741506
81955995682910,0.013304725,0.079142146,9.830224
81956015538526,-0.0418985,0.0854294,9.917075
81956035394142,-0.036265437,0.17424692,9.817972
81956055253141,-0.020381762,0.14897998,9.694296
81956075108757,-0.03119905,0.07261285,9.70516
81956094964373,0.03702269,0.11631013,9.734644
81956114819990,0.086137176,0.19622026,9.777436
81956134675607,0.045094237,0.17872109,9.814997
81956154531221,-0.11710884,0.083242625,9.870443
81956174391171,-0.13596407,0.07294161,9.957139
81956194246915,-0.07221412,0.20343894,9.850302
81956214102659,-0.03250612,0.19469684,9.748498
81956233958531,-0.052045353,0.13758048,9.732501
81956253813142,-0.07625848,0.11909204,9.71808
81956273671927,-0.026455423,0.18437602,9.7482395
81956293527800,-0.06676814,0.20667686,9.824541
81956313383673,-0.14312185,0.13476545,9.913999
81956333239418,-0.10224855,0.123117514,9.947795
81956353095291,-0.10146733,0.20605938,9.92825
81956372954722,-0.14270943,0.18617466,9.762673
81956392810595,-0.17732358,0.106468886,9.650783
81956412666468,-0.11444273,0.06317903,9.605468
81956432522469,-0.015718646,0.12209074,9.652512
81956452378342,-0.03482055,0.16658062,9.815026
81956472227979,-0.090811655,0.15167618,9.974357
81956492083596,-0.114363596,0.08440756,9.963532
81956511939341,-0.07811349,0.013675939,9.868491
81956531795086,-0.08236557,0.04189967,9.738917
81956551650831,-0.07306816,0.06587325,9.68841
81956571511274,-0.047130432,0.09985268,9.710674
81956591367147,-0.023507345,0.09784494,9.710437
81956611223020,-0.004595256,0.09524556,9.777645
81956631078893,-0.08504289,0.07217577,9.868181
81956650934638,-0.15814076,0.0759165,9.9319105
81956670783195,-0.12880792,0.14606921,9.913822
81956690638940,-0.07854319,0.14109519,9.739461
81956710494685,-0.055846613,0.054431945,9.7347555
81956730350280,0.048624333,0.009754191,9.755949
81956750202793,0.056524873,0.048909355,9.751912
81956770058410,0.04891825,0.12514548,9.727641
81956789914025,-0.14090416,0.0728846,9.83476
81956809769769,-0.1894421,0.118824996,9.892948
81956829625386,-0.13476415,0.11850802,9.907275
81956849478197,-0.03770502,0.10449298,9.796471
81956869333685,-9.198585E-4,0.10026736,9.691307
81956889189302,-0.013077376,0.1382988,9.695508
81956909044789,-0.057504915,0.1398469,9.6692095
81956928900405,-0.10947286,0.1314758,9.757256
81956948755894,-0.14778757,0.08137326,9.873541
81956968605109,-0.11153029,0.05514878,9.956761
81956988460469,-0.059121013,0.11955378,10.002047
81957008315958,-0.038468882,0.11341594,9.873873
81957028171317,-0.0011992005,0.051658195,9.6902485
81957048024044,0.003953785,0.059606418,9.621727
81957067879405,-0.07257885,0.11794457,9.659182
81957087734764,-0.14029261,0.13374959,9.708917
81957107590124,-0.18155934,0.09493509,9.823197
81957127445485,-0.1367961,0.102252774,9.927877
81957147306665,-0.11337452,0.13877526,10.000444
81957167162153,-0.10164341,0.17109305,9.825733
81957187017642,-0.08763445,0.09376254,9.770427
81957206873129,-0.05494779,0.03586277,9.66613
81957226728617,0.04018098,0.121932656,9.705443
81957246584106,0.028383426,0.22788288,9.738436
81957266439830,-0.11837368,0.14092368,9.816787
81957286295318,-0.1557769,0.079245284,9.928484
81957306150807,-0.12694983,0.16095582,9.929474
81957326006422,-0.13130455,0.15769014,9.875913
81957345860427,-0.10928738,0.12292205,9.813745
81957365715788,-0.04642367,0.057569876,9.6398535
81957385571277,0.061371583,0.075453155,9.678734
81957405426766,0.034972534,0.17903572,9.801066
81957425282255,-0.089218974,0.20255665,9.843487
81957445137744,-0.14601178,0.17868844,9.816883
81957464985973,-0.13800883,0.14901352,9.81823
81957484841206,-0.08913574,0.11212155,9.864938
81957504696439,-0.12899241,0.16162038,9.79112
81957524551672,-0.06267476,0.1573591,9.65229
81957544407033,-0.0025483218,0.14544503,9.675633
81957564264384,-3.05185E-5,0.20430128,9.790595
81957584119617,-0.09455197,0.21562691,9.967341
81957603974978,-0.12991083,0.20284803,9.934192
81957623830211,-0.109175794,0.14287049,9.758523
81957643688646,-0.02322019,0.13342452,9.79351
81957663544007,-0.025831504,0.20514946,9.74961
81957683399368,-0.05391464,0.1986996,9.701935
81957703254601,0.06548384,0.19263312,9.693544
81957723109962,-0.02957371,0.12767191,9.742805
81957742965323,-0.13844566,0.13950497,9.790176
81957762827574,-0.1579646,0.1458994,9.913456
81957782683063,-0.059529647,0.11956594,9.876437
81957802538422,-0.015436539,0.13561128,9.801704
81957822393910,-0.015043937,0.22447371,9.853913
81957842249399,-0.037852943,0.11829944,9.8598
81957862103088,-0.09819771,0.16354121,9.550019
81957881958576,-0.041008808,0.116323866,9.7047615
81957901814065,-0.032059412,0.15485084,9.798513
81957921669424,-0.18784192,0.17158067,9.910082
81957941531166,-0.13630651,0.22198802,9.914735
81957961386783,-0.11141578,0.07320779,9.875966
81957981242398,-0.10360886,0.040218208,9.7274885
81958001098014,-0.081315964,0.062128596,9.662069
81958020953631,0.030617332,0.07993421,9.614985
81958040809246,-0.034945305,0.10651334,9.662058
81958060672463,-0.13200456,0.13584808,9.785836
81958080528208,-0.14354542,0.078603506,9.937905
81958100383951,-0.11226116,0.10924066,9.938559
81958120239695,-0.14193487,0.18176557,9.878329
81958140095568,-0.15097752,0.1723967,9.842211
81958159958534,-0.110477194,0.03601019,9.730047
81958179814534,-0.065303095,0.038782615,9.666786
81958199670535,-0.004131677,0.12623197,9.690186
81958219526534,-0.05262974,0.1792984,9.70935
81958239381650,-0.10956719,0.0792468,9.835378
81958259237651,-0.14704618,0.05986894,9.9233
81958279093522,-0.15959367,0.14569768,9.955248
81958298949522,-0.16739675,0.16376787,9.88534
81958318805523,-0.09041399,0.05058423,9.814595
81958338661394,-0.010667669,0.044365477,9.71951
81958358514113,0.011189508,0.16602765,9.687384
81958378370114,-0.05888613,0.1803886,9.718051
81958398225985,-0.1338067,0.040165424,9.783496
81958418081985,-0.18613403,0.016151976,9.868122
81958437937858,-0.12320114,0.13912864,10.030579
81958457789785,-0.13230553,0.16565473,9.952211
81958477645657,-0.14787535,-0.0026761056,9.731393
81958497501530,-0.01668478,-0.054278947,9.584526
81958517357401,0.048517488,0.0049372395,9.587056
81958537213273,0.06654616,0.19818468,9.713832
81958557069146,-0.10132548,0.17182203,9.906567
81958576920933,-0.15975806,0.061875638,9.920229
81958596776677,-0.21789847,-0.012639433,9.956361
81958616632422,-0.1423477,0.10413643,9.968477
81958636488165,-0.11092032,0.1390668,9.864653
81958656334114,-0.032892514,0.059155717,9.684822
81958676189603,-0.010734889,0.06161731,9.631088
81958696045218,-0.10906989,0.08806937,9.630952
81958715900706,-0.15283549,0.08472082,9.740806
81958735756323,-0.1706066,0.037427574,9.872095
81958755616497,-0.13870701,0.07522706,9.951341
81958775471195,-0.16590478,0.064156905,9.972171
81958795326812,-0.08258193,0.04045317,9.832813
81958815182427,-0.063630596,0.024144176,9.6649065
81958835038171,-0.05350644,0.0602493,9.674487
81958854893788,-0.11863395,0.10986046,9.694448
81958874740163,-0.1641249,0.038291305,9.808771
81958894595651,-0.129582,0.096988484,9.883639
81958914451140,-0.12264051,0.09910707,9.932478
81958934306627,-0.18075082,0.10820674,9.877587
81958954157729,-0.18997109,0.07231097,9.834882
81958974013090,-0.07883584,0.010744895,9.757756
81958993868449,-0.020638645,0.046074513,9.636539
81959013723809,-0.030915206,0.17026624,9.721807
81959033579298,-0.074226096,0.12889251,9.811437
81959053437371,-0.1106026,0.048353277,9.859767
81959073292731,-0.092156686,0.10616534,9.899112
81959093148092,-0.13133122,0.14423388,9.886482
81959113003323,-0.1482483,0.08957986,9.837175
81959132858683,-0.07057779,0.06438377,9.753377
81959152714044,-0.011824953,0.0727584,9.683675
81959172573024,-0.020402944,0.11314409,9.685561
81959192428384,-0.08283906,0.09830018,9.716703
81959212283745,-0.097893484,0.039216682,9.861219
81959232139232,-0.097640894,0.10357033,9.905796
81959251992209,-0.122138694,0.13902977,9.914391
81959271847442,-0.13833907,0.11419619,9.811106
81959291702801,-0.14448626,0.027541725,9.794936
81959311558161,-0.029696127,0.09178556,9.759481
81959331413522,-0.048547685,0.11307603,9.680445
81959351266369,-0.12977447,0.1331566,9.6793585
81959371121601,-0.2060707,0.031910773,9.801868
81959390976962,-0.16450578,0.07479944,9.935221
81959410832193,-0.16323236,0.19767006,9.95991
81959430687553,-0.2326562,0.16012976,9.847171
81959450542914,-0.17745653,0.023813494,9.759455
81959470400015,-0.07275222,-2.7445066E-4,9.663751
81959490255247,-0.039918814,0.13382614,9.659437
81959510110480,-0.083648086,0.22359945,9.80854
81959529965711,-0.21787457,0.088417344,9.861404
81959549817153,-0.22258863,0.002467787,9.887878
81959569672386,-0.13862373,0.027633585,9.880111
81959589527617,-0.101353064,0.11714502,9.807807
81959609382721,-0.09146084,0.14244196,9.716951
81959629237954,-0.02827479,0.059315965,9.740942
81959649093185,-0.027485061,0.075655855,9.693243
81959668957571,-0.1412728,0.09839811,9.796749
81959688812932,-0.15816654,0.12536757,9.877204
81959708668419,-0.2585685,0.04082131,9.889789
81959728523779,-0.17264493,0.08957238,9.890133
81959748379140,-0.117314994,0.075704254,9.800686
81959768235128,-0.061526217,0.0785566,9.695034
81959788090616,-0.037757024,0.12652603,9.637734
81959807946105,-0.049381956,0.078995824,9.729922
81959827801592,-0.08972104,0.07367483,9.84356
81959847658706,-0.15522814,0.05820037,9.8856125
81959867514323,-0.16383383,0.049721815,9.892618
81959887369810,-0.13533916,0.04462188,9.87878
81959907225426,-0.11796874,0.0550233,9.845976
81959927080915,-0.09238424,0.070066676,9.729321
81959946936402,-0.10978693,0.038974453,9.632559
81959966794340,-0.16523287,-0.0034037614,9.703984
81959986649957,-0.114646174,0.039182283,9.82757
81960006505572,-0.0661965,0.096038505,9.869774
81960026361188,-0.10267802,0.11496666,9.873772
81960046216805,-0.21777727,0.046053026,9.853375
81960066071770,-0.20668803,-0.061016425,9.836191
81960085927386,-0.11334713,-0.005041633,9.765742
81960105783003,-0.022347191,0.12998961,9.73744
81960125638618,-0.0010321412,0.22315453,9.718677
81960145502232,-0.06507227,0.16169938,9.790711
81960165357977,-0.1224501,0.04984542,9.838245
81960185213848,-0.19375858,0.09591225,9.913252
81960205069592,-0.172183,0.09352115,9.891565
81960224925337,-0.15845223,0.09162977,9.898128
81960244781080,-0.08144808,0.09508176,9.812246
81960264643936,-0.0060238033,0.08934287,9.666449
81960284499681,0.042904813,0.11146442,9.636696
81960304355552,-0.06382686,0.116586015,9.681441
81960324211424,-0.19642161,0.091292694,9.788543
81960344067297,-0.22202441,0.046885815,9.977217
81960363924015,-0.17362145,0.104979195,9.957121
81960383779887,-0.16336304,0.14989816,9.923935
81960403635888,-0.16682395,0.08815667,9.799709
81960423491759,-0.06473769,0.004307831,9.658112
81960443338732,-0.028107269,0.07706254,9.63796
81960463194349,-0.05838327,0.20442806,9.681214
81960483050092,-0.19842882,0.16949359,9.870085
81960502905836,-0.23085429,0.06562546,9.960383
81960522761581,-0.20732996,0.0697837,9.943531
81960542617324,-0.21147826,0.172349,9.880515
81960562460365,-0.19140202,0.11505359,9.737008
81960582315854,-0.061425827,0.012965641,9.720599
81960602171341,-0.027690742,0.10564314,9.705874
81960622026701,-0.13882942,0.15880977,9.664793
81960641882190,-0.15563689,0.11361825,9.777097
81960661724700,-0.19195174,0.020716202,9.9216795
81960681579932,-0.1589774,0.11857601,9.907049
81960701435165,-0.1569988,0.14340788,9.883852
81960721290396,-0.16746655,0.087129466,9.790304
81960741142135,-0.12852572,0.044422954,9.814798
81960760997368,-0.034696627,0.09769253,9.718385
81960780852599,-0.06258516,0.07091295,9.675551
81960800708757,-0.108455524,0.03855276,9.780985
81960820563990,-0.11905931,0.0035662882,9.90292
81960840419221,-0.14141418,0.07879073,9.926766
81960860265621,-0.21209632,0.11456256,9.8895035
81960880120598,-0.18284652,0.0038517476,9.772244
81960899975573,-0.114628375,-0.034603957,9.741853
81960919830549,0.0018619122,0.081926145,9.683022
81960939685526,-0.052691802,0.10343477,9.684744
81960959548838,-0.09020515,0.05793728,9.731455
81960979403942,-0.1865774,-0.005997436,9.890607
81960999258919,-0.19230978,0.06970818,9.981873
81961019114022,-0.21535827,0.07454871,9.897033
81961038969126,-0.15387784,0.072228946,9.851827
81961058824231,-0.09515815,0.06163944,9.7098055
81961078676524,-0.07248442,0.11482267,9.690261
81961098531500,-0.061340168,0.17682226,9.714491
81961118386605,-0.13207245,0.073462576,9.786991
81961138241580,-0.21485466,0.041529067,9.839422
81961158096186,-0.19268249,0.03228709,9.903347
81961177951163,-0.17931257,0.09996414,9.898348
81961197806010,-0.16900907,0.122486606,9.864955
81961217660986,-0.09579467,0.12273234,9.755591
81961237515963,-0.013102865,0.032802194,9.650564
81961257376311,-0.04673153,0.13187596,9.69833
81961277231287,-0.16726425,0.18558322,9.830033
81961297086392,-0.20871286,0.10842075,9.885508
81961316941495,-0.15807836,0.033323757,9.860659
81961336796471,-0.20675193,0.10779812,9.963647
81961356651576,-0.1844042,0.16098051,9.815506
81961376499938,-0.14083096,0.07357808,9.638263
81961396354786,-0.06203412,0.106190115,9.626593
81961416209763,-0.13633004,0.114005685,9.718452
81961436064610,-0.21619193,0.17384186,9.886037
81961455933393,-0.21278773,0.1156596,9.924164
81961475788498,-0.18713816,0.026336983,9.8677225
81961495643473,-0.10751315,0.093753844,9.849332
81961515498577,-0.111656524,0.15150945,9.81183
81961535353682,-0.07845347,0.1343385,9.645355
81961555209838,-0.031890318,0.14323108,9.646012
81961575064942,-0.08246051,0.12229599,9.75747
81961594920175,-0.2362384,0.11012779,9.855097
81961614775278,-0.2334258,0.08473395,9.922664
81961634630382,-0.18407382,0.076084636,9.889117
81961654485487,-0.1814479,0.084403306,9.7655525
81961674350641,-0.10779403,0.11755325,9.722407
81961694205873,-0.074284814,0.12258861,9.669162
81961714061234,-0.11902646,0.11036835,9.62559
81961733916465,-0.16996992,0.07211583,9.786522
81961753782589,-0.17526181,0.028371336,9.847233
81961773638206,-0.17791012,0.12705837,9.985522
81961793493821,-0.18914287,0.17599037,9.977293
81961813349437,-0.17087393,0.0832492,9.8173275
81961833205054,-0.11317948,0.0974976,9.717271
81961853070799,-0.090889804,0.11756394,9.669271
81961872926671,-0.10373254,0.10852194,9.726739
81961892782672,-0.09585522,0.15537198,9.804293
81961912638671,-0.17959483,0.109762035,9.83897
81961932494543,-0.21345194,0.067589395,9.743956
81961952350544,-0.16066515,0.05136797,9.843898
81961972211328,-0.12201322,0.09446594,9.989508
81961992067456,-0.14698769,0.1016509,9.891637
81962011923585,-0.10442535,0.07878824,9.712377
81962031779712,-0.01257817,-0.0078017856,9.712313
81962051636760,-0.054784287,0.04053251,9.771721
81962071493017,-0.1456275,0.1026247,9.810944
81962091349272,-0.11402406,0.04900075,9.837381
81962111205400,-0.118956536,-0.036116667,9.797873
81962131061657,-0.08875986,0.07510268,9.863488
81962150917912,-0.054240983,0.17592217,9.802514
81962170771515,-0.027646154,0.14324392,9.690222
81962190627772,-0.050182153,0.030685892,9.725321
81962210483899,-0.055656478,0.049842905,9.823672
81962230340155,-0.13623267,0.044911545,9.903755
81962250196412,-0.14987595,0.04464509,9.8414135
81962270050468,-0.13502145,0.009403552,9.830893
81962289906596,-0.12404039,-0.011329706,9.706484
81962309762725,-0.06943536,-0.03095642,9.712834
81962329618852,0.046260647,-0.0017528612,9.710253
81962349478918,0.035694767,-0.005166242,9.734305
81962369335047,-0.07607837,-0.007009007,9.904174
81962389191174,-0.041083366,-0.0046733795,9.856893
81962409047302,-0.04962027,0.025292495,9.919613
81962428903559,-0.034694526,0.07522834,9.892682
81962448759686,-0.10595867,0.036451623,9.806531
81962468606190,-0.08074982,-0.0014727454,9.6539955
81962488462191,0.016212875,-0.08784191,9.6189995
81962508318062,0.017772049,0.032118447,9.703239
81962528174062,-0.11720331,0.12112376,9.862121
81962548029935,-0.1516705,0.11133361,9.916849
81962567885961,-0.11019104,0.03578157,9.793121
81962587741961,-0.07114756,0.055578154,9.881988
81962607598090,-0.082717195,0.10088334,9.788618
81962627454089,-0.10957135,0.18682146,9.590931
81962647304544,-0.107639045,0.14285702,9.637241
81962667160417,-0.10177126,0.08413051,9.658496
81962687016288,-0.1842073,0.15507956,9.59237
81962706872160,-0.12412123,0.24917379,9.67054
81962726728033,-0.10565868,0.1694636,9.792824
81962746583904,-0.1749328,0.11399148,9.724349
81962766434662,-0.1121985,0.16123022,9.65443
81962786290535,-0.10172017,0.10510484,9.53314
81962806146278,-0.14213914,0.112596326,9.602808
81962825994778,-0.21108344,0.07387261,9.681073
81962845850523,-0.07963617,0.084430516,9.706118
81962865698336,-0.15565598,0.14057888,9.771684
81962885553952,-0.24976146,0.10348771,9.832411
81962905409569,-0.12662528,0.02352098,9.771639
81962925265056,0.02888991,0.09085785,9.672713
81962945116070,-0.039050564,0.13683012,9.639801
81962964971431,-0.04951176,0.047755357,9.658152
81962984826790,-0.04825857,-0.017918453,9.678056
81963004682150,-0.08855609,0.04263961,9.731787
81963024537511,-0.13047437,0.03968069,9.714826
81963044392998,-0.08068216,-0.03922005,9.695986
81963064245591,0.060064483,4.82705E-6,9.5728
81963084101080,0.055264667,0.045057684,9.579194
81963103956439,0.007819105,0.04188159,9.661336
81963123811799,-0.035077866,0.0073988764,9.677431
81963143667160,-0.07672188,0.054398645,9.671781
81963163523165,-0.054789763,0.07677746,9.800753
81963183378525,-0.02997817,0.0935759,9.80908
81963203233886,-0.026312515,0.11009381,9.637588
81963223089117,0.010184611,0.08622,9.525338
81963242938400,0.04138266,0.056025967,9.563637
81963262793505,-0.028634364,-0.0020312157,9.605855
81963282648736,-0.0038199537,0.026449254,9.713331
81963302503968,0.065628916,0.14627591,9.7188635
81963322359201,0.01719145,0.11568845,9.629351
81963342214432,0.009127126,0.07853304,9.556092
81963362072253,-0.029491797,0.09580773,9.548698
81963381927614,0.05674544,0.16239387,9.672189
81963401782845,0.22562958,0.33430398,9.730754
81963421638077,0.14216343,0.30512384,9.703871
81963441493310,0.0012308297,0.13919659,9.708444
81963461351875,0.031477425,0.27847448,9.654336
81963481207235,0.038019344,0.3924474,9.681336
81963501062468,0.034985866,0.472852,9.744126
81963520917827,0.010420479,0.51610625,9.7046175
81963540773059,-0.07640785,0.32706445,9.593502
81963560628420,-0.09099653,0.10824315,9.506311
81963580481365,0.08851826,0.20190606,9.648954
81963600336597,0.12229977,0.41948736,9.661806
81963620191830,-0.07847686,0.38817602,9.552511
81963640047061,-0.13427168,0.4414613,9.684565
81963659906063,-0.4195869,0.37472877,9.548239
81963679761296,-0.6898695,0.21299684,9.19857
81963699616527,-0.46352276,-0.09189775,9.569985
81963719471887,-0.107918635,-0.14748634,9.888869
81963739327120,-0.28081107,-0.15951277,9.884301
81963759191447,-0.5386604,-0.052438978,9.922757
81963779046807,-0.51169306,0.24133159,9.7871475
81963798902296,-0.3404409,0.33398342,9.737155
81963818757655,-0.01338781,0.34501216,9.66232
81963838613143,0.41672668,0.5695472,9.532972
81963858468504,0.59105194,0.8602694,9.484268
81963878329775,0.18358564,1.0674219,9.411161
81963898185391,-0.56259745,0.7998158,9.457888
81963918041008,-1.0388625,0.530423,9.568144
81963937896623,-1.119843,0.5393797,9.562405
81963957764239,-0.7390037,0.86721784,9.354176
81963977620112,-0.49525383,1.2837757,9.316715
81963997476111,-0.508511,1.4754702,9.416851
81964017331983,-0.5349731,1.1928437,9.681802
81964037187856,-0.27759516,0.82677585,9.919366
81964057043655,0.119152606,0.82013685,9.6716385
81964076899528,0.09834909,0.9489713,9.433663
81964096755529,-0.4946363,1.0530689,9.72008
81964116611399,-1.0388589,0.99077535,9.878218
81964136467399,-0.82004714,0.7491436,9.52649
81964156323272,-0.42272088,0.7973637,9.476777
81964176180111,-0.23444936,0.85039276,9.591912
81964196035983,-0.18100916,0.7817398,9.627556
81964215891984,-0.112672076,0.615289,10.16306
81964235747983,-0.018787581,0.83667207,10.757139
81964255612766,-0.53765213,-0.23838983,11.031176
81964275468895,-0.71356106,-0.15943468,11.305251
81964295325152,-1.380407,-0.16044614,12.279508
81964315181281,-1.2502593,0.48638523,12.653295
81964335037538,-0.96544313,0.7498695,12.341574
81964354893667,-0.7250014,1.5046743,11.65695
81964374745700,-0.0195288,2.4778163,10.648927
81964394601829,0.04896719,1.1910671,9.354814
81964414457958,-0.78783005,0.035805073,9.97158
81964434314087,-3.3028564,-1.509061,12.557496
81964454170216,-5.2744346,-1.7957411,11.857149
81964474016263,-6.2986407,-0.9673195,9.814552
81964493872264,-5.623441,0.9780767,9.24501
81964513728137,-2.648372,-0.54679334,11.491837
81964533584138,-0.5104575,-2.9300115,14.149053
81964553440011,2.9100647,-0.42431763,13.852763
81964573290208,4.147803,3.2109296,12.353503
81964593146081,1.6243126,1.4733444,10.097402
81964613001954,-0.47804067,-1.8847436,7.9078417
81964632857827,-2.574353,-3.1512208,7.129792
81964652713700,-3.3681414,-1.3842461,7.5084867
81964672559467,-3.9537709,-0.8211043,6.660975
81964692415084,-2.1396194,-0.4624562,5.929213
81964712270701,0.46251813,0.5026363,5.8352723
81964732126423,1.8338665,-1.184254,4.3550663
81964751982040,2.9521325,-0.43352997,3.3643796
81964771834022,3.6673172,1.3301185,4.309655
81964791689638,2.7531073,1.5486435,4.6253147
81964811545254,1.0640213,1.8087105,5.6689334
81964831400870,-0.16095628,2.4906883,8.032302
81964851257756,-1.8046925,3.1410265,13.015298
81964871108781,-3.1900043,-2.8041823,18.228405
81964890964269,-1.8317717,-4.3602157,18.318684
81964910819629,0.26313367,0.013009803,10.955439
81964930675117,2.768262,2.7648602,8.743113
81964950530477,3.828072,-1.2914623,10.552181
81964970387239,3.956209,-8.489582,16.518225
81964990242727,-5.779254,-2.7261367,18.55313
81965010098087,-4.9360266,-9.574864,4.9039335
81965029953447,-5.3445683,-7.803317,2.7653108
81965049808935,-6.053495,-5.670438,4.866782
81965069659033,-5.0040917,-6.736186,8.6310425
81965089514393,-2.285121,-6.464317,11.477246
81965109369625,1.8393333,2.8322823,14.278907
81965129224985,0.9791141,3.0127254,11.23968
81965149080217,-0.67151016,-2.7496016,6.648497
81965168928538,-0.17712228,0.38800862,6.8368793
81965188783515,-0.369535,2.4184625,8.871886
81965208638620,-1.823741,0.72695196,8.47349
81965228493721,-1.6682607,-0.98156154,7.94172
81965248348697,-1.120651,-0.7858637,8.83176
81965268209433,-1.0106117,-0.5028843,9.12013
81965288064537,-2.2033484,-1.8065788,8.750123
81965307919642,-2.599654,-1.1607026,9.974761
81965327774747,-2.3685532,-2.6873395,10.305321
81965347629852,-3.0591338,-2.8746889,10.36485
81965367489321,-3.9651935,-1.6551743,11.515165
81965387344554,-3.4687202,-1.1054227,12.305674
81965407199787,-3.3612566,-1.2572365,11.294528
81965427055020,-3.7067313,-1.1892718,10.420715
81965446910253,-3.5776472,-2.3937244,10.313422
81965466771286,-1.4921443,-3.6879056,12.682587
81965486626519,-1.4702003,-2.3410556,14.121386
81965506481880,-4.124309,-3.5272515,11.396762
81965526337241,-7.935321,-7.649222,10.086389
81965546192474,-9.169208,-8.060171,10.265641
81965566048713,-6.7316666,-5.218259,12.053771
81965585904074,-5.741997,0.42981565,13.7058115
81965605759435,-6.3332443,2.2015364,12.669354
81965625614924,-6.0266714,-2.028308,9.654445
81965645470285,-4.6273837,-3.7422686,9.261513
81965665332592,-4.948412,-7.2100167,5.9923353
81965685188081,-4.2745,-9.999326,2.7417753
81965705043570,-1.0183657,-8.104808,3.7330818
81965724899059,1.2632488,-4.967051,6.3569655
81965744754676,2.421746,-1.6804557,7.693646
81965764618531,4.2427983,-0.48115528,8.233079
81965784474275,-4.2260914,3.7962577,7.549591
81965804330019,-2.2362812,2.4709663,7.0789275
81965824185635,-0.9234061,1.2024727,7.46602
81965844041379,0.25287086,0.7024725,7.8363795
81965863905419,0.69026357,-0.9229139,9.584206
81965883761419,0.78233725,-1.9522756,12.871075
81965903617419,2.4806395,-3.546183,15.119757
81965923473419,7.556297,-6.6934605,13.832109
81965943329419,6.0770135,2.410193,9.352617
81965963182909,4.825302,11.263195,8.916985
81965983038909,0.086082906,9.638971,9.981419
81966002894781,-2.338274,3.180063,9.367774
81966022750781,-1.6060725,-4.3434186,9.406248
81966042606781,-1.7999994,-0.883036,9.051517
81966062459892,-3.362867,9.771315,9.562781
81966082315764,-0.4324982,6.8667927,10.085398
81966102171764,2.1859481,0.77540404,11.143074
81966122027636,3.334912,2.563206,10.645275
81966141883636,3.9105814,2.3247538,8.915426
81966161739509,3.100947,0.9575055,7.2559576
81966181588446,2.339296,1.1637489,7.346851
81966201444191,1.4807997,1.2594932,8.524633
81966221300060,0.08509199,0.019618144,9.190259
81966241155804,-1.0265342,-0.015206207,9.365617
81966261011548,-0.83576924,0.09572453,9.583378
81966280871435,0.47122556,0.03206953,9.633255
81966300727307,2.2387917,0.2552522,10.185723
81966320583051,2.150934,1.9873929,9.894323
81966340438923,1.715926,3.397811,9.653348
81966360294795,2.5244877,2.496068,10.613357
81966380144742,5.247891,0.05903475,11.388656
81966400000358,6.322274,-0.27366343,11.202705
81966419856102,5.5243506,2.0165348,11.198701
81966439711846,4.4483166,2.8755727,11.238969
81966459567590,3.901559,3.011151,11.060727
81966479410954,3.962781,3.1223676,10.611562
81966499266442,3.0095344,3.4342778,10.520557
81966519121930,1.0065159,2.6065698,11.023095
81966538977418,-1.05338,1.1510401,11.581242
81966558832906,-2.0298467,0.69147485,10.824974
81966578683949,-1.7420573,0.29967242,12.323243
81966598539437,-2.320718,1.3946459,13.051138
81966618394797,-0.47201255,1.0089537,12.86071
81966638250285,0.24180129,0.47977534,11.987698
81966658105645,-0.624745,0.23227939,11.119421
81966677954875,-1.7759013,-0.9968724,10.31362
81966697810107,-0.44549635,-0.19764487,9.568955
81966717665339,-0.7272102,0.6968136,8.341223
81966737520571,-1.0383452,0.021594731,7.6135354
81966757375803,-1.4231511,2.305512,7.0268707
81966777226019,-2.6381795,3.8832407,5.768871
81966797081123,-3.0856607,1.0625656,4.072913
81966816936227,-0.7773601,-1.8670231,4.734958
81966836791331,-0.09601387,-1.7998043,7.2550373
81966856645875,-1.7091494,-1.3187222,9.02669
81966876499187,-2.12375,-0.89947414,7.9239817
81966896354291,-0.8564541,-0.8532189,7.4535227
81966916209267,0.45250583,-1.0738962,8.248389
81966936064243,1.2088902,-1.0333662,9.506369
81966955919347,1.3153498,-0.062855884,10.811124
81966975775280,0.60478204,2.1330662,10.754413
81966995630256,0.5816944,2.6672852,9.900377
81967015485360,1.6141365,0.71171457,9.735305
81967035340336,2.987756,-1.5005018,9.941867
81967055195312,4.5761914,-3.1021497,9.465715
81967075047210,4.8092675,-3.2566912,8.41624
81967094902058,2.9873316,-1.6585181,9.923544
81967114757034,0.1971699,1.5743537,13.003912
81967134612010,-6.5088453,4.763061,12.37731
81967154466858,-8.382793,7.29571,9.86039
81967174321121,-3.5783372,4.3138065,11.7235155
81967194175969,-4.1891794,-0.64844054,14.165219
81967214030817,-1.1774024,-4.937937,12.70251
81967233885665,-0.3942013,-0.641843,9.631923
81967253740513,-3.6762722,3.7630572,9.458222
81967273604101,-2.487654,4.6485796,9.047389
81967293459077,-1.9679604,3.57656,8.950876
81967313314181,-1.9342477,1.6019144,9.455009
81967333169157,2.539478,-2.7400706,9.948205
81967353024133,2.5800605,-2.6257772,9.936838
81967372884477,-1.3135093,1.3605237,8.4819565
81967392739709,0.6275105,0.6375547,8.915275
81967412594813,0.6499329,0.81309515,10.139863
81967432450045,-0.21758686,1.538317,9.512362
81967452305149,-0.07748142,0.40785453,9.986909
81967472165769,-0.4139756,-0.47442952,11.039682
81967492021129,-0.65539885,-0.4479447,10.976913
81967511876489,0.005174922,-0.92122924,10.603512
81967531731721,0.40412208,-0.84809124,10.080894
81967551587081,0.7231982,-0.33946636,9.544719
81967571444525,0.88160723,-0.14987007,9.770062
81967591299885,0.068130665,0.40660465,10.11947
81967611155245,-0.371371,0.3126453,9.974161
81967631010605,0.16738309,-0.4569742,9.668413
81967650865965,-0.11073791,0.042842295,10.06609
81967670722100,-0.06332944,0.4393539,11.020249
81967690577460,0.39980316,0.11642898,10.714921
81967710432820,0.37309298,-0.1198742,9.858278
81967730288180,0.022053815,0.06258054,9.40216
81967750143668,-0.38150665,0.5167328,9.174641
81967769979491,-0.09596448,-0.07942979,9.072767
81967789834595,0.596959,-0.3508415,10.1634
81967809689571,0.62831724,-0.28775352,10.3172455
81967829544547,0.30221036,0.35541844,9.98078
81967849399523,0.41432267,0.5544703,10.230742
81967869264658,0.610408,0.15181367,10.310576
81967889120018,0.25804865,-0.0022468318,9.808508
81967908975250,-0.05763198,-0.051753473,9.549835
81967928830610,0.15129998,-0.18698183,9.728742
81967948685842,0.46196958,-0.3847537,9.967839
81967968554355,0.44407326,-0.11232464,10.128781
81967988409971,0.4377173,0.066032425,10.193191
81968008265587,0.8012114,-0.40023646,10.15049
81968028121075,0.8271205,-0.47908825,10.029275
81968047976691,0.64678997,-0.4361965,9.973042
81968067828558,0.479189,-0.4463434,9.9969
81968087684046,0.4754763,-0.4677446,9.893819
81968107539406,0.67270595,-0.35690534,9.861815
81968127394894,0.65761137,-0.25682595,9.842289
81968147250382,0.38724262,-0.17125578,9.761456
81968167106595,0.18174247,-0.33514225,9.732688
81968186962083,0.22449912,-0.7231253,9.795392
81968206817443,0.26111892,-0.7224861,9.9577055
81968226672931,0.20883672,-0.5052069,10.030261
81968246528419,0.2929083,-0.36586902,9.990565
81968266396585,0.37432984,-0.3656446,9.944687
81968286252329,0.3618253,-0.3863201,9.906083
81968306107945,0.28573528,-0.32903764,9.846717
81968325963689,0.25808418,-0.2621542,9.860091
81968345819433,0.32961577,-0.30471325,9.776269
81968365675718,0.3487257,-0.35996315,9.824238
81968385531462,0.44017443,-0.32677436,9.999039
81968405387206,0.44055316,-0.2733853,10.11437
81968425242950,0.47025257,-0.36555848,10.101635
81968445098694,0.49158862,-0.29404166,9.902091
81968464949677,0.44502681,-0.26561743,9.792008
81968484805293,0.46134675,-0.23563527,9.7913
81968504660909,0.5756398,-0.17531256,9.784882
81968524516525,0.7114416,-0.25953254,9.786106
81968544372141,0.7475215,-0.3740017,9.932705
81968564222838,0.67665875,-0.23417449,10.127764
81968584078455,0.6030117,-0.08362652,10.000823
81968603934070,0.5011527,-0.14458677,9.77227
81968623789558,0.43746525,-0.06163623,9.757443
81968643645174,0.5219079,-0.013816622,9.932888
81968663500369,0.54250956,-0.15717481,9.960827
81968683355985,0.37963,-0.30047104,9.96737
81968703211473,0.3521378,-0.35242498,9.872145
81968723066961,0.4211374,-0.2836138,9.852279
81968742922449,0.39262417,-0.06238721,9.7654
81968762784860,0.36468697,-0.18766284,9.823396
81968782640476,0.44586214,-0.25919023,9.859834
81968802496220,0.47888768,-0.09974193,9.780378
81968822351836,0.43547907,-0.10450953,9.600865
81968842207580,0.35402566,-0.16674507,9.651596
81968862059762,0.38246465,-0.2155723,9.808599
81968881915506,0.45684838,-0.23845322,9.954867
81968901771250,0.52867436,-0.17623906,9.941327
81968921626866,0.4665636,-0.14176473,9.842994
81968941482610,0.45040727,-0.14383683,9.853806
81968961337878,0.4378291,-0.19707048,9.687015
81968981193622,0.41135502,-0.27231476,9.623579
81969001049366,0.3692095,-0.15071444,9.50825
81969020905110,0.37532035,-0.26701477,9.849637
81969040760854,0.49394545,-0.17242512,10.052083
81969060625832,0.52314067,-0.02340201,9.881041
81969080481704,0.5380741,-0.0787578,9.828403
81969100337704,0.45028174,-0.10970272,9.790894
81969120193576,0.30521962,-0.21545726,9.706656
81969140049576,0.400912,-0.3554402,9.712113
81969159903813,0.5171996,-0.08614955,9.622146
81969179759814,0.52553666,-0.11861685,9.673126
81969199615815,0.61373866,-0.12942679,9.961569
81969219471688,0.6120676,-0.09780579,10.063215
81969239327689,0.5603675,0.0131659955,9.797713
81969259184562,0.4984869,-0.019176032,9.752581
81969279040563,0.49601176,-0.20117779,9.758031
81969298896564,0.5018238,-0.23996331,9.731592
81969318752565,0.49926776,-0.22175716,9.706925
81969338608566,0.5302476,-0.14562814,9.641541
81969358446769,0.6097092,-0.041447572,9.741361
81969378302258,0.6166771,-0.0644201,9.904601
81969398157747,0.56241083,-0.0764539,9.886459
81969418013236,0.52558416,-0.016269166,9.793544
81969437868597,0.6516255,-0.14618775,9.756914
81969457724086,0.58184993,-0.095445946,9.744157
81969477574471,0.42413312,-0.14343512,9.79182
81969497429832,0.50076854,-0.14053723,9.749741
81969517285193,0.6067337,-0.06571461,9.760035
81969537140554,0.6693622,-0.05048908,9.795943
81969556995915,0.5420361,-0.15689039,9.8717575
81969576851166,0.48129427,-0.21247333,9.883535
81969596706655,0.55036503,-0.12929286,9.761504
81969616562016,0.6247303,-0.1254006,9.683189
81969636417483,0.5735685,-0.002696956,9.735826
81969656272844,0.50332665,-0.088397294,9.8010845
81969676132465,0.504433,-0.09213843,9.74981
81969695987954,0.5857671,-0.043654926,9.697014
81969715843443,0.6167741,-0.041907903,9.710532
81969735698804,0.597995,-0.09632528,9.883692
81969755554293,0.5978901,-0.1031284,9.908574
81969775411896,0.5329612,-0.03016135,9.706136
81969795267384,0.5298857,-0.07053986,9.723842
81969815122744,0.5404903,-0.05228259,9.849839
81969834978232,0.5435628,-0.18940975,9.899915
81969854833720,0.59262884,-0.10291317,9.803872
81969874698698,0.5497632,0.06605752,9.66427
81969894554442,0.6087831,-0.013205782,9.773088
81969914410186,0.5793047,-0.12029592,9.888664
81969934265802,0.45588902,-0.12152216,9.806804
81969954121546,0.5530153,-0.028463209,9.657579
81969973980836,0.6023053,0.041289233,9.697695
81969993836708,0.6311683,-0.008389587,9.870156
81970013692452,0.521651,-0.011863989,9.865794
81970033548324,0.5292609,-0.048537817,9.795866
81970053404068,0.40223405,0.063571915,9.642033
81970073256307,0.48580492,-0.030702094,9.680641
81970093112051,0.48776025,-0.14640176,9.770523
81970112967795,0.4597154,-0.1859834,9.784816
81970132823539,0.5184429,-0.12231263,9.732338
81970152679283,0.5561132,-0.015107789,9.718632
81970172526304,0.6160091,-0.032352183,9.972796
81970192381920,0.57081014,-0.02943434,9.914026
81970212237409,0.5456752,-0.03645562,9.748142
81970232092898,0.6219109,-0.036684964,9.739921
81970251948384,0.68597734,-0.026129868,9.734999
81970271788986,0.63913596,0.013105651,9.741387
81970291644090,0.6219735,0.07514333,9.719167
81970311499322,0.5937037,0.1406697,9.780675
81970331354554,0.57876956,0.2050573,9.8303175
81970351209786,0.52599686,0.1959526,9.887331
81970371070223,0.42605826,0.148916,9.78329
81970390925584,0.44413322,0.088768855,9.722825
81970410780945,0.4706871,0.0856747,9.724354
81970430636306,0.5036511,0.08142198,9.739766
81970450491667,0.5365672,-0.0135071995,9.801346
81970470345400,0.5299581,0.064737245,9.894384
81970490200633,0.51413023,0.26166427,9.8925085
81970510055994,0.4895509,0.2691437,9.921835
81970529911227,0.46320426,0.19862488,9.869033
81970549766460,0.3419144,0.16230835,9.737319
81970569614237,0.46196142,0.09780566,9.61908
81970589469342,0.48949012,0.09169438,9.552561
81970609324447,0.4132977,0.13373987,9.557782
81970629179552,0.4267548,0.16316862,9.732512
81970649034657,0.52267486,0.13888592,9.927072
81970668893862,0.520593,0.1632336,9.941219
81970688749095,0.46307385,0.22987515,9.930782
81970708604328,0.50078213,0.19729708,9.85901
81970728459561,0.51242346,0.15349944,9.707025
81970748314794,0.47132125,0.11715754,9.593235
81970768177767,0.45302856,0.16440739,9.567613
81970788033110,0.49064684,0.19090432,9.663874
81970807888470,0.6158214,0.23123583,9.87569
81970827743830,0.5957455,0.3788678,9.936284
81970847599190,0.48895493,0.36988044,9.901044
81970867460828,0.46157435,0.26343074,9.836682
81970887316188,0.54061383,0.24811386,9.789655
81970907171676,0.5402162,0.18928926,9.712443
81970927027036,0.56663436,0.106603034,9.630272
81970946882524,0.49275404,0.21602504,9.696744
81970966736910,0.6115086,0.18107045,9.914096
81970986592270,0.6934954,0.25038296,10.041883
81971006447630,0.5669297,0.36954507,9.989058
81971026302990,0.55384386,0.4194242,9.840595
81971046158350,0.5573257,0.3808832,9.7671585
81971066014202,0.512163,0.3269917,9.650227
81971085869562,0.47464827,0.30563596,9.5906315
81971105724922,0.49956986,0.29076442,9.5617
81971125580154,0.6177164,0.27676812,9.700512
81971145435514,0.62051594,0.2627052,9.871443
81971165285041,0.5661,0.21839459,9.93145
81971185140273,0.52652603,0.17588899,9.901724
81971204995377,0.5152203,0.1897765,9.81917
81971224850609,0.43989488,0.2680151,9.655963
81971244705713,0.36431962,0.21846625,9.471782
81971264569039,0.46983796,0.09675301,9.597052
81971284424399,0.6189087,0.08289225,9.806354
81971304279759,0.60722107,0.06701098,9.904886
81971324135119,0.44055486,0.18495342,9.859026
81971343990479,0.35836262,0.19043358,9.879129
81971363846514,0.45929116,0.25682816,9.867415
81971383701874,0.465763,0.16214362,9.747723
81971403557234,0.40907213,0.06577805,9.663856
81971423412594,0.41570067,0.026460862,9.723074
81971443268082,0.45300877,0.10824403,9.808833
81971463126008,0.523373,0.19406998,9.839987
81971482981496,0.4457064,0.21816228,9.77413
81971502836984,0.3898065,0.14417198,9.818904
81971522692472,0.44196698,0.19640298,9.789477
81971542547960,0.5171789,0.1948551,9.783232
81971562403795,0.40778452,0.14817344,9.696308
81971582259283,0.4246938,0.11445467,9.817617
81971602114899,0.5073732,0.28800884,9.869732
81971621970515,0.46991423,0.38616884,9.854389
81971641826004,0.36774632,0.32415515,9.703793
81971661681621,0.27491015,0.19629556,9.743398
81971681542099,0.43904504,0.1546973,9.809759
81971701397843,0.51446027,0.18883678,9.7827425
81971721253587,0.42215377,0.2059958,9.657889
81971741109203,0.41974646,0.22024903,9.671
81971760964947,0.5601786,0.25143936,9.901342
81971780822607,0.55527514,0.3265316,9.980239
81971800678351,0.428043,0.3173314,9.84604
81971820534095,0.40996915,0.33599043,9.77675
81971840389839,0.48618713,0.38104168,9.791312
81971860245711,0.4642337,0.40342778,9.743641
81971880097103,0.36962128,0.3414627,9.614417
81971899952591,0.4086672,0.2969791,9.610316
81971919808207,0.504829,0.28299695,9.763709
81971939663823,0.5881997,0.254146,9.993684
81971959519311,0.50888896,0.26953933,10.01847
81971979381955,0.2440166,0.19628116,9.864564
81971999237700,0.27585042,0.09737963,9.658898
81972019093443,0.372237,0.08612072,9.637247
81972038949187,0.4746694,0.119601645,9.648196
81972058804932,0.3973277,0.118717276,9.735935
81972078661565,0.3871353,0.1870888,9.803105
81972098517310,0.34910083,0.31704664,9.845846
81972118373055,0.46427566,0.31595886,10.010968
81972138228925,0.45848224,0.29362333,9.844758
81972158087406,0.38542512,0.2221559,9.768366
81972177943151,0.44364733,0.25035605,9.721715
81972197798894,0.46037963,0.2583116,9.781324
81972217654638,0.53082645,0.15810989,9.757469
81972237510511,0.5294607,0.19825035,9.76569
81972257366254,0.41286802,0.25123337,9.871916
81972277224065,0.42905337,0.28063187,9.892471
81972297079810,0.34601486,0.1742085,9.851657
81972316935683,0.37846592,0.1571742,9.758657
81972336791428,0.3897328,0.21723518,9.743136
81972356647301,0.41626355,0.25228027,9.710633
81972376502642,0.36630887,0.20613252,9.674034
81972396358514,0.32623896,0.12978385,9.720953
81972416214387,0.41623375,0.20023301,9.810722
81972436070258,0.4903588,0.3238069,9.936127
81972455919943,0.4891611,0.31016183,9.959863
81972475775688,0.3694773,0.2942057,9.849577
81972495631431,0.28816742,0.27565184,9.747095
81972515487175,0.40534037,0.2351363,9.6601305
81972535343048,0.60219073,0.20943566,9.632365
81972555198791,0.68144023,0.24155395,9.78581
81972575049628,0.50792074,0.2840149,9.805579
81972594905245,0.3732621,0.2550056,9.903486
81972614760988,0.43495947,0.3249239,9.971097
81972634616604,0.45008633,0.42697927,9.921202
81972654472349,0.39821625,0.29697648,9.756022
81972674322484,0.41223225,0.21387221,9.620641
81972694178100,0.4145156,0.20664538,9.500091
81972714033717,0.41239375,0.14328012,9.60216
81972733889204,0.45132223,0.11965861,9.819135
81972753745838,0.46388572,0.24364263,9.983676
81972773601455,0.4388368,0.27770597,9.94459
81972793456942,0.39220127,0.2500858,9.833003
81972813312559,0.3317401,0.22363605,9.793959
81972833168048,0.36057553,0.19824389,9.685556
81972853024576,0.45058545,0.10861872,9.643504
81972872874663,0.53333557,0.034622673,9.595157
81972892730024,0.45196104,0.045182474,9.722973
81972912585511,0.41684166,0.14326127,10.014135
81972932440999,0.49370316,0.26059198,10.065289
81972952296488,0.52074623,0.2998527,9.901342
81972972147757,0.465358,0.3206553,9.763341
81972992003117,0.4281338,0.1922528,9.756702
81973011858478,0.41130206,0.0692523,9.681495
81973031713837,0.5016173,0.06593661,9.716746
81973051569197,0.5575668,0.15458104,9.693235
81973071424558,0.56167644,0.21819085,9.851337
81973091279356,0.42140207,0.24587323,9.843624
81973111134588,0.39048,0.27945024,9.724959
81973130989949,0.5416259,0.23463176,9.794709
81973150845308,0.6272846,0.1899307,9.848791
81973170690599,0.5295088,0.14675316,9.859456
81973190545576,0.4903839,0.18887372,9.657694
81973210400679,0.45974573,0.25209096,9.698684
81973230255655,0.47604704,0.23229727,9.800835
81973250110760,0.55672145,0.148253,9.816717
81973269967240,0.5043875,0.1995615,9.796226
81973289822216,0.54303896,0.3211411,9.838504
81973309677321,0.5016658,0.2925139,9.768977
81973329532424,0.43781564,0.15636128,9.68697
81973349387400,0.4965731,0.16693726,9.671919
