UPTIMENANO,Ax,Ay,Az
69184834518063,0.38090733,-0.75903976,8.9879675
69184854374320,0.24060066,-0.6906487,9.095547
69184874230575,0.25995475,-0.033046182,10.289002
69184894086831,0.48878157,0.20959039,11.335601
69184913943088,0.81576204,0.41740474,11.588613
69184933796552,0.3882442,0.003212558,10.394662
69184953652680,-0.5378431,-0.19370303,9.102168
69184973508809,-0.30409962,-0.7762007,8.563937
69184993364936,0.2532825,-0.44800565,9.3349285
69185013219047,0.2502998,0.031476714,9.701067
69185033075176,-0.42875835,1.0114028,10.649377
69185052931303,-0.29155868,0.7432133,10.507952
69185072787431,-0.23554982,-0.14896053,9.198516
69185092643432,-0.60344017,-0.15174255,8.711473
69185112499559,0.15821747,-0.45468447,9.161126
69185132349427,0.68742,-1.5324392,9.250046
69185152205428,-0.008336271,-0.31316355,9.318655
69185172061427,0.24671417,-0.09392996,9.924916
69185191917427,1.0005594,0.021221492,10.559308
69185211773428,0.090238914,1.1962299,11.538772
69185231627123,-0.83457613,0.966795,10.38009
69185251482995,-0.2767405,-0.30888027,8.79871
69185271338996,-0.16277133,-0.3254297,8.980381
69185291194867,-0.30064633,0.32152817,9.82033
69185311051678,-0.25215754,-0.03852531,10.075977
69185330907679,0.42702022,-0.6819884,9.72828
69185350763678,0.12969579,0.12591626,9.964008
69185370619550,-0.22960466,0.3091109,10.291954
69185390475551,0.3123985,-0.31230944,9.965897
69185410331550,1.0696858,-0.68139756,10.175212
69185430183704,1.1543007,-0.34608623,10.5446615
69185450039449,0.2680545,-0.11524539,10.162549
69185469895320,-0.2417088,-0.08613757,9.873374
69185489751064,0.25351432,-0.14100718,9.95072
69185509606937,-0.059313685,-0.15992951,9.918318
69185529471213,0.06867184,-0.48129058,9.523165
69185549327213,0.8698652,-0.83502996,9.884102
69185569183214,0.2560221,0.23474874,10.557998
69185589039213,-0.5196482,0.07608959,9.332593
69185608895213,-0.8138728,-0.2861667,8.802154
69185628751214,-1.4511527,0.0620028,9.113961
69185648609243,-0.04505871,0.3655285,9.522262
69185668465371,1.8481324,0.17667036,10.636845
69185688321372,2.1099582,0.07579226,10.794495
69185708177499,1.8511075,0.550283,11.451566
69185728036144,1.4116876,1.3517448,11.942413
69185747892273,0.31054232,2.4222488,11.540111
69185767748400,0.20570089,1.3718144,10.201097
69185787604528,0.3935632,2.1710443,9.668811
69185807460657,-0.11406544,2.7453535,10.004574
69185827306178,-0.023411298,1.5988184,8.831237
69185847162178,0.054177586,0.6408265,7.273347
69185867018051,-1.5071554,-0.35196814,4.9694996
69185886873922,-1.4832562,0.8767931,4.269253
69185906729922,0.2732628,2.654561,6.445467
69185926585795,0.6759606,2.5991287,5.9372067
69185946439484,1.1737605,0.022652758,5.6208196
69185966295228,-1.3010037,-3.888059,10.955721
69185986151101,-2.1841311,-5.070113,16.882065
69186006006972,-1.971509,0.16498993,10.174325
69186025867836,1.7786925,3.4928768,8.320459
69186045723709,4.871977,4.2087746,11.279347
69186065579580,3.7384255,0.9291653,12.2416315
69186085435452,3.048927,-1.7052991,12.491741
69186105291325,2.0754592,-2.174961,11.368363
69186125147324,1.8183131,-1.1211326,11.182221
69186145000731,1.935179,-0.70028335,12.0972805
69186164856476,1.1418867,-2.0946865,12.459163
69186184712347,0.25249073,-1.3388584,9.579214
69186204568219,-0.18864998,-2.376561,5.026763
69186224424092,1.8766578,-0.9076416,4.812696
69186244289295,5.5453534,4.7500772,6.805143
69186264145423,6.6044407,6.94149,8.572325
69186284001424,4.9067388,0.7864911,6.8491645
69186303857551,1.8590678,-3.730087,4.9464583
69186323715068,3.7657757,-3.7918189,4.062802
69186343571197,-7.299047,-14.55137,11.011029
69186363427324,-18.98203,-10.868755,18.3006
69186383283452,4.32048,-4.4588547,10.488219
69186403139581,1.259891,-0.034967348,11.288861
69186422995580,-0.9148903,-0.8223938,11.874964
69186442853049,4.5781965,-1.2160424,11.701818
69186462709178,5.884979,-0.28496262,9.09703
69186482565305,6.4253674,2.1127205,4.552567
69186502421561,5.326423,2.5684385,2.2085173
69186522277690,-7.264429,-3.0917397,10.427432
69186542137517,-12.714449,-2.484044,17.823889
69186561993773,-3.8555655,0.9561703,14.746249
69186581850029,1.3102489,-0.19209231,12.343138
69186601706285,-0.92268556,-1.8443873,10.020643
69186621562541,-2.9719183,0.7695272,6.880958
69186641409141,12.141117,-6.29938,9.004628
69186661265141,1.7480099,-3.385114,11.501184
69186681121141,-5.5264893,-0.21140042,13.247443
69186700977141,0.87203515,-3.2599502,10.428075
69186720833141,2.9765913,1.5459832,8.71214
69186740689269,3.776055,6.8308215,7.543601
69186760547396,0.7652707,5.150619,6.7664857
69186780403396,0.1612177,3.1495519,4.408069
69186800259396,3.7612739,2.9933732,2.2627509
69186820115396,2.054031,3.8269231,4.3260064
69186839971396,-0.7264421,3.0860813,3.4672928
69186859784559,0.3195281,-0.2565985,4.199631
69186879639791,-1.5993916,0.32809937,8.033764
69186899495023,0.5915655,1.6515464,6.3403463
69186919350127,1.860485,3.216607,5.3364053
69186939205359,-0.6360465,5.7620378,9.151306
69186959059536,3.606789,2.4236898,8.250197
69186978914640,6.5164385,-2.234674,10.094999
69186998769744,3.9832635,-2.0924666,13.525708
69187018624848,1.6083112,-3.441113,14.320924
69187038479952,-4.7011805,-4.717936,18.289934
69187058345490,-2.6222637,-2.253173,13.339027
69187078200722,5.164536,-0.67187655,6.7227635
69187098055954,5.7131615,0.8887009,10.067198
69187117911186,4.010897,-0.3496353,9.156518
69187137766418,7.223983,-2.0661294,7.6642327
69187157632174,5.9355173,-0.5684744,9.418381
69187177487662,4.8070498,-0.8381395,10.496162
69187197343022,2.2150826,-1.8567396,11.472405
69187217198510,-1.1559368,-1.7139745,13.737861
69187237053998,0.02965066,-0.42754936,16.313896
69187256914673,-1.0424045,-1.8725032,16.763151
69187276770289,-7.472203,-3.0047598,14.961962
69187296625777,-10.2187195,-1.9020287,13.853112
69187316481265,-7.1384735,1.9046293,14.041216
69187336336881,-2.8623056,0.15702479,12.01218
69187356203132,-4.760505,-2.1095648,9.238256
69187376058876,-5.824049,-0.5291268,9.688552
69187395914620,-3.3761494,0.06699603,11.333592
69187415770364,-3.2220528,-2.675206,11.5634
69187435626108,-2.6734343,-4.1358757,6.8235836
69187455479694,-1.4377407,-3.7510896,6.9771476
69187475335310,-1.2207915,-5.247465,6.101846
69187495190926,0.12782243,-5.0747337,7.2797003
69187515046542,-0.08792807,-1.4307355,4.6280384
69187534902158,-0.5498126,1.7579819,6.2386284
69187554765611,1.1075076,1.5506374,6.138099
69187574621355,2.8362408,0.6906553,6.1738358
69187594477099,6.128125,-2.7064993,8.030994
69187614332971,5.527798,-2.2550123,11.348758
69187634188715,0.5854222,0.63178194,13.318684
69187654048173,1.0987829,4.493481,15.526843
69187673904045,0.4974278,4.9004707,19.275503
69187693760045,-0.08798266,4.2288194,17.154139
69187713615917,-0.6201501,2.6959448,12.281976
69187733471789,2.9033396,2.5849218,8.674423
69187753328991,0.3780751,5.641435,6.4449487
69187773184863,-0.48407972,1.7433988,6.915291
69187793040735,2.3411586,-9.279183,5.367005
69187812896607,0.77998996,-2.9391243,2.9276934
69187832752607,-2.7338865,2.0334594,6.898535
69187852614634,1.3338674,0.5425353,6.5444016
69187872470762,2.3759513,-3.9912066,5.3977103
69187892326890,-1.2284257,-0.47532326,4.798649
69187912183018,0.16298807,2.157511,5.215622
69187932039146,1.8388808,2.3170474,5.2173233
69187951892196,1.5360585,1.9085171,3.9521666
69187971748324,1.4266369,1.0732882,2.6072652
69187991604452,1.2888982,-0.19471487,4.9906197
69188011460580,7.132289,-9.618045,40.394527
69188031316708,-3.0713286,7.883612,34.391018
69188051183071,-18.30726,18.28849,18.448877
69188071039455,0.7959235,0.40422285,7.9741344
69188090895839,6.5871754,-5.8409243,6.6844683
69188110752223,1.8086936,-1.5455354,5.559168
69188130608607,-0.6748734,1.6639785,8.941044
69188150469201,-0.28487045,4.606465,11.460327
69188170325841,0.6954193,2.1328418,9.540847
69188190182481,0.9628616,0.5279393,9.386649
69188210039121,0.23927322,0.66375655,10.747434
69188229895761,-0.1480825,-0.833055,10.586713
69188249753389,0.089540906,-2.228322,9.90098
69188269610029,0.16712114,-2.526441,9.782379
69188289466669,0.2019785,-1.9560525,9.816415
69188309323181,0.9445956,-0.78278846,10.444832
69188329179821,1.5602539,0.45506194,10.729164
69188349044268,1.2781764,0.4350522,10.384589
69188368901292,0.52990437,0.2761222,10.6576605
69188388758188,0.088502355,0.31753263,10.367311
69188408615084,0.123093955,0.15727462,10.542022
69188428471980,-0.087373324,-0.13811955,10.66355
69188448307872,-1.3692045,-0.72828054,10.434175
69188468164128,-1.3532643,-0.7638522,10.335798
69188488020256,0.04748365,-0.3707014,10.317592
69188507876512,0.9739113,-0.18268876,10.338877
69188527732640,1.0622878,-0.3246312,10.31301
69188547594985,0.9523299,-0.46531785,10.360605
69188567451113,0.6969841,-0.47511876,10.354961
69188587307369,0.2892319,-0.5664479,10.2647295
69188607163625,-0.109371565,-0.533357,10.280338
69188627019881,-0.051685095,-0.3340843,10.358028
69188646884341,0.38156253,-0.18181103,10.357948
69188666740725,0.6039334,-0.059588045,10.367845
69188686597109,0.5097599,-0.20748445,10.420671
69188706453365,0.26920843,-0.53725296,10.427716
69188726309749,0.0728123,-0.63765657,10.355416
69188746165255,0.030872036,-0.58331513,10.280885
69188766021639,0.19817707,-0.3968154,10.292279
69188785878023,0.41119203,-0.262676,10.336721
69188805734407,0.38498065,-0.3158321,10.399758
69188825590791,0.14507213,-0.35099196,10.411954
69188845448941,0.11494908,-0.34785926,10.331077
69188865305453,0.19027866,-0.24761651,10.322491
69188885161837,0.20412083,-0.21553452,10.316938
69188905018349,0.21044907,-0.29267296,10.383612
69188924874733,0.1997647,-0.38877803,10.391213
69188944733896,0.19692162,-0.42956108,10.359331
69188964590408,0.17475118,-0.45936954,10.331892
69188984447048,0.13977544,-0.5175766,10.355084
69189004303560,0.15307045,-0.54383296,10.399413
69189024160072,0.22756462,-0.49342892,10.417279
69189044010007,0.25703436,-0.43580076,10.417949
69189063866391,0.12170582,-0.41480568,10.381292
69189083722903,-0.020598173,-0.39147997,10.356424
69189103579287,0.0629488,-0.39046657,10.329102
69189123435671,0.3086452,-0.37916434,10.304197
69189143290671,0.44028428,-0.415005,10.322876
69189163147183,0.2885639,-0.509541,10.341777
69189183003567,0.21395533,-0.5438756,10.371046
69189202860079,0.2586374,-0.45677227,10.407075
69189222716463,0.20506732,-0.35702458,10.407754
69189242570695,0.16151293,-0.30875334,10.394032
69189262427079,0.2470632,-0.34699684,10.382047
69189282283463,0.34485057,-0.33327082,10.364383
69189302139847,0.34199604,-0.29647288,10.358239
69189321996231,0.26683256,-0.35383776,10.333586
69189341844264,0.21724284,-0.38639256,10.403476
69189361700521,0.25259048,-0.33533713,10.261022
69189381556778,0.29100648,-0.38666353,10.22514
69189401413035,0.26637554,-0.34478134,10.423412
69189421269164,0.12994269,-0.29789692,10.361988
69189441122067,0.1340051,-0.3196148,10.374864
69189460978196,0.153447,-0.36272025,10.366856
69189480834446,0.21028599,-0.3988765,10.377586
69189500690574,0.16154799,-0.4272601,10.384721
69189520546702,0.16204248,-0.40960622,10.381022
69189540404476,0.20771122,-0.36892292,10.398714
69189560260476,0.1714581,-0.34239003,10.378366
69189580116604,0.13435437,-0.35464668,10.384233
69189599972604,0.12614594,-0.34074125,10.362105
69189619828732,0.18152702,-0.32411224,10.34541
69189639678600,0.2316096,-0.34692824,10.346262
69189659534472,0.23274833,-0.37179485,10.330823
69189679390472,0.22458845,-0.3981314,10.335122
69189699246472,0.20031154,-0.3988136,10.326358
69189719102344,0.24281085,-0.35407236,10.308557
69189738959014,0.24976583,-0.34343633,10.320665
69189758814886,0.2639904,-0.3641968,10.335327
69189778670758,0.24802844,-0.39434242,10.390357
69189798526630,0.2418319,-0.38164428,10.427066
69189818382630,0.20806722,-0.28845164,10.362641
69189838239969,0.19274019,-0.16517074,10.342649
69189858095970,0.16708083,-0.12738578,10.401672
69189877951841,0.1774899,-0.14662953,10.404475
69189897807842,0.16918801,-0.17318775,10.342993
69189917663715,0.22210772,-0.18122244,10.327935
69189937521822,0.26619598,-0.17248738,10.331178
69189957377695,0.253625,-0.20930195,10.245686
69189977233692,0.21438627,-0.23620969,10.216612
69189997089692,0.20423464,-0.3090087,10.223946
69190016945692,0.2805214,-0.3973233,10.238364
69190036801564,0.31761828,-0.40766934,10.220501
69190056663816,0.28624457,-0.3391756,10.178241
69190076519945,0.23518814,-0.29262128,10.200155
69190096375946,0.2432099,-0.26748165,10.204701
69190116231947,0.2510551,-0.28225043,10.184204
69190136088076,0.32473615,-0.2919524,10.126765
69190155941867,0.43133736,-0.2940045,10.120352
69190175797996,0.44808713,-0.28184867,10.156063
69190195653997,0.39128724,-0.30143327,10.162707
69190215510126,0.3344079,-0.297577,10.147114
69190235366255,0.37954572,-0.24797353,10.12753
69190255225526,0.43179005,-0.2225575,10.13453
69190275081783,0.34317157,-0.29376182,10.154716
69190294937912,0.30141342,-0.30808148,10.093081
69190314794041,0.31926078,-0.26951396,10.031265
69190334650170,0.3422227,-0.23518711,10.034349
69190354501231,0.35053235,-0.22665219,10.035578
69190374357360,0.42458132,-0.19578527,9.973957
69190394213361,0.3742089,-0.24784903,10.022694
69190414069362,0.28972065,-0.2815184,10.010978
69190433925491,0.29252633,-0.24821575,10.017441
69190453781490,0.3236437,-0.184768,9.996509
69190473637619,0.31165454,-0.20481458,9.983416
69190493493620,0.3135046,-0.21134248,10.0162525
69190513349749,0.35983983,-0.18333577,9.975188
69190533205858,0.30651832,-0.19372025,9.908089
69190553064777,0.2439375,-0.20558858,9.918162
69190572921034,0.26017907,-0.2340185,9.918942
69190592777163,0.2946572,-0.28263256,9.922112
69190612633292,0.28353354,-0.28941518,9.906516
69190632489549,0.25245196,-0.23107347,9.863593
69190652342208,0.2526912,-0.20496327,9.854274
69190672198337,0.2490654,-0.2249644,9.825838
69190692054466,0.24996443,-0.26002446,9.794105
69190711910467,0.26613855,-0.26089606,9.778535
69190731766596,0.30508628,-0.22733948,9.793537
69190751623467,0.30845323,-0.2372475,9.832958
69190771479596,0.2866427,-0.28789932,9.83082
69190791335725,0.3037006,-0.34710783,9.795856
69190811191726,0.30712152,-0.33960006,9.792357
69190831047855,0.33137527,-0.27503505,9.802149
69190850898296,0.27164224,-0.2554432,9.818578
69190870754297,0.20444688,-0.3236616,9.834381
69190890610298,0.20583662,-0.37839255,9.788785
69190910466299,0.2910558,-0.2904379,9.749336
69190930322300,0.3735354,-0.21352766,9.798292
69190950181509,0.36451384,-0.21856584,9.82457
69190970037510,0.28629178,-0.30148917,9.761953
69190989893383,0.23409954,-0.32045442,9.745639
69191009749362,0.2730323,-0.19957964,9.79236
69191029605363,0.3066474,-0.1778408,9.858283
69191049461290,0.31015223,-0.2751437,9.8017435
69191069317291,0.34737366,-0.30574316,9.744302
69191089173292,0.41971615,-0.21451396,9.738586
69191109029293,0.34043306,-0.17262363,9.751974
69191128885166,0.20869982,-0.21076834,9.81615
69191148739119,0.2356094,-0.25876758,9.873336
69191168595120,0.34743166,-0.24116609,9.784233
69191188451121,0.3329632,-0.20911573,9.674105
69191208307122,0.27309555,-0.14748898,9.5899
69191228162995,0.29004446,-0.13620077,9.608251
69191248014146,0.3063027,-0.20466025,9.693799
69191267870019,0.37144578,-0.20980047,9.732758
69191287725764,0.4083423,-0.15927081,9.73574
69191307581637,0.33622038,-0.16427532,9.78574
69191327437510,0.2600762,-0.19392866,9.853053
69191347290847,0.28072265,-0.20128676,9.8453865
69191367146592,0.33745575,-0.21691075,9.831354
69191387002465,0.35347146,-0.21792525,9.808122
69191406858210,0.36581767,-0.1927257,9.824666
69191426713955,0.32851684,-0.21037021,9.7965145
69191446566538,0.29134387,-0.237836,9.790853
69191466422155,0.3071272,-0.24831139,9.746145
69191486277879,0.3005683,-0.2296631,9.710188
69191506133624,0.3046487,-0.22656885,9.686186
69191525989241,0.29443198,-0.24782617,9.689595
69191545844816,0.2951795,-0.21180567,9.699386
69191565700561,0.2826814,-0.17710225,9.71679
69191585556178,0.29278922,-0.19142695,9.718336
69191605411923,0.30533192,-0.21126552,9.738224
69191625267668,0.3121088,-0.24027228,9.74424
69191645127727,0.31597638,-0.2420706,9.795094
69191664983472,0.3211636,-0.22939079,9.834174
69191684839345,0.2981519,-0.23316786,9.81233
69191704695218,0.22837768,-0.2612246,9.811907
69191724551091,0.28265244,-0.26599297,9.813589
69191744402460,0.3622315,-0.28751495,9.776546
69191764258205,0.31347844,-0.3055143,9.7504015
69191784113950,0.2340532,-0.28241792,9.711914
69191803969695,0.28032362,-0.22679316,9.6724615
69191823825312,0.30098152,-0.2070676,9.675649
69191843685775,0.32153043,-0.22292398,9.68379
69191863541520,0.36384287,-0.21010126,9.718926
69191883397393,0.31195307,-0.24311069,9.7412195
69191903253138,0.21239114,-0.2453056,9.752211
69191923109011,0.18753965,-0.25736302,9.728745
69191942961410,0.27364737,-0.24461065,9.718022
69191962817132,0.3157982,-0.23950003,9.741464
69191982672749,0.3091809,-0.2523286,9.778309
69192002528494,0.30732295,-0.24075517,9.78076
69192022384239,0.2627628,-0.21082982,9.825677
69192042243294,0.26369682,-0.26155484,9.82017
69192062099039,0.26520747,-0.2778496,9.806983
69192081954784,0.27343586,-0.2688818,9.80598
69192101810529,0.3215591,-0.22212431,9.766763
69192121666274,0.33827826,-0.2057441,9.7301655
69192141522147,0.3086363,-0.21927017,9.743485
69192161381720,0.31601405,-0.25952733,9.6957655
69192181237465,0.34325993,-0.2040884,9.688668
69192201093338,0.32657993,-0.17748858,9.709568
69192220949211,0.3136013,-0.20198224,9.710073
69192240805084,0.28121877,-0.24368471,9.683511
69192260668697,0.2729098,-0.21807064,9.701368
69192280524698,0.28144315,-0.18199334,9.762165
69192300380699,0.33234918,-0.20641062,9.749886
69192320236700,0.2733636,-0.20363414,9.799728
69192340092701,0.24945138,-0.21209863,9.830939
69192359945496,0.24871042,-0.2400129,9.798358
69192379801497,0.2400562,-0.26269844,9.7819
69192399657498,0.2778792,-0.2368871,9.768256
69192419513371,0.37418562,-0.15212806,9.766335
69192439369349,0.35817212,0.1676391,9.749509
69192459230452,0.3392486,0.048801538,9.712361
69192479086453,0.3376829,0.056412596,9.750115
69192498942454,0.35122192,0.08299928,9.720701
69192518798583,0.36018008,0.07011189,9.693284
69192538654584,0.3680904,0.06077433,9.676199
69192558516393,0.36920792,0.09759159,9.694196
69192578372522,0.37453744,0.10984335,9.71884
69192598228779,0.36972344,0.06755307,9.745096
69192618085036,0.36121675,0.05552293,9.757802
69192637941165,0.357375,0.07394652,9.762741
69192657797532,0.34037304,0.060925264,9.713306
69192677653789,0.326395,0.08005052,9.703097
69192697510046,0.30071574,0.037306655,9.73572
69192717366303,0.3388037,0.049025413,9.710019
69192737222688,0.3692401,0.09179791,9.78668
69192757078877,0.35581926,0.1400897,9.923616
69192776935134,0.32324713,0.11868265,9.891027
69192796791519,0.36273512,0.07064921,9.85935
69192816647776,0.35442016,0.06594508,9.850686
69192836504033,0.3278962,0.12505344,9.7977085
69192856355158,0.3079337,0.14494628,9.754431
69192876211287,0.30237263,0.07591884,9.675433
69192896067544,0.31587878,0.092077196,9.652376
69192915923652,-0.06831847,0.3816205,9.690648
69192935779909,-0.056611624,0.38533866,9.6564665
69192955626364,0.032407362,0.35075995,9.640569
69192975482365,0.083495766,0.37460878,9.668379
69192995338366,0.064687535,0.4182686,9.735824
69193015194367,0.082954995,0.37704492,9.763606
69193035050368,0.09375807,0.3204622,9.780114
69193054911099,0.07265613,0.29318246,9.824122
69193074767228,0.06630711,0.31278446,9.814851
69193094623229,0.101107426,0.32476318,9.8126335
69193114479358,0.076735795,0.3748775,9.799166
69193134335359,-0.0049097035,0.41360423,9.764341
69193154187130,0.019494947,0.37811822,9.748701
69193174043131,0.06468122,0.32763875,9.771272
69193193899132,0.08465004,0.32454556,9.73683
69193213755005,0.07257461,0.3487966,9.732645
69193233613426,0.04300532,0.3491568,9.754275
69193253469427,0.010595479,0.33756867,9.734028
69193273325428,0.047667954,0.319587,9.706507
69193293181429,0.09797059,0.32243246,9.686121
69193313037430,0.07585947,0.34266287,9.688971
69193332893559,0.034858268,0.3670262,9.733292
69193352743848,0.03805556,0.360028,9.753427
69193372599593,0.077494256,0.34259015,9.786683
69193392455444,0.083858125,0.32218808,9.784391
69193412311317,0.07794178,0.33677515,9.780383
69193432167190,0.062242825,0.34394106,9.783838
69193452024903,0.0084827505,0.353488,9.750543
69193471880904,-0.0313113,0.35895348,9.757617
69193491736777,0.010824573,0.34495395,9.758958
69193511592650,0.025520578,0.35406458,9.7088995
69193531448523,0.0254661,0.32935932,9.734982
69193551304396,0.006192502,0.34257826,9.742844
69193571156735,-0.033148803,0.35166594,9.688029
69193591012608,-0.016523546,0.33018667,9.728419
69193610868353,-0.004042587,0.35618216,9.744492
69193630724098,-0.026574504,0.3963485,9.819439
69193650582799,0.036293298,0.37597764,9.838541
69193670438672,0.03164035,0.34586498,9.790214
69193690294545,-0.021867836,0.32285365,9.794038
69193710150290,-0.010545916,0.324903,9.784785
69193730006163,-0.00941444,0.33651423,9.699459
69193749863446,-0.07194407,0.37575835,9.704172
69193769719191,-0.060173884,0.36703876,9.7309065
69193789575064,-0.0156307,0.34355238,9.762854
69193809430937,-0.00237242,0.34890488,9.787085
69193829286810,-0.047100943,0.3495914,9.736839
69193849142683,-0.056353804,0.34382927,9.685177
69193868998779,0.12646611,0.32145256,9.634368
69193888854780,0.15860628,0.31951454,9.665527
69193908710653,0.12659585,0.329365,9.689769
69193928566526,0.07002246,0.38191944,9.706105
69193948422893,0.06759498,0.36816615,9.793909
69193968278766,0.12424829,0.3353814,9.853643
69193988134639,0.1731454,0.32626954,9.8556595
69194007990512,0.18940422,0.31160057,9.827483
69194027846385,0.104296364,0.36691877,9.797211
69194047705506,-6.430482E-4,0.36768088,9.796519
69194067561379,0.06136387,0.33544347,9.774369
69194087417380,0.1556521,0.29267967,9.752508
69194107273381,0.107126094,0.3378955,9.733946
69194127129382,-0.031020747,0.4154006,9.747428
69194146985383,0.002318511,0.35705173,9.733526
69194166839452,0.1534538,0.297579,9.759682
69194186695453,0.21842045,0.30472538,9.729933
69194206551454,0.10870392,0.34061894,9.69659
69194226407327,-0.007710207,0.37840316,9.68629
69194246265308,0.011197698,0.4147085,9.710465
69194266121309,0.11827574,0.3873925,9.75553
69194285977310,0.16669849,0.32936913,9.775611
69194305833311,0.13192947,0.2784476,9.819722
69194325689312,0.07615515,0.29339442,9.806017
69194345545292,0.0149508165,0.336196,9.807254
69194365400379,0.045913883,0.3315666,9.786085
69194385256380,-0.018802514,0.35036296,9.768606
69194405112381,-0.034277122,0.34988433,9.763691
69194424968510,0.028705321,0.33223018,9.744513
69194444824511,0.021963201,0.3085218,9.72954
69194464679872,-0.001904356,0.29207167,9.723428
69194484535873,0.04252534,0.29530266,9.718609
69194504391874,0.08335418,0.291107,9.737515
69194524247875,0.05626835,0.3270192,9.716601
69194544104948,0.01700445,0.35719696,9.747409
69194563960821,0.046866722,0.3476277,9.766354
69194583816822,0.045550585,0.3566754,9.760283
69194603672695,0.055078026,0.31065512,9.775612
69194623528696,0.05677155,0.27091175,9.776483
69194643384569,0.060284052,0.28196198,9.78652
69194663246678,0.074682236,0.32188693,9.775816
69194683102807,0.043261133,0.3807128,9.781482
69194702958936,-0.024192918,0.39671987,9.786894
69194722815065,-7.9862325E-4,0.35720256,9.742774
69194742671194,0.05342344,0.27324897,9.744791
69194762525183,0.061495896,0.28232285,9.734835
69194782381184,0.02235087,0.32779896,9.699608
69194802237313,0.010054192,0.33705974,9.724577
69194822093293,-0.12880352,0.30569097,9.761861
69194841945308,-0.10897561,0.29632086,9.774108
69194861801437,-0.07045541,0.261023,9.789649
69194881657438,-0.058150917,0.28897974,9.783156
69194901513439,-0.093683444,0.34950733,9.782079
69194921369440,-0.06005968,0.37447202,9.766882
69194941225441,-0.051316317,0.34768847,9.746758
69194961070564,-0.119413085,0.29595652,9.767777
69194980926309,-0.14410402,0.32635564,9.739682
69195000782182,-0.06947141,0.32604617,9.752567
69195020637927,-0.07149085,0.32015333,9.748986
69195040493672,-0.117038384,0.29166952,9.741453
69195060348475,-0.07957974,0.2541183,9.745282
69195080204220,-0.08223622,0.2468733,9.734674
69195100059965,-0.12679446,0.29588664,9.746423
69195119915710,-0.116573565,0.31934306,9.758125
69195139771583,-0.056753106,0.31244114,9.761377
69195159627328,-0.0555237,0.31191546,9.77116
69195179481439,-0.065363884,0.3128969,9.730238
69195199337056,-0.075030796,0.32357308,9.743751
69195219192801,-0.036385287,0.37181515,9.757902
69195239048546,-0.0031073496,0.38664052,9.727549
69195258903195,-0.017144786,0.36754593,9.730045
69195278758812,-0.12347054,0.3423246,9.727395
69195298614534,0.08107657,0.342321,9.729088
69195318470279,0.14685188,0.3062793,9.748443
69195338325896,0.1723367,0.28103325,9.724772
69195358174265,0.15052979,0.2831061,9.772513
69195378029754,0.14784274,0.27713075,9.832461
69195397885371,0.11285746,0.31780204,9.792368
69195417740860,0.13066626,0.3218143,9.754431
69195437596477,0.13196653,0.30193987,9.74916
69195457451966,0.10070493,0.32108173,9.728042
69195477302243,0.08953687,0.32648316,9.704924
69195497157604,0.061960556,0.30234846,9.754292
69195517012965,0.055413935,0.3185557,9.812355
69195536868454,0.10704325,0.2955348,9.800892
69195556731787,0.21090169,0.23958862,9.75452
69195576587276,0.16805708,0.21583918,9.745354
69195596442765,-0.042147145,0.34003225,9.717117
69195616298382,-0.048192613,0.36873466,9.717315
69195636153871,0.17285107,0.31809324,9.727724
69195656008580,0.16671255,0.32675818,9.732715
69195675864197,0.04679315,0.30266786,9.737377
69195695719686,0.05312056,0.26930672,9.754811
69195715575175,0.102016725,0.3146049,9.779986
69195735430664,0.101831965,0.3728017,9.768364
69195755286153,0.09197056,0.32705852,9.782786
69195775141543,0.23896883,0.18279667,9.791559
69195794997032,0.24327135,0.21265858,9.781033
69195814852521,0.2703036,0.2155881,9.7802305
69195834707882,0.25616065,0.24968016,9.778526
69195854561713,0.22052917,0.24094726,9.761529
69195874417202,0.22239137,0.17981066,9.758326
69195894272563,0.24970512,0.16421813,9.727979
69195914128052,0.21611087,0.22046353,9.745205
69195933983413,0.20343892,0.27523953,9.7041445
69195953838902,0.21263836,0.25646836,9.716776
69195973700095,0.24276508,0.19748981,9.744329
69195993555712,0.25661156,0.19981517,9.790376
69196013411201,0.23180014,0.21545558,9.790819
69196033266690,0.22424066,0.22356778,9.780225
69196053122179,0.21779026,0.20290515,9.837771
69196072976870,0.19466363,0.15420027,9.795861
69196092832359,0.18760547,0.11268166,9.713877
69196112687976,0.183979,0.15930393,9.690438
69196132543465,0.20038469,0.31653926,9.680553
69196152405330,0.26366588,0.36990026,9.748274
69196172261075,0.33055395,0.22336742,9.772434
69196192116692,0.29874966,0.0843395,9.766097
69196211972437,0.23266318,0.11979504,9.785176
69196231828054,0.23395504,0.15097938,9.792431
69196251683649,0.28484505,0.016115854,9.8002
69196271549670,0.36901453,0.024157867,9.771098
69196291405543,0.35804743,0.020481708,9.752751
69196311261544,0.29915968,7.208912E-4,9.766588
69196331117417,0.28561562,0.028559256,9.752849
69196350973290,0.32384825,0.022393228,9.780317
69196370832205,0.3373346,-0.042499505,9.820903
69196390688206,0.31417674,-0.03289815,9.764661
69196410544207,0.28083986,-0.00895274,9.724137
69196430400336,0.2973056,0.0012375638,9.698494
69196450257025,0.3350605,-0.011536619,9.742269
69196470113026,0.3285823,0.018322827,9.81082
69196489969155,0.34361148,0.074016996,9.771915
69196509825156,0.323049,6.549418E-4,9.691977
69196529681285,0.3095929,-0.010695798,9.636323
69196549537286,0.31438887,0.04255486,9.610903
69196569392301,0.29252788,0.010646184,9.663821
69196589248430,0.30301902,-0.03920631,9.704433
69196609104431,0.33784452,-0.044947524,9.75449
69196628960432,0.3444433,-0.055921838,9.800896
69196648816433,0.32261592,-0.1152944,9.8599205
69196668680164,0.33112723,-0.1182438,9.897322
69196688536293,0.33149976,-0.07802335,9.841515
69196708392550,0.27846727,-0.046521664,9.780608
69196728248657,0.26338908,-0.10107835,9.773802
69196748104914,0.32574162,-0.08344672,9.725127
69196767961043,0.35499734,-0.054758027,9.714073
69196787826936,0.31381318,-0.10554752,9.7327175
69196807683321,0.27641296,-0.13096267,9.720854
69196827539706,0.28152218,-0.1187538,9.710019
69196847396091,0.30622098,-0.1098006,9.72805
69196867253018,0.35604018,-0.035403814,9.766024
69196887109531,0.34945503,-0.06736559,9.751785
69196906965916,0.29165283,-0.12810767,9.756142
69196926822429,0.24782677,-0.057586953,9.785294
69196946678814,0.26441398,-0.030430391,9.807305
69196966526093,0.26423743,-0.07348041,9.822243
69196986382350,0.27331194,-0.078230605,9.810581
69197006238607,0.3246749,0.010803465,9.784772
69197026094864,0.27658966,0.0036897324,9.76255
69197045951121,0.25485092,-0.05398242,9.731253
69197065807378,0.28119078,-0.01773675,9.731575
69197085645295,0.26050818,-0.0219648,9.726057
69197105501168,0.29484448,-0.08138011,9.721887
69197125357041,0.3227529,-0.076992854,9.724109
69197145212914,0.34747124,0.028896084,9.7312
69197165061779,0.30817807,-0.008495722,9.761598
69197184917652,0.2078795,-0.1308202,9.770759
69197204773375,0.24765341,-0.14575768,9.798033
69197224629120,0.31700474,-0.101287216,9.794858
69197244484993,0.33377147,-0.0635907,9.747848
69197264340738,0.32820746,-0.07642998,9.787913
69197284195581,0.2904615,-0.09304894,9.774914
69197304051326,0.26349676,-0.09974687,9.728076
69197323907071,0.2544901,-0.06289418,9.713295
69197343762816,0.30742,-0.0070471587,9.738399
69197363618561,0.35431936,-0.045267913,9.763158
69197383469106,0.27779227,-0.16314405,9.772023
69197403324723,0.2132972,-0.16144328,9.787233
69197423180340,0.25884512,-0.033248443,9.800853
69197443036085,0.28662002,-0.04826539,9.7852955
69197462886084,0.278096,-0.15755856,9.790033
69197482741445,0.31612545,-0.122577086,9.77918
69197502596934,0.32262665,-0.04722677,9.737227
69197522452423,0.28081894,-0.040029816,9.736018
69197542307784,0.29278103,-0.065814316,9.757191
69197562163273,0.31627816,-0.08849371,9.777524
69197582012536,0.28292066,-0.10685445,9.763716
69197601867769,0.27072105,-0.06645573,9.752346
69197621723130,0.24266578,-0.040535852,9.742868
69197641578491,0.23434061,-0.08276905,9.731902
69197661433724,0.24620374,-0.09090535,9.714479
69197681289800,-0.2759785,0.095962666,9.723835
69197701145033,-0.29155552,0.091740295,9.742935
69197721000266,-0.26215234,0.13247052,9.762104
69197740855627,-0.24587815,0.12560955,9.774462
69197760714750,-0.2600601,0.121383,9.801005
69197780570111,-0.25638446,0.1320149,9.789534
69197800425344,-0.24944656,0.18053938,9.81523
69197820280705,-0.26500222,0.17867091,9.785011
69197840135938,-0.3184076,0.13765028,9.724875
69197859991171,-0.29055214,0.12135021,9.749698
69197879848550,-0.27036083,0.12077548,9.763636
69197899703783,-0.2901899,0.10692434,9.686437
69197919559144,-0.24004677,0.11005238,9.709403
69197939414505,-0.27728584,0.10796217,9.74104
69197959269738,-0.3624936,0.10795871,9.75624
69197979127957,-0.27199948,0.17633833,9.797109
69197998983318,-0.19910127,0.16772707,9.784983
69198018838551,-0.23880282,0.11315426,9.784688
69198038693912,-0.25439727,0.13766874,9.798411
69198058549273,-0.253592,0.21430983,9.803698
69198078404634,-0.2653184,0.20673217,9.750411
69198098258757,-0.28859454,0.14219251,9.6946335
69198118113990,-0.29333082,0.09692934,9.6831665
69198137969351,-0.2730757,0.11923103,9.7148285
69198157824562,-0.267454,0.09211965,9.720242
69198177683801,-0.25993106,0.115301736,9.714163
69198197539162,-0.23571348,0.14108798,9.748103
69198217394523,-0.2230343,0.15670665,9.778061
69198237249884,-0.25729784,0.13338459,9.801466
69198257105245,-0.28839386,0.10618892,9.811192
69198276969848,-0.25519574,0.08920791,9.807334
69198296825465,-0.22844574,0.12832189,9.799937
69198316680954,-0.21479046,0.1387377,9.794279
69198336536571,-0.23607038,0.1284567,9.738182
69198356392188,-0.27148515,0.09664145,9.71174
69198376247805,-0.26865354,0.086219996,9.7358885
69198396111862,-0.25038153,0.12129855,9.743183
69198415967735,-0.2479832,0.16903003,9.697943
69198435823608,-0.22928412,0.18429732,9.711364
69198455679481,-0.2524187,0.12758194,9.758962
69198475542156,-0.25970232,0.123994835,9.783445
69198495398285,-0.2195467,0.15088756,9.728109
69198515254414,-0.21960981,0.11691623,9.734359
69198535110543,-0.24569015,0.1470419,9.787709
69198554966544,-0.30144346,0.16697383,9.855105
69198574818183,-0.26143178,0.18143557,9.860692
69198594674184,-0.1702857,0.21530743,9.832793
69198614530313,-0.20629673,0.151266,9.778025
69198634386294,-0.21810348,0.1764298,9.748688
69198654242423,-0.25322017,0.17786063,9.728699
69198674098424,-0.2067146,0.20353931,9.728613
69198693951511,-0.12293148,0.20363739,9.7094145
69198713807384,-0.15211427,0.16664875,9.697199
69198733663385,-0.22597545,0.13967323,9.724304
69198753519258,-0.25332248,0.16471797,9.750895
69198773372803,-0.18487251,0.2489351,9.748873
69198793228676,-0.12195914,0.25353384,9.792201
69198813084549,-0.1279097,0.23033124,9.784637
69198832940422,-0.20298286,0.1911634,9.784876
69198852796295,-0.23967114,0.16121832,9.817629
69198872652168,-0.20302422,0.19305705,9.794267
69198892508575,-0.15042108,0.19955665,9.766312
69198912364448,-0.16882247,0.21039663,9.722509
69198932220321,-0.26044646,0.17212155,9.7102785
69198952076322,-0.2611645,0.14441797,9.720747
69198971932195,-0.1882304,0.18891205,9.753633
69198991776462,-0.17180651,0.23839217,9.797479
69199011632079,-0.17774852,0.24153157,9.78949
69199031487824,-0.22977506,0.2157333,9.835998
69199051343441,-0.24851553,0.2064428,9.867108
69199071192512,-0.19096509,0.18766862,9.770975
69199091048001,-0.118910834,0.1869439,9.7005825
69199110903469,0.2519807,0.003906021,9.694728
69199130759086,0.34612614,0.059203714,9.742071
69199150614575,0.37382096,0.006746785,9.769955
69199170470064,0.32933816,-0.050549895,9.697917
69199190315661,0.2757281,0.021435052,9.671616
69199210170894,0.2486766,0.011732639,9.696276
69199230026127,0.2730465,-0.043174315,9.707222
69199249881488,0.29294825,-0.021499593,9.743863
69199269736721,0.2605905,0.022805773,9.754642
69199289556540,0.23540036,0.028926132,9.788501
69199309411133,0.2164002,0.004284102,9.846585
69199329265726,0.22759034,-0.02760684,9.872366
69199349120191,0.26920766,-0.042193953,9.842264
69199368981232,0.27519423,-0.04178222,9.804798
69199388835825,0.25090843,-0.02650308,9.820224
69199408690546,0.24782029,-0.004400721,9.779707
69199428545139,0.28138158,-0.008528359,9.735114
69199448399860,0.2656358,-0.0020139464,9.679698
69199468254453,0.26069802,0.0055808094,9.686341
69199488111716,0.27237916,-0.027780594,9.702079
69199507966309,0.26955655,-0.030385675,9.731453
69199527820902,0.26694095,-0.027676372,9.756633
69199547675495,0.24427402,-0.049969874,9.776498
69199567530216,0.26926914,-0.06008957,9.80319
69199587393763,0.22275966,-0.15835756,9.826041
69199607248484,0.24816424,-0.18013622,9.793395
69199627103205,0.2386028,-0.20764257,9.803601
69199646958054,0.26842326,-0.1792607,9.828783
69199666822021,0.28513217,-0.1425694,9.775842
69199686676870,0.23695186,-0.12291876,9.751067
69199706531719,0.22756553,-0.13484797,9.734854
69199726386568,0.289189,-0.13090095,9.709366
69199746241417,0.27385974,-0.18739344,9.695062
69199766096394,0.21155737,-0.21507476,9.67225
69199785957545,0.22413404,-0.16139254,9.654483
69199805812522,0.25779435,-0.13387054,9.6865635
69199825667499,0.27094913,-0.17588148,9.741343
69199845522476,0.25388625,-0.1619874,9.78416
69199865377453,0.21859491,-0.13619122,9.7987
69199885229090,0.16556217,-0.13045266,9.815628
69199905084067,0.18818846,-0.1016585,9.834056
69199924938916,0.27490982,-0.088719554,9.8231535
69199944793877,0.26741448,-0.11684595,9.808926
69199964656052,0.22414316,-0.14011928,9.773869
69199984511029,0.20605677,-0.15270397,9.741261
69200004366132,0.08176642,-0.23667598,9.735372
69200024221236,0.14065064,-0.2661226,9.696416
69200044076341,0.11421153,-0.27805594,9.68994
69200063931444,-0.10268063,-0.28241438,9.719405
69200083793376,-0.15932156,-0.26587373,9.723893
69200103648609,-0.1833324,-0.23404434,9.728607
69200123503840,-0.18300253,-0.2349273,9.752747
69200143359200,-0.24637616,-0.17200972,9.762181
69200163214433,-0.26627365,-0.077186204,9.814018
69200183076822,-0.2696658,8.677339E-4,9.855286
69200202932183,-0.2553258,-0.08030852,9.828469
69200222787672,-0.25106826,-0.12386307,9.82933
69200242643033,-0.25366998,-0.17090768,9.860829
69200262508354,-0.25344783,-0.15547082,9.747693
69200282363971,-0.21472682,-0.10652646,9.693607
69200302219708,-0.22466907,-0.037327558,9.706102
69200322075324,-0.29790398,-0.07815836,9.683879
69200341931069,-0.30642018,-0.06336511,9.707733
69200361786684,-0.2492084,0.0064540887,9.692939
69200381657611,-0.24128328,-0.014487237,9.728269
69200401513612,-0.27190995,-0.01190868,9.737641
69200421369613,-0.29770625,0.02986476,9.755687
69200441225742,-0.28959963,0.027008766,9.77929
69200461081743,-0.27561602,0.008410835,9.793381
69200480949372,-0.26150912,-4.104298E-4,9.808854
69200500805757,-0.24292675,-0.028956152,9.822348
69200520662142,-0.26429006,-0.05275832,9.814168
69200540518527,-0.27069288,-0.010104306,9.803544
69200560374912,-0.2525364,0.04186562,9.778809
69200580231297,-0.23313212,0.020554656,9.745263
69200600090912,-0.2670408,-0.054083664,9.7284355
69200619947425,-0.2938913,-0.0771974,9.724167
69200639803938,-0.26992348,-0.034483552,9.70628
69200659660451,-0.2614703,0.027863918,9.683701
69200679524620,-0.28367907,0.040654253,9.703084
69200699381261,-0.29295626,-0.029484212,9.743473
69200719238030,-0.28369075,-0.055308577,9.755149
69200739094671,-0.26726222,0.017154552,9.788896
69200758951440,-0.25267115,0.062234715,9.813155
69200778808439,-0.26610446,0.0021398629,9.807825
69200798665336,-0.28228518,-0.050213274,9.806075
69200818522105,-0.27413526,-0.007217583,9.853924
69200838378874,-0.27886286,-2.062131E-4,9.825531
69200858235749,-0.22354811,-0.0069966945,9.740095
69200878092518,-0.22385468,-0.03541535,9.721208
69200897928555,-0.30395982,-0.1035473,9.72055
69200917784812,-0.33961132,-0.13661395,9.708622
69200937640941,-0.29111746,-0.010054987,9.722104
69200957497070,-0.2511363,0.037337564,9.711189
69200977344987,-0.2435715,-0.035682082,9.708263
69200997200988,-0.2616297,-0.026094638,9.74576
69201017056989,-0.28255787,-0.018542502,9.785455
69201036912990,-0.32128206,-0.027345933,9.797205
69201056768991,-0.26865846,-0.0021786725,9.763948
69201076614166,-0.22512835,-0.028507829,9.788585
69201096469911,-0.25961176,-0.09878077,9.79071
69201116325784,-0.28054935,-0.07699048,9.804426
69201136181529,-0.26176438,-0.005725901,9.7801075
69201156037402,-0.22457117,0.0041132797,9.77776
69201175893147,-0.22487418,-0.031702697,9.757245
69201195742730,-0.24456745,-0.075796515,9.763778
69201215598347,-0.25872543,-0.090078436,9.758163
69201235454092,-0.27283567,-0.07385985,9.744315
69201255309837,-0.25893393,-0.056939658,9.752039
69201275169810,-0.24981345,-0.056667466,9.712
69201295025683,-0.25229016,-0.081153244,9.70697
69201314881556,-0.26071882,-0.06917324,9.701837
69201334737277,-0.25669122,-0.0821528,9.718568
69201354593150,-0.27787933,-0.06456478,9.761997
69201374449023,-0.30297446,-0.024777185,9.760849
69201394302568,-0.2836441,-0.016854271,9.77777
69201414158441,-0.28324038,-0.045032736,9.8566065
69201434014186,-0.26454562,-0.041609712,9.876362
69201453869931,-0.2028192,0.020816045,9.8111925
69201473725804,-0.16786155,0.024609646,9.748124
69201493576803,-0.21331576,-0.051683217,9.756449
69201513432420,-0.26931724,-0.088960074,9.763638
69201533288037,-0.28885958,-0.05634695,9.742217
69201553143654,-0.24262223,-0.017557938,9.721066
69201572993713,-0.20211913,0.010319916,9.731914
69201592849074,-0.19333705,0.0652127,9.778554
69201612704563,-0.23093769,0.10741326,9.794631
69201632560052,-0.2733428,0.050684445,9.759802
69201652415413,-0.25779283,-0.042921666,9.7482395
69201672270902,-0.21351579,-0.041292764,9.716218
69201692118383,-0.17488424,0.025220929,9.702976
69201711973616,-0.18998699,-0.0060722376,9.743018
69201731828849,-0.2485986,-0.05541975,9.7486725
69201751684082,-0.2628162,-0.08652062,9.696083
69201771539315,-0.24411799,-0.090494856,9.714213
69201791398614,-0.21719724,-0.056289874,9.851519
69201811253828,-0.22750954,0.040935628,9.948967
69201831109061,-0.2298881,0.07800735,9.956699
69201850964422,-0.22128914,-0.044778317,9.820292
69201870815619,-0.19306886,-0.09367951,9.75705
69201890670724,-0.1980175,-0.031893823,9.698178
69201910525957,-0.23166746,0.0010302824,9.601199
69201930381062,-0.24518748,-0.024659172,9.531041
69201950236167,-0.26160216,-0.11024726,9.581734
69201970091272,-0.27631527,-0.14012973,9.707114
69201989951491,-0.30900827,-0.07890128,9.770711
69202009806724,-0.33065882,-0.024979796,9.839353
69202029661829,-0.30194598,-0.009799778,9.932669
69202049517062,-0.23365438,-0.05311072,9.921715
69202069372295,-0.14771178,-0.053969715,9.886989
69202089230846,-0.13036184,-0.04677673,9.871937
69202109086207,-0.20198427,-0.11969327,9.80484
69202128941440,-0.22207198,-0.1498466,9.758514
69202148796801,-0.20702296,-0.1422134,9.699102
69202168657512,-0.21722229,-0.17205602,9.637265
69202188512873,-0.24988446,-0.18591332,9.626149
69202208368362,-0.2640849,-0.11142818,9.64004
69202228223723,-0.281057,-0.10352902,9.685224
69202248079212,-0.22483769,-0.11362904,9.710137
69202267934573,-0.20417295,-0.08728437,9.766741
69202287802043,-0.18840435,-0.093648836,9.831033
69202307657788,-0.2043956,-0.13420059,9.8743925
69202327513533,-0.20280018,-0.13376828,9.879485
69202347369278,-0.17761138,-0.11311157,9.834934
69202367225023,-0.14432305,-0.08051599,9.817239
69202387077556,-0.13665527,-0.107329264,9.794592
69202406933301,-0.18525913,-0.13919213,9.787745
69202426789046,-0.19156449,-0.16959903,9.746132
69202446644791,-0.22385675,-0.1620803,9.708312
69202466500536,-0.22522268,-0.113926604,9.683258
69202486356281,-0.23128691,-0.10942928,9.676892
69202506209960,-0.21811551,-0.16596378,9.673062
69202526065705,-0.18933798,-0.16577984,9.689933
69202545921450,-0.1921193,-0.092019446,9.678913
69202565777195,-0.1822349,-0.067847215,9.755969
69202585633872,-0.20289162,-0.08401211,9.847137
69202605489617,-0.20338792,-0.107767895,9.8740835
69202625345362,-0.20569369,-0.09197644,9.862204
69202645201107,-0.18509936,-0.060258985,9.876711
69202665056980,-0.18191178,-0.06846112,9.797585
69202684907137,-0.15989259,-0.09305255,9.733094
69202704762754,-0.20236921,-0.13645491,9.687022
69202724618371,-0.25933042,-0.16966395,9.686285
69202744473988,-0.26445374,-0.124294214,9.726828
69202764329582,-0.23419699,-0.022140738,9.727823
69202784185199,-0.19162317,-0.051799636,9.742908
69202804042328,-0.1708634,-0.09907258,9.739293
69202823897945,-0.1866896,-0.09250656,9.748196
69202843753562,-0.21043293,-0.07128327,9.7786045
69202863609051,-0.23499191,-0.08059942,9.792716
69202883471034,-0.22387458,-0.1086298,9.80738
69202903326779,-0.19795437,-0.13211629,9.850801
69202923182524,-0.19501643,-0.13601042,9.861473
69202943038269,-0.18787417,-0.13591185,9.818689
69202962894014,-0.17998745,-0.09194734,9.780958
69202982745135,-0.18955117,-0.11728995,9.716289
69203002600752,-0.19170596,-0.1508998,9.69279
69203022456369,-0.22022356,-0.16111945,9.672186
69203042312114,-0.24025863,-0.15965925,9.676085
69203062167731,-0.20957567,-0.1380216,9.715311
69203082023348,-0.20592386,-0.1655367,9.731142
69203101873187,-0.21021262,-0.13456787,9.748999
69203121728676,-0.18911245,-0.09333261,9.762537
69203141584293,-0.16638295,-0.11768372,9.795772
69203161439910,-0.17824584,-0.12556526,9.806913
69203181294363,-0.18928452,-0.12565598,9.800243
69203201149852,-0.22193748,-0.15375143,9.815106
69203221005469,-0.23202,-0.15051241,9.81799
69203240860936,-0.22584555,-0.12359789,9.801385
69203260716425,-0.20748913,-0.08201818,9.81688
69203280572042,-0.20166455,-0.12937388,9.757142
69203300431475,-0.16082062,-0.15556026,9.710539
69203320287092,-0.16108057,-0.14552467,9.7142725
69203340142581,-0.20828828,-0.15805408,9.732373
69203359998198,-0.23433615,-0.1289932,9.720047
69203379853687,-0.24143988,-0.084353335,9.728618
69203399708962,-0.20945418,-0.12029119,9.747549
69203419564451,-0.21785806,-0.16009183,9.731039
69203439420068,-0.1913329,-0.12045677,9.755401
69203459275685,-0.20578606,-0.050730556,9.7697735
69203479124554,-0.23556185,-0.091585286,9.779189
69203498979915,-0.20875198,-0.11376658,9.78844
69203518835404,-0.18296035,-0.14018896,9.802874
69203538690765,-0.19532175,-0.172383,9.81173
69203558546126,-0.18705581,-0.12128008,9.773274
69203578401615,-0.19976845,-0.09368213,9.753518
69203598254454,-0.182669,-0.090691596,9.768179
69203618109815,-0.20186952,-0.10363219,9.749391
69203637965176,-0.21238843,-0.123794205,9.735253
69203657820537,-0.22815251,-0.11631671,9.729421
69203677675898,-0.21238843,-0.123794205,9.735253
69203697534953,-0.1890399,-0.11461287,9.742927
69203717390292,-0.20264083,-0.09627374,9.726486
69203737245653,-0.20659824,-0.0886669,9.751854
69203757101142,-0.2347786,-0.12908937,9.766361
69203776960825,-0.2279395,-0.14834248,9.794007
69203796816314,-0.20645677,-0.10736614,9.805196
69203816671803,-0.22401032,-0.096771345,9.781642
69203836527292,-0.19656852,-0.10705531,9.789684
69203856382909,-0.20026477,-0.117437914,9.780463
69203876238398,-0.21685736,-0.11886451,9.733982
69203896098275,-0.21662453,-0.07767575,9.712397
69203915953892,-0.23191454,-0.12021358,9.73656
69203935809509,-0.22097969,-0.17483959,9.702865
69203955665254,-0.18494047,-0.15738302,9.679961
69203975520871,-0.20938154,-0.14157145,9.727939
69203995359466,-0.23579697,-0.13333046,9.771544
69204015214827,-0.2616355,-0.12889825,9.825431
69204035070060,-0.22446355,-0.07467545,9.832833
69204054925421,-0.19731888,-0.12761629,9.847969
69204074780654,-0.19642568,-0.13370852,9.812172
69204094636015,-0.20334665,-0.07893701,9.778161
69204114486470,-0.24575897,-0.12087125,9.746583
69204134341575,-0.24732247,-0.18787897,9.726861
69204154196808,-0.19768359,-0.1808078,9.751251
69204174051913,-0.18249667,-0.18447658,9.746807
69204193908758,-0.21025349,-0.17986289,9.753983
69204213763991,-0.22577532,-0.14543469,9.752544
69204233619224,-0.23300411,-0.11112809,9.730499
69204253474329,-0.23989244,-0.1144217,9.741945
69204273329562,-0.24077854,-0.12312387,9.774491
69204293188799,-0.2553124,-0.15194157,9.767977
69204313044032,-0.23215216,-0.1460511,9.7906275
69204332899265,-0.21825743,-0.114336446,9.8015995
69204352754498,-0.24226168,-0.09158779,9.775658
69204372609731,-0.25187242,-0.13892046,9.779306
69204392464964,-0.23826438,-0.17205422,9.792496
69204412326383,-0.23034231,-0.20206243,9.73851
69204432181872,-0.21976829,-0.16619442,9.741164
69204452037233,-0.18195486,-0.11431263,9.773337
69204471892594,-0.19853249,-0.13681798,9.780439
69204491760975,-0.2164547,-0.15555307,9.752736
69204511616720,-0.23195049,-0.18085961,9.709063
69204531472337,-0.21001108,-0.1693762,9.667437
69204551328082,-0.20077491,-0.1280688,9.72297
69204571183699,-0.22642261,-0.119789,9.791108
69204591035012,-0.22067781,-0.13106991,9.754232
69204610890629,-0.18985812,-0.1292444,9.7883415
69204630746246,-0.19942914,-0.12332842,9.817862
69204650601863,-0.2786146,-0.10620434,9.873864
69204670457332,-0.29814747,-0.087829314,9.878422
69204690312949,-0.2243909,-0.09595583,9.813222
69204710160618,-0.14856592,-0.14571148,9.813967
69204730015979,-0.18615928,-0.13476945,9.735852
69204749871340,-0.22542885,-0.080231346,9.706362
69204769726701,-0.2727955,-0.16318363,9.695581
69204789580946,-0.26946655,-0.19008477,9.669797
69204809436307,-0.20964941,-0.12525168,9.674838
69204829291668,-0.20838657,-0.09350328,9.703278
69204849147029,-0.22979718,-0.13929579,9.763416
69204869002390,-0.26252967,-0.13131653,9.801142
69204888857751,-0.22005674,-0.080516845,9.84884
69204908705144,-0.1708848,-0.03822482,9.839984
69204928560377,-0.1764294,-0.05379879,9.826152
69204948415610,-0.21200469,-0.115542784,9.792988
69204968270971,-0.22762114,-0.15006952,9.777163
69204988126204,-0.22169618,-0.13531101,9.759415
69205007983777,-0.20213875,-0.079358675,9.727145
69205027839138,-0.20150892,-0.068018004,9.696708
69205047694499,-0.21691354,-0.14308071,9.685382
69205067549732,-0.2380253,-0.15417044,9.707574
69205087398363,-0.26631254,-0.10729362,9.727094
69205107253468,-0.24667081,-0.08630317,9.730421
69205127108573,-0.21954727,-0.09486032,9.755309
69205146963785,-0.1962607,-0.086590394,9.777718
69205166818890,-0.22562465,-0.052263554,9.81553
69205186674123,-0.24389002,-0.017491076,9.816047
69205206527552,-0.23683417,-0.09263156,9.815709
69205226382657,-0.23866951,-0.11945793,9.835454
69205246237762,-0.23619965,-0.09664178,9.752792
69205266092739,-0.21356721,-0.06439583,9.726076
69205285947844,-0.25108108,-0.073064685,9.716041
69205305795451,-0.30976766,-0.1016883,9.712075
69205325650428,-0.31896657,-0.073839575,9.7441225
69205345505405,-0.2913505,-0.051243503,9.743691
69205365360382,-0.2492272,-0.07471416,9.748255
69205385209075,-0.21516731,-0.04947732,9.753463
69205405063924,-0.23067735,-0.04519464,9.716292
69205424918773,-0.26881957,-0.073158026,9.705838
69205444773622,-0.27989715,-0.11798717,9.733381
69205464628471,-0.23893052,-0.117932566,9.779102
69205484483320,-0.19166431,-0.08063035,9.838832
69205504347927,-0.19963302,-0.089076504,9.870196
69205524202904,-0.2483192,-0.08542091,9.856981
69205544058009,-0.23819089,-0.058715902,9.816634
69205563913114,-0.21259585,-0.08214491,9.789212
69205583768091,-0.22426188,-0.10948402,9.75127
69205603625174,-0.24674335,-0.06502291,9.750032
69205623480002,-0.23422155,-0.09646845,9.755536
69205643334979,-0.2105215,-0.163543,9.700883
69205663189956,-0.19113824,-0.14047058,9.677089
69205683044933,-0.22656517,-0.109600104,9.67768
69205702899910,-0.28214082,-0.10128437,9.706767
69205722762147,-0.27039647,-0.10206624,9.752703
69205742617124,-0.25807717,-0.10721367,9.779685
69205762472229,-0.24002501,-0.09349631,9.805522
69205782327206,-0.2365919,-0.065680794,9.820103
69205802198025,-0.26919678,-0.06327575,9.826733
69205822053386,-0.2720657,-0.07326467,9.798075
69205841908619,-0.25075233,-0.08051925,9.785258
69205861763980,-0.23638584,-0.099376224,9.796999
69205881619341,-0.26458484,-0.11132268,9.759549
69205901477110,-0.24052323,-0.13427271,9.712298
69205921332471,-0.21067247,-0.11414158,9.712502
69205941187960,-0.2691228,-0.10897388,9.685327
69205961043321,-0.30728397,-0.09199705,9.713853
69205980898810,-0.28286907,-0.04807418,9.70811
69206000754171,-0.2557935,-0.08713184,9.741232
69206020600432,-0.25817892,-0.1613739,9.768549
69206040455793,-0.27109176,-0.10692123,9.7995
69206060311026,-0.2571363,-0.06634114,9.826593
69206080166387,-0.2436512,-0.10925157,9.838399
69206100015618,-0.12293188,-0.14225869,9.839051
69206119870979,-0.10590773,-0.15165147,9.847029
69206139726212,-0.09940248,-0.15068457,9.81415
69206159581573,-0.111097515,-0.1472281,9.777741
69206179436806,-0.14762087,-0.14571688,9.726596
69206199304059,-0.123491205,-0.15533085,9.733528
69206219159548,-0.14148322,-0.13198659,9.716001
69206239015165,-0.14938137,-0.13324597,9.71196
69206258870654,-0.13559662,-0.14784716,9.72647
69206278726271,-0.14767037,-0.20018998,9.732311
69206298581760,-0.10579576,-0.23991339,9.756526
69206318447185,-0.09896359,-0.23744963,9.775047
69206338302930,-0.096322566,-0.20805673,9.803301
69206358158803,-0.13826644,-0.16761957,9.805962
69206378014548,-0.1272534,-0.16444889,9.847313
69206397872543,-0.09425676,-0.18684031,9.8238735
69206417728416,-0.050189845,-0.20213534,9.780849
69206437584289,-0.049875244,-0.19599889,9.798191
69206457440162,-0.06710395,-0.18463509,9.782904
69206477296035,-0.103214376,-0.16424012,9.725067
69206497151908,-0.14926192,-0.15268919,9.733394
69206517013917,-0.14930736,-0.18433647,9.717799
69206536869918,-0.17935312,-0.17232308,9.697554
69206556725791,-0.20456822,-0.106317855,9.726256
69206576581770,-0.18252732,-0.14235198,9.771492
69206596437643,-0.20346029,-0.1903842,9.799972
69206616299830,-0.18737912,-0.19444017,9.805353
69206636155959,-0.16590522,-0.19559453,9.819191
69206656012088,-0.12506868,-0.23459016,9.832985
69206675868217,-0.08123718,-0.20091796,9.808396
69206695727990,-0.10115903,-0.12134568,9.782939
69206715584119,-0.09703232,-0.13875058,9.748965
69206735440376,-0.11738905,-0.18247338,9.711823
69206755296633,-0.124339014,-0.15187947,9.672514
69206775152762,-0.13949516,-0.12613773,9.675382
69206795009019,-0.12546222,-0.16434236,9.730427
69206814867348,-0.15640154,-0.16959111,9.756034
69206834723605,-0.21889758,-0.12682927,9.747978
69206854579990,-0.19214106,-0.08795844,9.732496
69206874436247,-0.18260887,-0.069639176,9.776441
69206894292504,-0.20286024,-0.081845485,9.798974
69206914138419,-0.22364034,-0.094749734,9.796984
69206933994548,-0.21620315,-0.110350646,9.800308
69206953850549,-0.15426116,-0.097314894,9.812635
69206973706550,-0.105547436,-0.09725647,9.819535
69206993548301,-0.108403735,-0.08960089,9.799733
69207013403918,-0.12317664,-0.11896716,9.781241
69207033259535,-0.12250261,-0.14517033,9.799981
69207053115259,-0.04458072,-0.17384963,9.780387
69207072970876,-0.018528024,-0.18612328,9.690793
69207092826493,-0.044881698,-0.18242629,9.679422
69207112673792,-0.084235705,-0.18571606,9.726177
69207132529281,-0.1154152,-0.22269987,9.700154
69207152384770,-0.15947041,-0.21109077,9.825707
69207172240259,-0.13851228,-0.23884565,9.8508415
69207192095748,-0.030491568,-0.27972034,9.720879
69207211953429,-0.044630002,-0.20851135,9.659764
69207231808918,-0.076361135,-0.1817958,9.698608
69207251664535,-0.10530728,-0.21212341,9.749277
69207271520152,-0.1669271,-0.16761018,9.797094
69207291375641,-0.14069955,-0.12040723,9.794031
69207311231258,-0.06758444,-0.19833627,9.827759
69207331093849,-0.0029092007,-0.30904534,9.84214
69207350949594,-0.039598532,-0.31838983,9.796001
69207370805211,-0.10822245,-0.21074821,9.734284
69207390660956,-0.07383923,-0.1378361,9.701002
69207410520127,0.02312197,-0.1259124,9.679419
69207430376000,0.007735491,-0.19681741,9.696566
69207450231873,-0.06264502,-0.25554368,9.730114
69207470087874,-0.067646116,-0.2793658,9.741526
69207489943747,-0.08082067,-0.22392316,9.810769
69207509800680,-0.04267221,-0.22293521,9.809946
69207529656532,0.02554444,-0.23179449,9.789915
69207549512533,-0.026372964,-0.1740913,9.810043
69207569368406,-0.103867196,-0.123801015,9.778893
69207589224407,-0.095914684,-0.13770159,9.751767
69207609080408,-0.021667784,-0.21056597,9.755469
69207628922159,0.040131837,-0.28486532,9.749704
69207648777776,-0.021640845,-0.2689758,9.778219
69207668633265,-0.066957764,-0.24073005,9.774143
69207688488882,-0.04895239,-0.19157234,9.765438
69207708315079,-0.038982194,-0.15455067,9.739452
69207728169928,-0.031075655,-0.18308441,9.752163
69207748024777,-0.025815431,-0.21916153,9.739206
69207767879626,-0.02181465,-0.25693756,9.708775
69207787734347,-0.06602137,-0.22789662,9.78793
69207807595688,-0.06789844,-0.22921197,9.799683
69207827450537,-0.011034678,-0.22663598,9.765129
69207847305514,-0.014036595,-0.1768076,9.738505
69207867160363,-0.045914464,-0.19918033,9.757751
69207887015340,-0.059443288,-0.2387043,9.760929
69207906870189,-0.088288106,-0.22892499,9.752536
69207926729214,-0.08065096,-0.19840227,9.769372
69207946584191,-0.034072928,-0.18842456,9.8047695
69207966439168,-0.050304346,-0.20712921,9.768362
69207986294145,-0.09511283,-0.17771067,9.786459
69208006153964,-0.21136957,-0.019355372,9.755617
69208026008941,-0.21800725,-0.061695486,9.713736
69208045863918,-0.16716012,-0.01367395,9.714928
69208065718895,-0.16889377,-0.0103979595,9.743527
69208085574000,-0.18988441,-0.012963511,9.779854
69208105428977,-0.21325135,-0.011360027,9.759201
69208125289300,-0.2044862,-0.0023776304,9.788587
69208145144405,-0.18757036,0.053929,9.839921
69208164999638,-0.21512675,0.055610243,9.860119
69208184854743,-0.19823503,0.026702452,9.866259
69208204709976,-0.19731021,7.3783274E-4,9.852643
69208224567111,-0.18958113,-0.011494137,9.794345
69208244422344,-0.16642363,0.012555433,9.733628
69208264277449,-0.20408517,0.032698505,9.681705
69208284132682,-0.21859285,0.018217733,9.63756
69208303991103,-0.22715877,-0.029688075,9.6327
69208323846464,-0.22096874,-0.031863194,9.668022
69208343701825,-0.20766102,0.046623092,9.715995
69208363557058,-0.23229267,0.07243132,9.784749
69208383412419,-0.26114896,0.05202102,9.778318
69208403267780,-0.22871016,0.0652927,9.861796
69208423126963,-0.1903735,0.0923126,9.876067
69208442982452,-0.18374208,0.0756779,9.820613
69208462837941,-0.14812069,0.054978937,9.794257
69208482693407,-0.14719874,0.09304082,9.784483
69208502548768,-0.22982703,0.098661855,9.761858
69208522407633,-0.21713875,0.12175913,9.736976
69208542263122,-0.1836796,0.13520911,9.691137
69208562118611,-0.19263281,0.07643368,9.6737385
69208581974228,-0.18379383,0.05749833,9.702165
69208601829755,-0.15954775,0.11028578,9.72434
69208621685244,-0.15432337,0.14272308,9.738672
69208641540733,-0.1878185,0.08269722,9.77307
69208661396350,-0.15611434,0.05899021,9.784752
69208681251839,-0.14466336,0.05627349,9.820344
69208701107328,-0.16848594,0.0694944,9.808712
69208720964457,-0.17597996,0.09941337,9.807766
69208740819946,-0.15908317,0.11008036,9.841499
69208760675435,-0.1893549,0.0701882,9.801941
69208780530924,-0.21052016,0.04048558,9.776024
69208800386413,-0.16793393,0.067330025,9.72376
69208820239612,-0.18239646,0.054643862,9.685704
69208840095101,-0.19426578,0.033120252,9.681111
69208859950590,-0.16461116,0.074566685,9.683759
69208879806079,-0.19747138,0.05989303,9.722541
69208899661568,-0.19774403,0.07093379,9.788902
69208919516929,-0.18194346,0.07468648,9.806669
69208939378396,-0.18443711,0.07062643,9.807161
69208959234120,-0.15349193,0.1296842,9.826123
69208979089737,-0.15443528,0.122240625,9.795812
69208998945354,-0.11874086,0.15245531,9.759274
69209018802861,-0.14066817,0.16110851,9.769185
69209038658606,-0.22511691,0.10535705,9.753144
69209058514351,-0.23846577,0.10018543,9.739124
69209078370096,-0.20692724,0.10034001,9.715586
69209098225841,-0.16518636,0.1547284,9.73556
69209118075868,-0.14732537,0.20731512,9.755206
69209137931485,-0.10232389,0.17531869,9.76753
69209157787230,-0.09104518,0.15599938,9.752053
69209177642847,-0.11909289,0.11432688,9.749535
69209197498592,-0.12189096,0.1501594,9.791349
69209217354209,-0.11692484,0.18856986,9.813363
69209237206528,-0.17583863,0.16881528,9.769143
69209257062145,-0.17646086,0.15327367,9.759922
69209276917762,-0.11736283,0.11049963,9.784483
69209296773379,-0.07834561,0.07465015,9.729057
69209316611618,-0.10379146,0.12597433,9.72576
69209336466723,-0.13559255,0.17899124,9.75612
69209356321828,-0.18476926,0.14053267,9.735304
69209376176933,-0.17885548,0.08950156,9.759952
69209396032038,-0.06645634,0.14115225,9.7922125
69209415890637,-0.043371357,0.19577292,9.770134
69209435745850,0.02151567,0.20517536,9.780633
69209455600955,-0.047150787,0.170985,9.740901
69209475456188,-0.08997421,0.20563819,9.786966
69209495311421,-0.07918688,0.22671285,9.775165
69209515166526,-0.0864414,0.18498492,9.7664385
69209535025185,-0.07017768,0.16020018,9.7511425
69209554880418,-0.087728605,0.18874843,9.746225
69209574735651,-0.12908393,0.18484832,9.780195
69209594590756,-0.10182113,0.16425337,9.717307
69209614441829,-0.10024165,0.14783007,9.739969
69209634297062,-0.12574105,0.14572619,9.804764
69209654152167,-0.18177967,0.17081526,9.770156
69209674007400,-0.12890029,0.17857225,9.759437
69209693862505,-0.08279985,0.15794812,9.769119
69209713717738,-0.09317413,0.19960298,9.805343
69209733576197,-0.062345143,0.23705636,9.777436
69209753431430,-0.08096818,0.19580434,9.739729
69209773286663,-0.13525276,0.14493547,9.719812
69209793141768,-0.14539963,0.109606534,9.753891
69209812997001,-0.101258986,0.15366016,9.819436
69209832849394,-0.1074503,0.18138403,9.797184
69209852704499,-0.17989798,0.16270898,9.7350445
69209872559732,-0.17840792,0.14171176,9.673154
69209892414837,-0.16379893,0.13324246,9.679161
69209912267273,-0.16189489,0.15125465,9.755623
69209932122378,-0.16888684,0.12534238,9.797615
69209951977355,-0.1009373,0.14011875,9.791273
69209971832460,-0.06911352,0.14596649,9.820261
69209991687437,-0.1357628,0.15647337,9.821657
69210011542542,-0.19454274,0.11694369,9.815207
69210031402543,-0.14337848,0.15358648,9.746893
69210051257648,-0.003498507,0.19024457,9.722866
69210071112753,0.03183891,0.18357198,9.746762
69210090967858,-0.095035456,0.17727965,9.727628
69210110823091,-0.12450011,0.15727784,9.745212
69210130683548,-0.08348837,0.21254201,9.7300005
69210150538781,-0.0739429,0.21483065,9.753491
69210170394014,-0.047645856,0.20271023,9.793555
69210190249247,-0.05742824,0.18418866,9.7658825
69210210112142,-0.048233517,0.18263163,9.797461
69210229967503,-0.02955147,0.17547323,9.851611
69210249822864,-0.037455335,0.1613043,9.786366
69210269678353,0.012665524,0.15575717,9.743344
69210289533714,-0.04106771,0.16055106,9.730525
69210309389075,-0.13489182,0.19531253,9.718869
69210329247422,-0.15430161,0.22292747,9.738961
69210349102911,-0.054387644,0.21086499,9.780118
69210368958400,-0.01133942,0.17648727,9.747905
69210388813866,-0.0018466882,0.14394373,9.758021
69210408669483,-0.010845972,0.1514796,9.77876
69210428521530,-0.10776765,0.17773052,9.739609
69210448376891,-0.14009571,0.1625622,9.743539
69210468232380,-0.089397475,0.13201448,9.779959
69210488087869,-0.03254673,0.12129699,9.790267
69210507943230,-0.029600391,0.1326685,9.770819
69210527798719,-0.09010585,0.14125681,9.7879095
69210547658584,-0.09322927,0.1524007,9.783334
69210567514201,-0.07416232,0.1591633,9.769236
69210587369818,-0.021931065,0.16800368,9.751349
69210607225435,-0.0181528,0.16150092,9.735437
69210627084612,-0.08645602,0.1433506,9.716542
69210646940357,-0.1320028,0.1628658,9.723707
69210666795974,-0.11369289,0.19278963,9.748991
69210686651719,-0.04408308,0.21069062,9.777671
69210706507464,-0.019902872,0.16811499,9.790359
69210726362361,-0.060485147,0.11822175,9.833196
69210746218106,-0.07620571,0.13042066,9.838537
69210766073723,-0.10661327,0.14787896,9.809041
69210785929468,-0.07828804,0.1489409,9.739629
69210805785085,-0.07534592,0.15552899,9.723577
69210825640830,-0.122686125,0.14331703,9.724896
69210845490589,-0.1309452,0.10855658,9.719837
69210865346186,-0.12797152,0.08235913,9.736307
69210885201675,-0.1390153,0.116467655,9.766021
69210905057292,-0.11581653,0.16016994,9.793973
69210924907509,-0.08322327,0.17918578,9.7854185
69210944762998,-0.09935581,0.16450065,9.785854
69210964618359,-0.18915036,0.10534525,9.772896
69210984473848,-0.105854034,0.1382855,9.754459
69211004329209,-0.06762994,0.16992556,9.787366
69211024185508,-0.13267812,0.14640793,9.772231
69211044040997,-0.16102217,0.1188247,9.767877
69211063896486,-0.15874054,0.089641474,9.764002
69211083751847,-0.13612978,0.08866589,9.752097
69211103607336,-0.12407229,0.12501153,9.725282
69211123462825,-0.10478472,0.12653486,9.766608
69211143318034,-0.12450299,0.1194314,9.758167
69211163173523,-0.16595967,0.106698245,9.755638
69211183029012,-0.13817164,0.13100572,9.760651
69211202884501,-0.13477081,0.12809636,9.749039
69211222731390,-0.106076,0.12708637,9.803141
69211242586623,-0.1452489,0.12508845,9.786241
69211262441856,-0.15499164,0.11825363,9.787569
69211282297089,-0.123033084,0.117112234,9.800179
69211302152322,-0.10169542,0.113310374,9.764405
69211322007683,-0.12804805,0.10539622,9.746322
69211341858016,-0.18740869,0.028554369,9.763446
69211361713121,-0.19854158,0.029751588,9.723145
69211381568354,-0.14511651,0.07413352,9.744433
69211401423459,-0.12809443,0.06578778,9.776775
69211421278692,-0.16397977,0.041046567,9.748661
69211441131469,-0.14963745,0.012976629,9.723228
69211460986446,-0.1596274,0.036804292,9.713174
69211480841551,-0.20254092,0.076814905,9.704583
69211500696656,-0.1822384,0.11003132,9.707788
69211520550901,-0.1687619,0.109857135,9.679722
69211540405878,-0.1533057,0.07972226,9.686514
69211560260983,-0.14675099,0.080075264,9.696812
69211580115960,-0.13359067,0.12861472,9.679531
69211599970937,-0.15659639,0.11528127,9.689618
69211619825914,-0.20098612,0.016813517,9.654404
69211639679331,-0.14204083,0.024044933,9.626664
69211659534308,-0.08795741,0.07437167,9.632291
69211679389285,-0.10623091,0.07496028,9.598784
69211699244262,-0.1777343,0.025095863,9.584177
69211719099239,-0.20227535,-0.0012632546,9.594015
69211738962006,-0.17166418,0.055577364,9.611018
69211758817111,-0.12818599,0.10478092,9.625663
69211778672216,-0.119860925,0.12494552,9.625242
69211798527321,-0.15315889,0.0936383,9.578998
69211818383282,-0.07756808,-0.13323924,9.566427
69211838238515,-0.064360015,-0.14707321,9.546357
69211858093620,-0.09831086,-0.13518162,9.496382
69211877948853,-0.14394437,-0.10492685,9.484078
69211897803958,-0.11402817,-0.1405463,9.480876
69211917659191,-0.08831771,-0.17172357,9.489277
69211937512540,-0.088792235,-0.16425505,9.516398
69211957367645,-0.111750565,-0.1323255,9.537871
69211977222750,-0.10591289,-0.09112773,9.5336075
69211997077855,-0.10149924,-0.084683105,9.456618
69212016932960,-0.07962503,-0.09633255,9.435885
69212036790255,-0.038903166,-0.12565452,9.508334
69212056645360,-0.04885045,-0.08714982,9.461813
69212076500465,-0.072248705,-0.07530448,9.428534
69212096355698,-0.08406007,-0.15708266,9.419968
69212116210803,-0.11162797,-0.22906803,9.445441
69212136065908,-0.11939599,-0.20160773,9.425689
69212155921641,-0.09518565,-0.16883306,9.4001665
69212175776746,-0.023413962,-0.17897636,9.318348
69212195631979,-0.03701164,-0.17086844,9.262369
69212215487084,-0.13981794,-0.13443233,9.275916
69212235350423,-0.13593778,-0.22038747,9.311708
69212255205656,-0.08026053,-0.27282634,9.29561
69212275061017,-0.09255326,-0.182712,9.319436
69212294916357,-2.953787E-4,-0.1462534,9.345128
69212314771718,-0.01692406,-0.16596924,9.359702
69212334629297,-0.00660081,-0.16731946,9.329115
69212354484658,0.002204179,-0.12637283,9.280021
69212374340147,0.02693697,-0.13646983,9.215863
69212394195508,0.007324158,-0.16647351,9.174937
69212414050997,0.007096682,-0.20670363,9.166697
69212433906486,0.023320196,-0.20249777,9.203492
69212453767333,0.01838356,-0.18414403,9.276216
69212473622822,-0.014816975,-0.16843438,9.220624
69212493478439,-0.09493974,-0.15953107,9.1849375
69212513333928,-0.08262696,-0.11773669,9.2193165
69212533192915,-0.0460407,-0.165534,9.19758
69212553048532,-0.03469505,-0.18881346,9.242006
69212572904149,-0.044195745,-0.19262674,9.349988
69212592759766,-0.07280235,-0.19873448,9.289406
69212612615383,-0.060785957,-0.17005976,9.146295
69212632470860,-0.055702526,-0.110298365,9.089675
69212652326605,-0.042350125,-0.14430326,9.123063
69212672182222,-0.02973424,-0.20805643,9.098442
69212692037967,-0.0014576438,-0.21224815,9.101419
69212711893584,-0.0019790302,-0.1949304,9.1769905
69212731749201,0.017837616,-0.2287272,9.264874
69212751605122,-0.03722726,-0.26472473,9.321016
69212771460847,0.036263276,-0.24430037,9.33777
69212791316464,0.023590658,-0.16255373,9.258192
69212811172209,-0.0027892475,-0.12641543,9.174744
69212831021586,-0.009769378,-0.14057016,9.164701
69212850877203,0.11798952,-0.1608273,9.127296
69212870732820,0.2379315,-0.1465091,9.093999
69212890588309,0.20078255,-0.1439517,9.106507
69212910443926,0.15092137,-0.11705935,9.145533
69212930299543,0.12823847,-0.12078935,9.2105465
69212950155616,0.120809674,-0.1537273,9.253002
69212970011105,0.0701132,-0.1340818,9.266264
69212989866594,0.04656798,-0.11835368,9.239893
69213009722211,0.05140967,-0.11035325,9.229248
69213029577700,0.07878142,-0.13291268,9.212887
69213049430415,0.16147856,-0.1480572,9.1933155
69213069285904,0.22006564,-0.14316495,9.199392
69213089141393,0.15153386,-0.11918852,9.174386
69213108996882,0.09871189,-0.07723102,9.138248
69213128842997,0.08243268,-0.09129108,9.111115
69213148698358,0.13241687,-0.112869024,9.136494
69213168553591,0.16737048,-0.123850904,9.161381
69213188408952,0.16513303,-0.16205558,9.1882305
69213208264313,0.138535,-0.13490617,9.1981535
69213228119674,0.12915978,-0.10995856,9.217488
69213247968333,0.1605106,-0.100789845,9.184743
69213267823438,0.15499128,-0.12848401,9.206429
69213287678543,0.13244508,-0.15219997,9.216957
69213307533776,0.13063298,-0.13177705,9.155024
69213327388881,0.096360154,-0.10653319,9.123785
69213347238654,0.13212617,-0.1112371,9.13693
69213367093759,0.20140716,-0.14006045,9.1571665
69213386948864,0.18468247,-0.17662744,9.177366
69213406803969,0.12428007,-0.17250457,9.19133
69213426659690,0.08300905,-0.11417299,9.200565
69213446514667,0.08028357,-0.11361473,9.217778
69213466369772,0.10819969,-0.14949699,9.198367
69213486224749,0.15104689,-0.14385146,9.188972
69213506079854,0.16412382,-0.14082606,9.164952
69213525934831,0.13073121,-0.14040793,9.182647
69213545787730,0.12580265,-0.12271082,9.183623
69213565642707,0.121881954,-0.086453564,9.1588335
69213585497684,0.12063504,-0.07998266,9.1527605
69213605352661,0.08999775,-0.11756354,9.168123
69213625207510,0.084691636,-0.14017415,9.181013
69213645061519,0.11200688,-0.12505531,9.185848
69213664916368,0.102155544,-0.11203221,9.205526
69213684771345,0.10729141,-0.10227479,9.17803
69213704626194,0.09680856,-0.119154915,9.172586
69213724481020,0.1350759,-0.080768384,9.20098
69213744335997,0.16047534,-0.07765716,9.205019
69213764193490,0.16339308,-0.083133526,9.179527
69213784048339,0.17170998,-0.10700146,9.162656
69213803903188,0.17622192,-0.10114413,9.161014
69213823758165,0.18363148,-0.0982788,9.1391945
69213843619140,0.17519431,-0.09779876,9.142176
69213863474117,0.1549032,-0.09900547,9.186916
69213883329222,0.13696752,-0.075240545,9.218911
69213903184199,0.14594541,-0.111343004,9.146238
69213923039304,0.17481577,-0.08205416,9.169353
69213942896445,0.17483209,-0.083710894,9.254317
69213962751550,0.16075516,-0.11161522,9.220898
69213982606527,0.12514733,-0.09638681,9.2158
69214002461632,0.11810015,-0.06738501,9.233516
69214022316609,0.12650748,-0.117338486,9.24611
69214042171586,0.07165355,-0.19257015,9.235743
69214062036327,0.12671171,-0.13452667,9.255226
69214081891560,0.21577686,-0.0034749985,9.268769
69214101746793,0.16799864,-0.019938665,9.270887
69214121602026,0.04749,-0.17108779,9.277414
69214141462939,0.097260095,-0.12322373,9.312432
69214161318300,0.17668726,-0.028086144,9.300634
69214181173789,0.14411613,-0.0707108,9.282661
69214201029130,0.1066832,-0.087994635,9.331201
69214220884619,0.1318292,-0.046871115,9.358814
69214240740406,0.13726027,-0.0764698,9.36305
69214260595895,0.15021704,-0.124914885,9.370843
69214280451384,0.1866652,-0.088364735,9.411593
69214300306745,0.15530798,-0.0905345,9.432577
69214320162234,0.10653995,-0.11689387,9.413833
69214340017723,0.10844155,-0.11444156,9.382484
69214359872286,0.13869779,-0.06158102,9.358263
69214379727775,0.19405942,-0.064212844,9.3691025
69214399583264,0.20117606,-0.08365323,9.4042425
69214419438753,0.18019259,-0.093903884,9.447547
69214439292652,0.18230145,-0.08498268,9.4855175
69214459148141,0.132846,-0.104474284,9.514296
69214479003630,0.10154031,-0.12631218,9.519653
69214498859119,0.12791389,-0.13446054,9.514212
69214518714480,0.15217926,-0.123149775,9.514738
69214538569969,0.16949692,-0.12485356,9.51584
69214558432738,0.17107186,-0.11701431,9.49276
69214578288483,0.14651428,-0.09065152,9.513461
69214598144100,0.14540707,-0.10428997,9.530624
69214617999717,0.16241458,-0.0731263,9.493656
69214637855462,0.14905573,-0.040381204,9.514803
69214657711635,0.1482518,-0.071781084,9.572681
69214677567359,0.13787553,-0.13771684,9.632237
69214697423104,0.11889018,-0.1507196,9.653346
69214717278849,0.10384391,-0.111694895,9.653798
69214737130224,0.13951914,-0.081737794,9.663577
69214756985841,0.17301874,-0.11486969,9.679819
69214776841458,0.15406178,-0.15879859,9.668861
69214796697075,0.1195597,-0.14547378,9.654191
69214816552692,0.13653,-0.10045591,9.619197
69214836408309,0.1586005,-0.048583925,9.619098
69214856257752,0.14483753,-0.041432623,9.660308
69214876113241,0.18041994,-0.055502534,9.69913
69214895968730,0.18237261,-0.082129836,9.740733
69214915824219,0.14264108,-0.12114933,9.756505
69214935679708,0.12820788,-0.11944297,9.750555
69214955530565,0.12707333,-0.0809211,9.749894
69214975385926,0.12359729,-0.072698034,9.749114
69214995241287,0.12482801,-0.0910692,9.726406
69215015096648,0.14416097,-0.07886867,9.710006
69215034954351,0.16778733,-0.063195825,9.689009
69215054809840,0.1862081,-0.0026997009,9.685776
69215074665201,0.18467358,-0.029616853,9.72515
69215094520562,0.14173138,-0.09692922,9.729032
69215114375923,0.09799568,-0.0787693,9.725611
69215134231284,0.07332223,-0.06835779,9.680488
69215154083537,0.10325661,-0.089692906,9.705089
69215173938770,0.20882715,-0.1214201,9.757862
69215193794131,0.17304532,-0.104988135,9.733236
69215213649364,0.1448836,-0.09156649,9.727209
69215233504725,0.011114215,-0.21938996,9.812527
69215253355748,0.0737822,-0.22027524,9.807063
69215273210981,0.26937005,-0.03176718,9.746952
69215293066086,0.13451217,-0.04885196,9.745158
69215312921319,-0.0037217885,-0.11644593,9.70758
69215332776424,0.016929323,-0.111278154,9.675896
69215352631657,0.009750089,-0.1501349,9.74472
69215372481884,0.08301601,-0.070110224,9.789959
69215392336861,0.21580355,0.031834025,9.8266945
69215412191966,0.13655591,-0.0066363304,9.825795
69215432047071,-0.0050457153,-0.1539715,9.752012
69215451900744,0.05278444,-0.17584814,9.718608
69215471755849,0.21102966,-0.14576674,9.731429
69215491610826,0.3449951,-0.08559194,9.780043
69215511465931,0.24988934,-0.1981073,9.7835245
69215531320908,0.19816904,-0.24466552,9.731174
69215551183035,0.2953487,-0.21193616,9.749706
69215571038268,0.32971016,-0.1140554,9.780464
69215590893373,0.31588635,-0.023401922,9.780446
69215610748606,0.21495654,-0.039226316,9.828493
69215630603690,0.0892232,-0.1251907,9.847517
69215650458923,0.14285098,-0.099584654,9.756591
69215670318496,0.25662988,-0.10561888,9.707812
69215690173729,0.31265935,-0.1563674,9.75647
69215710028962,0.33737797,-0.22190204,9.779783
69215729884323,0.30647302,-0.28042942,9.802544
69215749742152,0.057912994,-0.12842982,9.760889
69215769597513,-0.0903598,0.029497294,9.726996
69215789452874,0.028148726,0.052140478,9.731919
69215809308235,0.25262803,-0.16559213,9.7654
69215829163596,0.34020194,-0.3161067,9.691834
69215849016049,0.29622823,-0.22529732,9.705855
69215868871410,0.12562238,0.092469186,9.794836
69215888726643,-0.26508856,0.3667289,9.875805
69215908582004,-0.03991418,0.1920051,9.948745
69215928437237,0.21321312,0.049856227,9.738417
69215948292598,-0.450842,0.3500309,9.656258
69215968149153,-0.42823532,0.5296113,9.824127
69215988004514,0.83672595,0.278336,10.038214
69216007859747,0.48210406,0.19862065,9.616598
69216027715108,-0.42969513,-0.23954783,9.767467
69216047570341,0.4386163,-0.36368755,9.8533125
69216067427294,0.7928967,-0.1625128,9.731447
69216087282527,-0.18561074,-0.39891693,9.688581
69216107137868,-0.2680377,-0.46751204,9.920514
69216126993229,0.41695157,-0.31915653,9.6794405
69216146848462,0.1187987,-0.35623077,9.607076
69216166700547,-0.17735964,-0.49777755,9.656586
69216186555780,0.040032,-0.11432295,9.5644
69216206411141,-0.008430593,0.22444765,9.147494
69216226266374,-0.22402424,0.7304895,9.590074
69216246121735,-0.49806163,0.29915723,10.988861
69216265982192,-0.8620987,-1.4098351,10.700943
69216285837681,0.69319403,-0.7157829,9.568939
69216305693042,0.6509569,0.24009554,9.16193
69216325548531,-0.47838736,0.40591347,9.259625
69216345403892,-0.5603251,0.18220219,9.698036
69216365259813,-0.19805823,-0.069986545,9.872501
69216385115174,0.0854962,-0.17887019,9.871479
69216404970663,0.0073616575,-0.4364068,9.928458
69216424826152,0.18928343,-0.43034515,9.939149
69216444681513,0.32730195,-0.20388585,9.905569
69216464531608,0.5236712,-0.4577708,9.716917
69216484386969,0.7555001,-0.58977216,9.670241
69216504242330,0.71564275,-0.3891923,9.683186
69216524097563,0.34210056,0.100331716,9.528466
69216543952924,0.54777014,0.23065577,9.321055
69216563811899,1.2776886,0.6305586,10.237487
69216583667239,0.2804234,0.03505994,10.824627
69216603522600,-0.4092609,0.04677764,9.656279
69216623377961,0.36183724,0.36804655,9.30374
69216643233322,0.2155491,0.40701002,9.593393
69216663091725,-0.2512532,0.17089233,9.860838
69216682947214,-0.5194378,0.05054252,9.996095
69216702802703,-0.38608843,0.26808307,10.07836
69216722658192,-0.20960398,0.53704417,9.5815525
69216742513681,-0.08844026,-0.12424482,9.45489
69216762372602,-0.20136462,-0.79028213,9.754817
69216782228091,0.31034756,-0.1495962,10.025373
69216802083708,0.22432151,-0.2995726,9.512998
69216821939197,-0.5322477,-0.31819662,9.652349
69216841794814,0.2463934,-0.6565454,9.88973
69216861650829,0.16572382,-0.2324105,9.886814
69216881506446,-0.195646,-0.4528823,9.4723015
69216901361935,0.104673475,-0.41329,9.885145
69216921217552,-0.099383585,-0.26939335,10.020034
69216941073169,-0.18709756,-0.15726057,9.754201
69216960919790,0.22417349,-0.10868956,9.493703
69216980775151,0.37208524,-0.19990127,9.661927
69217000630512,0.22971313,-0.20041992,9.966455
69217020485873,0.28036508,-0.09705037,9.812932
69217040341234,0.25761876,-0.035227127,9.636326
69217060195013,0.50531614,-1.2536609,9.49188
69217080050374,0.4784045,-1.3877107,9.770147
69217099905607,0.7134438,-1.1439153,9.834876
69217119760840,0.54767823,-1.2891326,9.633122
69217139616201,0.46192753,-0.8887094,9.548221
69217159467642,0.57487506,-1.2034425,10.058984
69217179322875,0.21425724,-1.1128314,10.307228
69217199178108,0.50844896,-0.44349793,10.45934
69217219033341,-1.1672606,1.2384636,9.655603
69217238888574,-0.7872471,0.08092401,8.779207
69217258743935,-1.1839169,-0.47644684,8.798079
69217278597096,-1.7765692,-1.2982152,9.827887
69217298452329,-1.1355479,-3.2512176,11.88188
69217318307434,-1.3633049,-2.515001,11.604405
69217338162667,-1.1600668,-1.4389589,8.968071
69217358017900,1.0682635,-1.4009181,7.815566
69217377871951,1.7780032,-1.9646353,8.310689
69217397727056,1.3126279,-2.2291179,7.6123743
69217417582289,2.5249236,-0.5889282,7.553685
69217437437522,2.5725336,3.6226954,14.72609
69217457292627,-2.2305086,4.9734473,15.783189
69217477144966,-2.5427496,7.120537,11.112675
69217497000071,3.468311,1.9390574,2.8459895
69217516855176,6.2526546,-0.20095098,10.558117
69217536710258,-1.1345892,-3.519792,10.450971
69217556565363,-2.5418663,-3.5564995,10.594258
69217576419164,-3.408618,-5.8389974,8.60397
69217596274269,-1.6243788,-5.1213317,6.731048
69217616129374,3.7448323,-0.4318466,9.032382
69217635984479,3.9217122,1.4274246,10.765068
69217655839584,-0.976664,1.9215881,11.77212
69217675691739,-1.5493009,-0.7802852,7.0877433
69217695546844,0.74292606,-1.6378506,3.6892
69217715401821,-1.3213917,-1.6264746,11.573583
69217735256798,0.36293843,1.9077158,15.196451
69217755111903,2.4301398,5.010729,14.334003
69217774966678,2.7191522,7.18005,7.4312
69217794821655,1.4986455,4.7275157,9.39583
69217814676504,0.32305753,1.3191947,11.808134
69217834531481,1.7934289,4.0573244,13.837749
69217854386458,3.2994604,-3.2872894,12.029616
69217874238795,0.9880158,-8.981222,7.4466605
69217894093644,-1.3197567,-4.3898263,6.231081
69217913948621,-1.5310227,0.07436604,9.907646
69217933803598,-5.154044,-6.285804,6.2283607
69217953658447,-5.1353374,-7.4987254,6.510803
69217973511296,-2.6389027,-7.502636,6.685606
69217993366273,0.4341818,-7.1837096,1.5293367
69218013221101,3.2287912,-3.3539035,5.7328763
69218033075950,2.7766807,1.9431868,9.292563
69218052930799,-3.6546686,8.726803,8.823504
69218072793622,-2.6346328,4.9472528,14.7238035
69218092648599,-3.4909103,3.453974,15.852337
69218112503576,2.2664666,-0.7875732,11.693625
69218132358553,3.3288946,-2.230968,8.779218
69218152213530,-1.5174158,-0.7596392,8.583358
69218172066703,0.9280461,1.5794495,7.3443933
69218191921680,3.134215,-1.4092762,8.477298
69218211776529,-0.6691133,-7.5603766,9.424085
69218231631506,0.4872818,-3.739138,10.705525
69218251486483,4.017882,5.7328844,11.47809
69218271346946,1.8808339,2.1269233,9.814241
69218291202051,6.058548,-0.3501182,14.788031
69218311057028,3.1254625,2.6290426,13.4696
69218330912133,1.4423999,7.3298144,11.065341
69218350767110,-3.6879241,7.1590376,11.832833
69218370623867,-2.5554762,2.2683487,11.643751
69218390478972,-0.086148344,1.0798761,12.711633
69218410334205,0.09110018,-1.2929451,12.58656
69218430189310,-2.918664,-2.1257586,14.069659
69218450044415,0.4753205,0.11110934,11.617217
69218469904634,-7.5021915,-1.625996,14.010663
69218489759843,13.645816,-6.2615447,5.033351
69218509615204,3.2648034,-4.868289,6.2324705
69218529470437,7.481641,-0.6881747,5.1694584
69218549325670,12.008151,0.8293949,7.3292456
69218569181719,1.9090254,-0.18356356,8.404016
69218589037080,-1.1479858,-1.4952394,6.706477
69218608892313,-2.457477,1.769253,9.571746
69218628747546,-1.5082648,4.598066,10.861065
69218648602907,-1.1999424,7.33419,7.1388593
69218668459926,-5.436535,18.641857,7.4231462
69218688315287,-8.367358,10.989769,11.437785
69218708170648,-7.9437833,-1.1711502,10.014004
69218728026009,-9.661229,-7.4428926,9.119112
69218747881370,-13.425003,-9.579707,10.28933
69218767732417,-11.383699,-9.968416,9.111428
69218787587650,-8.65277,-10.599595,4.8689585
69218807442883,-7.0331564,-10.905861,0.8985841
69218827298116,-2.4418848,-9.979293,-2.5055315
69218847153349,15.120926,-16.007086,-3.2621264
69218867007616,9.764256,-11.222688,1.0874928
69218886862849,4.0941606,-6.888815,7.1740127
69218906718082,1.7998227,-5.9276733,4.5702677
69218926573315,1.3985063,-3.1374686,2.5149043
69218946428548,2.1838593,-2.551233,1.0629712
69218966285991,-0.9685419,1.0522754,3.069786
69218986141224,-0.45324162,-0.01519712,1.434552
69219005996583,-3.2613006,-1.6480502,3.4591587
69219025851815,-2.7843237,0.16830045,2.8112085
69219045707175,-2.3392913,-0.86440295,2.69772
69219065569563,-3.849411,-0.97041005,4.8273563
69219085425051,-2.0929706,-3.38153,8.000381
69219105280539,-2.4067428,-1.845819,9.918758
69219125135899,-1.9008881,-4.2734795,12.647767
69219144991387,-0.95564824,-7.4802737,12.607091
69219164842383,-2.1584022,-4.981154,14.542918
69219184697743,1.0110383,-3.7349875,10.350289
69219204553103,2.223829,-0.11061139,6.359168
69219224408335,4.004423,1.718396,11.6664295
69219244263695,6.18135,1.8438107,13.155163
69219264115008,2.7245555,0.6531623,10.933152
69219283970368,0.06038965,0.48567438,10.293101
69219303825600,1.0086379,1.1326702,11.028731
69219323680832,2.048103,0.68652785,10.226621
69219343536064,0.9041471,0.9659569,9.500159
69219363391296,-0.59540194,-0.7358644,10.366386
69219383247595,-2.1871526,-2.4088929,11.249669
69219403102955,-0.3425027,-0.44337127,9.305156
69219422958187,1.7246016,1.9440272,8.552954
69219442813547,1.3750813,1.7722425,8.542448
69219462668779,0.49562925,-0.08568438,8.808543
69219482518424,-0.20355739,-1.2239808,10.408934
69219502373657,-0.25051,-1.7117805,10.743502
69219522228759,0.40565202,-0.29591143,9.021464
69219542083992,0.13337356,0.79649484,8.801709
69219561939097,0.170444,0.76372135,8.914076
69219581800212,0.2001069,0.25381228,9.033575
69219601655445,0.4605221,0.115272045,9.153716
69219621510545,0.697892,0.67681396,9.951535
69219641365777,-0.014388086,-0.5879088,9.759464
69219661221009,-1.1643096,-1.4225323,9.121031
69219681074193,-2.0607538,-2.3592088,7.9427
69219700929425,0.84445024,-0.09782308,10.802692
69219720784785,3.8029547,1.3146818,10.770407
69219740640017,0.082739025,0.4108649,8.840345
69219760495249,-1.1968125,0.4630915,9.632321
69219780345477,0.35647306,-0.91327643,9.510772
69219800200581,-0.015201779,0.4827537,9.0092945
69219820055685,0.6410122,0.08421676,9.220234
69219839910789,2.1462202,-0.3523346,10.363936
69219859765893,3.1740773,1.8782969,10.117634
69219879625203,-1.2969297,1.3391122,5.9820347
69219899480435,-1.1573768,-1.4960791,6.583972
69219919335667,-0.21236324,-4.6044593,10.884138
69219939190771,1.6281652,-3.7157655,11.422198
69219959046832,0.9735812,-2.458585,11.018044
69219978902065,-1.2304683,-2.068813,9.164554
69219998757296,1.0849679,-0.34432885,7.962018
69220018612528,-0.23797895,0.71539766,10.584645
69220038467761,-1.3979892,1.4625964,10.660596
69220058331928,1.3992219,1.4679062,8.529694
69220078187288,2.5841656,1.9525076,6.3838353
69220098042649,2.9614968,2.678206,5.9515047
69220117898008,2.389718,0.24504392,5.9459505
69220137753496,1.3580381,-3.68347,11.277592
69220157608857,2.2196386,-3.992408,14.841134
69220177462702,2.6860301,0.36367902,12.205238
69220197318062,-0.0122096045,-0.6457205,13.075446
69220217173551,-3.4546182,-3.8106267,16.063898
69220237028910,-3.6264374,-4.9026694,14.012019
69220256886107,-0.8146497,-2.980248,10.241303
69220276741596,2.8282456,1.0086588,12.249559
69220296596955,2.8238425,2.7225056,13.924298
69220316452443,0.3753774,0.9829472,9.521822
69220336307804,-1.562774,-1.2287477,8.753807
69220356158941,0.16095689,-0.6856361,8.582042
69220376014301,0.03566065,0.2761455,8.107611
69220395869662,-0.32449824,-0.050759792,8.340406
69220415725021,-1.7726278,-0.36815044,8.461141
69220435580253,0.50927305,0.078664295,9.060563
69220455435614,1.0091736,-0.20290807,10.664701
69220475289860,0.36082086,-0.12083441,10.278496
69220495145092,0.21965794,-0.24925081,9.319941
69220515000453,0.23692124,0.43182525,8.918579
69220534855684,0.6338656,1.3916516,9.163399
69220554719157,1.8836106,1.1877608,9.452789
69220574574646,1.5346949,1.0064851,9.431044
69220594430855,0.7292681,0.21889561,9.389434
69220614286343,0.3440468,-0.42476732,9.513882
69220634141704,0.015921593,-1.0764117,9.477641
69220653997191,-0.26302272,-1.105648,9.084683
69220673816473,-0.033311605,-0.6750141,9.145445
69220693671322,0.35556784,-0.48501006,10.076397
69220713526169,0.3948248,-0.5069224,10.5963335
69220733381017,0.06589767,-0.39434594,10.152713
69220753235866,0.6307737,-0.08225645,9.350315
69220773103647,0.6374763,-0.12040008,9.428368
69220792958751,0.15723558,-0.043025002,10.015482
69220812813728,0.3147027,-0.5071832,10.28392
69220832668831,0.3171304,-0.7371373,10.495698
69220852527264,0.35678145,-0.469973,10.556624
69220872382369,0.5141129,-0.2326968,9.768256
69220892237472,0.15356174,-0.19896768,9.043735
69220912092576,-0.2529947,-0.32310274,9.248405
69220931947553,-0.47638124,-0.68495625,9.631598
69220951802656,-0.16852984,-0.82540673,9.581538
69220971659266,0.13417432,-0.3800573,9.472959
69220991514371,0.2916399,-0.09913405,9.59226
69221011369474,0.52972513,0.034215223,9.447252
69221031224578,0.45336232,0.03714477,9.43023
69221051079683,0.35183987,-0.187991,9.750803
69221070940468,0.5142869,-0.3296411,10.279029
69221090795572,0.48498172,-0.32487178,10.123184
69221110650805,0.4412861,-0.041509252,9.796414
69221130505908,0.32328475,-0.00699666,9.643901
69221150366735,-0.15479381,-0.6302702,9.521634
69221170222096,-0.07192031,-0.5519187,9.371711
69221190077455,0.41389945,-0.13028646,9.789992
69221209932815,0.49082494,-0.010144743,9.85472
69221229788048,0.27086523,-0.21403344,9.618108
69221249643407,0.15112075,-0.35708824,9.652234
69221269499864,0.39967743,-0.32058632,9.896787
69221289355097,0.49061358,-0.26531905,10.205984
69221309210456,0.51043236,-0.24762148,10.168758
69221329065688,0.48902586,-0.29833263,9.96341
69221348921049,-0.4016764,-0.49185,9.243276
69221368772237,-0.25484368,-0.56650066,9.375531
69221388627469,0.38161254,-0.3473207,9.853637
69221408482574,0.5541875,-0.08643501,9.984808
69221428337805,0.5477337,-0.60942423,10.559806
69221448191214,0.60367835,-0.25477865,10.884711
69221468046319,0.28193265,0.26404923,9.8029375
