UPTIMENANO,Ax,Ay,Az
81586022428358,-2.792593,9.237591,-0.77359134
81586042282055,-2.8141482000000004,9.309442,-0.78556645
81586062135622,-2.7758276,9.438772,-0.7664063
81586081990317,-2.794988,9.508227999999999,-0.8214916999999999
81586101844014,-2.799778,9.438772,-0.80233157
81586121697709,-2.7399025000000004,9.426797,-0.83586186
81586141551405,-2.7614577000000002,9.295072,-0.84065187
81586161405102,-2.8668384999999996,9.287886,-0.82388675
81586181261698,-2.818938,9.297466,-0.7232959
81586201115523,-2.8907887999999997,9.333391,-0.79993653
81586220969220,-2.811753,9.505833,-0.8167017
81586240823045,-2.8141482000000004,9.496253,-0.87178713
81586260676866,-2.802173,9.426797,-0.7927515
81586280530563,-2.7255323,9.216036,-0.8214916999999999
81586300387249,-2.8428883999999996,9.196876,-0.78556645
81586320241073,-2.8812087,9.436378,-0.81191164
81586340094898,-2.8165430000000002,9.489068,-0.7664063
81586359948721,-2.7518775,9.510622999999999,-0.8047266
81586379808378,-2.7734327000000003,9.417216999999999,-0.8430469
81586399662459,-2.6369166,9.438772,-0.8885523000000001
81586419516538,-2.7399025000000004,9.285491,-0.81909674
81586439370618,-2.7375073,9.309442,-0.68737066
81586459224571,-2.907554,9.290281,-0.76880133
81586479082644,-2.823728,9.462723,-0.728086
81586498936853,-2.7087672,9.340575999999999,-0.87418216
81586518791062,-2.7399025000000004,9.4507475,-0.7879615
81586538645143,-2.6512868,9.347761,-0.8286768
81586558499346,-2.7686427000000005,9.381292,-0.728086
81586578353555,-2.7686427000000005,9.433982,-0.7759864000000001
81586598206177,-2.8428883999999996,9.395662,-0.7089258
81586618060385,-2.804568,9.445957,-0.7496411000000001
81586637914594,-2.7111623,9.378897,-0.76401126
81586657768929,-2.7446926,9.393267,-0.732876
81586677617140,-2.7710377999999998,9.388477,-0.76401126
81586697471349,-2.7399025000000004,9.280700999999999,-0.76880133
81586717325428,-2.8165430000000002,9.362132,-0.69695073
81586737179636,-2.7806177000000005,9.441168,-0.7496411000000001
81586757033717,-2.7446926,9.433982,-0.73527104
81586776883894,-2.7686427000000005,9.390872,-0.7424561
81586796737974,-2.787803,9.326205999999999,-0.73527104
81586816592055,-2.7207422,9.338181500000001,-0.76161623
81586836446006,-2.7351123999999998,9.390872,-0.7496411000000001
81586856300086,-2.7758276,9.462723,-0.68976563
81586876154039,-2.7686427000000005,9.419611999999999,-0.66342044
81586895995019,-2.7327175,9.407638,-0.7113208000000001
81586915848715,-2.7518775,9.400452,-0.73527104
81586935702412,-2.668052,9.400452,-0.76880133
81586955552619,-2.7327175,9.426797,-0.73527104
81586975409826,-2.7327175,9.393267,-0.6849755999999999
81586995263523,-2.7231374,9.414823,-0.6993457
81587015117220,-2.7638526000000003,9.366921000000001,-0.6849755999999999
81587034970914,-2.7662477,9.383687,-0.73527104
81587054824611,-2.7518775,9.390872,-0.7448511
81587074678306,-2.6488917,9.369317,-0.6682104999999999
81587094533398,-2.699187,9.292676,-0.7089258
81587114387095,-2.7446926,9.345366499999999,-0.69695073
81587134240790,-2.811753,9.493857,-0.7496411000000001
81587154094487,-2.7590625,9.560919,-0.66342044
81587173948312,-2.7614577000000002,9.541758999999999,-0.7113208000000001
81587193802765,-2.7183473,9.244776,-0.68976563
81587213656462,-2.7566676,9.251961,-0.70174074
81587233510159,-2.7830129,9.239985,-0.7113208000000001
81587253363984,-2.7830129,9.412427000000001,-0.67539555
81587273219173,-2.8572583,9.498648,-0.6825806
81587293072998,-2.7422974,9.477093,-0.67539555
81587312926695,-2.8309132999999997,9.422008,-0.8334668
81587332780392,-2.7710377999999998,9.419611999999999,-0.66342044
81587352634089,-2.7207422,9.206455,-0.7041358
81587372487914,-2.7973828,9.172925,-0.6394701999999999
81587392340895,-2.8213332,9.292676,-0.7185059
81587412194592,-2.8524685,9.493857,-0.7232959
81587432048289,-2.7854077999999998,9.596844,-0.67539555
81587451902114,-2.7183473,9.465117,-0.7113208000000001
81587471755811,-2.6872119999999997,9.352551,-0.6945557
81587491617756,-2.6824220000000003,9.302257,-0.7376661
81587511471709,-2.7351123999999998,9.366921000000001,-0.6945557
81587531325534,-2.8333082000000003,9.429193,-0.60833496
81587551179487,-2.7375073,9.395662,-0.6610254
81587571031926,-2.7183473,9.501043,-0.73527104
81587590885751,-2.6656568,9.429193,-0.80233157
81587610739683,-2.7470875,9.345366499999999,-0.73527104
81587630593508,-2.7087672,9.256751,-0.68976563
81587650447461,-2.703977,9.242381,-0.7089258
81587670301286,-2.7901978,9.390872,-0.73048097
81587690153449,-2.7327175,9.441168,-0.69695073
81587710007274,-2.7854077999999998,9.532178,-0.74724615
81587729861099,-2.7015822,9.522598,-0.7664063
81587749714917,-2.675237,9.436378,-0.8430469
81587769568870,-2.8333082000000003,9.328602,-0.7927515
81587789430180,-2.7734327000000003,9.24717,-0.69695073
81587809284132,-2.7830129,9.242381,-0.7185059
81587829138085,-2.804568,9.378897,-0.7209009
81587848992164,-2.7303224,9.4435625,-0.8382569
81587868848946,-2.7758276,9.544153,-0.8095166
81587888703027,-2.680027,9.422008,-0.7951465
81587908557106,-2.7279273999999996,9.211246000000001,-0.8310718
81587928411186,-2.8524685,9.302257,-0.85023195
81587948265267,-2.8572583,9.460327000000001,-0.8047266
81587968119346,-2.8141482000000004,9.484278,-0.7496411000000001
81587987980314,-2.8620484,9.390872,-0.7592211999999999
81588007834523,-2.8692336,9.369317,-0.8646021
81588027688730,-2.7662477,9.354947,-0.9364527
81588047543066,-2.806963,9.242381,-0.8478370000000001
81588067397275,-2.8668384999999996,9.283096,-0.78556645
81588087248172,-2.8883936,9.410032000000001,-0.7831714
81588107102380,-2.792593,9.484278,-0.87178713
81588126956589,-2.8476784,9.417216999999999,-0.8646021
81588146810926,-2.794988,9.328602,-0.852627
81588166665135,-2.8548633999999997,9.239985,-0.8430469
81588186519344,-2.8141482000000004,9.261541000000001,-0.79754156
81588206377967,-2.8261232000000005,9.235196,-0.8334668
81588226232303,-2.799778,9.453142,-0.76880133
81588246086640,-2.7494826,9.520203,-0.84065187
81588265940847,-2.802173,9.474698,-0.8214916999999999
81588285796762,-2.818938,9.390872,-0.80712163
81588305651099,-2.8309132999999997,9.369317,-0.8167017
81588325505436,-2.8093581000000003,9.333391,-0.7592211999999999
81588345359773,-2.7901978,9.275911,-0.7496411000000001
81588365214110,-2.823728,9.342972,-0.7879615
81588385066137,-2.7782228,9.407638,-0.84544194
81588404920474,-2.792593,9.417216999999999,-0.82388675
81588424774811,-2.8476784,9.412427000000001,-0.7831714
81588444629148,-2.7734327000000003,9.357342,-0.8095166
81588464483485,-2.8261232000000005,9.364527,-0.81191164
81588484337694,-2.8285182,9.390872,-0.728086
81588504180755,-2.7854077999999998,9.350157000000001,-0.7185059
81588524034708,-2.8285182,9.431587,-0.71371585
81588543888789,-2.7566676,9.422008,-0.7448511
81588563742870,-2.802173,9.431587,-0.7927515
81588583587705,-2.806963,9.362132,-0.7711963000000001
81588603441658,-2.794988,9.345366499999999,-0.76161623
81588623295483,-2.8955786,9.350157000000001,-0.6849755999999999
81588643149436,-2.8093581000000003,9.374106,-0.67539555
81588663003261,-2.8165430000000002,9.388477,-0.8095166
81588682855470,-2.8309132999999997,9.422008,-0.7544312
81588702709295,-2.7063723,9.24717,-0.7496411000000001
81588722563120,-2.7422974,9.256751,-0.7376661
81588742416945,-2.7614577000000002,9.342972,-0.7448511
81588762270875,-2.818938,9.4507475,-0.7209009
81588782124700,-2.7279273999999996,9.5633135,-0.63707525
81588801975220,-2.5914113999999997,9.541758999999999,-0.6730005
81588821828916,-2.675237,9.431587,-0.6993457
81588841682741,-2.6656568,9.374106,-0.7185059
81588861536436,-2.7135572,9.311836,-0.6658155
81588881386786,-2.6872119999999997,9.357342,-0.5556446
81588901240483,-2.7351123999999998,9.453142,-0.61073
81588921094178,-2.7422974,9.553733,-0.6586304000000001
81588940947874,-2.7566676,9.486672,-0.6514453
81588960801571,-2.7494826,9.235196,-0.6993457
81588980650762,-2.7901978,9.216036,-0.6394701999999999
81589000504330,-2.7135572,9.256751,-0.7592211999999999
81589020357771,-2.8093581000000003,9.371711999999999,-0.68737066
81589040208935,-2.794988,9.460327000000001,-0.6514453
81589060062503,-2.7734327000000003,9.536968,-0.6706055000000001
81589079915944,-2.7566676,9.484278,-0.6945557
81589099767117,-2.7614577000000002,9.352551,-0.7041358
81589119620685,-2.802173,9.323812,-0.6394701999999999
81589139474126,-2.7351123999999998,9.307046000000001,-0.6394701999999999
81589159327693,-2.7422974,9.335787,-0.6227050999999999
81589179183620,-2.7901978,9.398057000000001,-0.6706055000000001
81589199037189,-2.7614577000000002,9.398057000000001,-0.72569096
81589218890628,-2.792593,9.493857,-0.71371585
81589238744069,-2.7279273999999996,9.491463000000001,-0.71371585
81589258597638,-2.6776318999999997,9.323812,-0.69695073
81589278451076,-2.7758276,9.273516,-0.71371585
81589298304215,-2.7758276,9.338181500000001,-0.70174074
81589318157656,-2.7734327000000003,9.441168,-0.65384036
81589338011095,-2.811753,9.410032000000001,-0.6993457
81589357864535,-2.7638526000000003,9.431587,-0.68018556
81589377717848,-2.7279273999999996,9.539363,-0.7232959
81589397576549,-2.6321266,9.412427000000001,-0.7185059
81589417430118,-2.6967921,9.208851,-0.7089258
81589437283559,-2.7638526000000003,9.259146000000001,-0.6945557
81589457137128,-2.7590625,9.398057000000001,-0.69216067
81589476995469,-2.7255323,9.524992999999998,-0.68737066
81589496849038,-2.7638526000000003,9.467513,-0.7161109
81589516702735,-2.7470875,9.412427000000001,-0.7496411000000001
81589536556304,-2.7135572,9.292676,-0.81909674
81589556409873,-2.7758276,9.314231,-0.7879615
81589576263570,-2.8500732999999996,9.460327000000001,-0.7831714
81589596118583,-2.7734327000000003,9.503438000000001,-0.69695073
81589615972280,-2.7446926,9.455538,-0.7711963000000001
81589635825977,-2.7782228,9.335787,-0.8143066999999999
81589655679674,-2.7135572,9.283096,-0.8885523000000001
81589675533371,-2.792593,9.266331,-0.7783814
81589695388108,-2.7734327000000003,9.263936,-0.6825806
81589715241789,-2.811753,9.412427000000001,-0.7376661
81589735095486,-2.7758276,9.522598,-0.8334668
81589754949053,-2.8333082000000003,9.469908,-0.852627
81589774812605,-2.7901978,9.378897,-0.82388675
81589794666558,-2.823728,9.218430499999998,-0.80233157
81589814520381,-2.823728,9.292676,-0.80233157
81589834374333,-2.9195290000000003,9.402847,-0.78556645
81589854228286,-2.804568,9.412427000000001,-0.7496411000000001
81589874082237,-2.8524685,9.364527,-0.8382569
81589893944284,-2.818938,9.407638,-0.8286768
81589913798493,-2.802173,9.407638,-0.91250247
81589933652572,-2.8309132999999997,9.405242,-0.78556645
81589953506780,-2.806963,9.290281,-0.8286768
81589973360989,-2.8309132999999997,9.400452,-0.7544312
81589993215111,-2.7830129,9.431587,-0.80233157
81590013069319,-2.7734327000000003,9.311836,-0.79035646
81590032923656,-2.8141482000000004,9.323812,-0.8167017
81590052777863,-2.7734327000000003,9.414823,-0.8143066999999999
81590072627573,-2.675237,9.429193,-0.8214916999999999
81590092481782,-2.787803,9.366921000000001,-0.79993653
81590112335861,-2.8357031000000004,9.369317,-0.80712163
81590132190069,-2.8380982999999995,9.455538,-0.8047266
81590152044278,-2.7973828,9.477093,-0.78556645
81590171898357,-2.792593,9.402847,-0.79993653
81590191753126,-2.8476784,9.366921000000001,-0.855022
81590211607207,-2.7566676,9.275911,-0.79754156
81590231461286,-2.7470875,9.295072,-0.73527104
81590251315495,-2.7901978,9.261541000000001,-0.7592211999999999
81590271169576,-2.8141482000000004,9.422008,-0.7376661
81590291029921,-2.806963,9.5489435,-0.7568262
81590310884258,-2.7518775,9.539363,-0.7232959
81590330738467,-2.7494826,9.378897,-0.75203615
81590350592676,-2.7518775,9.177715,-0.7951465
81590370447013,-2.8357031000000004,9.237591,-0.7544312
81590390301222,-2.8955786,9.369317,-0.6730005
81590410152615,-2.787803,9.386082,-0.62989014
81590430006952,-2.802173,9.532178,-0.7089258
81590449861161,-2.7303224,9.522598,-0.80712163
81590469715370,-2.7399025000000004,9.405242,-0.7879615
81590489562605,-2.7446926,9.242381,-0.73048097
81590509416686,-2.7662477,9.280700999999999,-0.6682104999999999
81590529270767,-2.8213332,9.400452,-0.63707525
81590549124848,-2.7734327000000003,9.524992999999998,-0.6610254
81590568978929,-2.7231374,9.388477,-0.70174074
81590588816778,-2.7063723,9.338181500000001,-0.732876
81590608670603,-2.6824220000000003,9.223221,-0.728086
81590628524300,-2.663262,9.342972,-0.6777906
81590648378125,-2.7422974,9.400452,-0.6586304000000001
81590668231822,-2.7159522000000003,9.536968,-0.65384036
81590688085647,-2.7303224,9.584868,-0.7065308000000001
81590707929966,-2.6656568,9.491463000000001,-0.69695073
81590727783406,-2.6872119999999997,9.400452,-0.6706055000000001
81590747636975,-2.6201515,9.304651,-0.732876
81590767490414,-2.6560767000000003,9.266331,-0.68976563
81590787343711,-2.7183473,9.352551,-0.7185059
81590807197280,-2.7399025000000004,9.426797,-0.6777906
81590827050719,-2.6967921,9.472302,-0.7209009
81590846904287,-2.7231374,9.462723,-0.74006104
81590866757728,-2.6872119999999997,9.515413,-0.7209009
81590886611295,-2.6297317000000002,9.426797,-0.68976563
81590906460702,-2.6488917,9.3309965,-0.68737066
81590926314143,-2.7231374,9.342972,-0.7113208000000001
81590946167454,-2.675237,9.326205999999999,-0.732876
81590966020894,-2.7279273999999996,9.400452,-0.7113208000000001
81590985874207,-2.7566676,9.501043,-0.7065308000000001
81591005733254,-2.7255323,9.481883,-0.7496411000000001
81591025586694,-2.7327175,9.407638,-0.7496411000000001
81591045440263,-2.7111623,9.283096,-0.7376661
81591065291799,-2.7279273999999996,9.364527,-0.68737066
81591085144721,-2.7183473,9.419611999999999,-0.7161109
81591104998162,-2.7087672,9.374106,-0.73048097
81591124851601,-2.7662477,9.541758999999999,-0.7113208000000001
81591144705041,-2.7183473,9.457932000000001,-0.74006104
81591164558482,-2.6417067000000003,9.24717,-0.74006104
81591184411923,-2.7159522000000003,9.297466,-0.7831714
81591204262324,-2.7255323,9.393267,-0.7879615
81591224115637,-2.6464967999999995,9.575289,-0.6682104999999999
81591243968945,-2.6608667,9.484278,-0.70174074
81591263822385,-2.6776318999999997,9.448353,-0.76401126
81591283675698,-2.6536817999999998,9.422008,-0.8813671999999999
81591303534981,-2.6417067000000003,9.280700999999999,-0.7496411000000001
81591323388421,-2.7494826,9.342972,-0.63707525
81591343241862,-2.7782228,9.4435625,-0.68018556
81591363095303,-2.680027,9.412427000000001,-0.76880133
81591382948616,-2.7494826,9.431587,-0.7448511
81591402802057,-2.7518775,9.354947,-0.8095166
81591422664488,-2.7279273999999996,9.299861,-0.74006104
81591442518057,-2.7662477,9.374106,-0.7496411000000001
81591462371754,-2.7758276,9.412427000000001,-0.76161623
81591482225323,-2.8093581000000003,9.474698,-0.8095166
81591502085620,-2.7183473,9.431587,-0.78556645
81591521939445,-2.675237,9.386082,-0.8646021
81591541793142,-2.675237,9.323812,-0.76880133
81591561646967,-2.6824220000000003,9.3309965,-0.8095166
81591581500792,-2.7446926,9.445957,-0.78556645
81591601352057,-2.7207422,9.436378,-0.7664063
81591621205882,-2.6608667,9.419611999999999,-0.79993653
81591641059579,-2.7231374,9.426797,-0.8669971
81591660913276,-2.7375073,9.407638,-0.87178713
81591680766973,-2.7303224,9.335787,-0.80712163
81591700620670,-2.7135572,9.228010000000001,-0.8095166
81591720475737,-2.799778,9.381292,-0.852627
81591740329415,-2.7638526000000003,9.479486999999999,-0.8382569
81591760183112,-2.694397,9.4435625,-0.81909674
81591780036807,-2.7590625,9.455538,-0.8167017
81591799897842,-2.7207422,9.441168,-0.8813671999999999
81591819751795,-2.7542725,9.388477,-0.86939216
81591839605618,-2.7351123999999998,9.323812,-0.79035646
81591859459570,-2.694397,9.208851,-0.82388675
81591879313523,-2.7662477,9.410032000000001,-0.8478370000000001
81591899173853,-2.7662477,9.558523,-0.88376224
81591919028061,-2.7255323,9.508227999999999,-0.8430469
81591938882142,-2.7375073,9.4507475,-0.8598120000000001
81591958736349,-2.7087672,9.285491,-0.87178713
81591978590557,-2.7063723,9.182506,-0.90052736
81591998444638,-2.811753,9.256751,-0.7759864000000001
81592018300834,-2.8141482000000004,9.393267,-0.79035646
81592038155042,-2.792593,9.5561285,-0.8286768
81592058009379,-2.7686427000000005,9.551338000000001,-0.87897223
81592077863586,-2.7351123999999998,9.457932000000001,-0.9196875
81592097713795,-2.7207422,9.266331,-0.9436377
81592117568004,-2.8309132999999997,9.192085,-0.86939216
81592137422211,-2.8261232000000005,9.211246000000001,-0.86220706
81592157276419,-2.8620484,9.383687,-0.8214916999999999
81592177130628,-2.802173,9.431587,-0.90052736
81592196984963,-2.818938,9.448353,-0.8981324
81592216832742,-2.6345215,9.125025,-0.9388476999999998
81592236686695,-2.8428883999999996,9.273516,-0.91250247
81592256540774,-3.0201197,9.678274,-0.9364527
81592276394854,-2.6776318999999997,9.572892999999999,-0.7664063
81592296248807,-2.8213332,9.357342,-0.9196875
81592316106810,-2.9458742,9.307046000000001,-0.9364527
81592335960891,-2.7854077999999998,9.455538,-1.0322535
81592355814972,-2.7015822,9.319021000000001,-0.7711963000000001
81592375669053,-2.8788134999999997,9.144185,-0.855022
81592395523570,-2.8452832999999997,9.239985,-0.974773
81592415377651,-2.7111623,9.457932000000001,-0.91729254
81592435231732,-2.7734327000000003,9.529783,-0.8813671999999999
81592455085813,-2.7782228,9.340575999999999,-0.8669971
81592474939894,-2.7518775,9.405242,-0.9484278
81592494793975,-2.7710377999999998,9.441168,-0.8885523000000001
81592514638722,-2.6297317000000002,9.297466,-0.8143066999999999
81592534492547,-2.7710377999999998,9.271121,-0.8214916999999999
81592554346372,-2.7710377999999998,9.354947,-0.8382569
81592574200325,-2.694397,9.398057000000001,-0.8861573
81592594054150,-2.6512868,9.486672,-0.79035646
81592613903757,-2.6536817999999998,9.402847,-0.86220706
81592633757582,-2.7422974,9.469908,-0.8669971
81592653611407,-2.6369166,9.426797,-0.86939216
81592673465232,-2.6656568,9.374106,-0.84544194
81592693318917,-2.7782228,9.426797,-0.8430469
81592713172614,-2.7303224,9.431587,-0.8167017
81592733026419,-2.6656568,9.417216999999999,-0.85741705
81592752880243,-2.692002,9.319021000000001,-0.9053174
81592772733940,-2.7111623,9.251961,-0.8598120000000001
81592792587763,-2.668052,9.302257,-0.8310718
81592812440752,-2.668052,9.342972,-0.8262818000000001
81592832294449,-2.7422974,9.501043,-0.8813671999999999
81592852148144,-2.7375073,9.637559,-0.8478370000000001
81592872001840,-2.699187,9.560919,-0.8765772
81592891855537,-2.7015822,9.422008,-0.855022
81592911708444,-2.7087672,9.14179,-0.8885523000000001
81592931562140,-2.684817,9.206455,-0.8382569
81592951415837,-2.7279273999999996,9.304651,-0.81191164
81592971269532,-2.6896071,9.477093,-0.7759864000000001
81592991121266,-2.7231374,9.536968,-0.94603276
81593010974963,-2.675237,9.553733,-0.8933423
81593030828658,-2.6369166,9.426797,-0.92208254
81593050678640,-2.663262,9.326205999999999,-0.7783814
81593070532337,-2.7087672,9.216036,-0.855022
81593090386032,-2.811753,9.342972,-0.78556645
81593110241357,-2.7135572,9.371711999999999,-0.8981324
81593130095054,-2.6560767000000003,9.4435625,-0.8382569
81593149948749,-2.6273365,9.484278,-0.9053174
81593169802573,-2.6656568,9.4435625,-0.9029224
81593189656270,-2.7063723,9.407638,-0.8334668
81593209504839,-2.7566676,9.338181500000001,-0.8430469
81593229358407,-2.7638526000000003,9.414823,-0.7927515
81593249211976,-2.7159522000000003,9.493857,-0.8669971
81593269065543,-2.6536817999999998,9.386082,-0.8646021
81593288916037,-2.7279273999999996,9.441168,-0.86939216
81593308769478,-2.7351123999999998,9.390872,-0.8909473
81593328623045,-2.6776318999999997,9.307046000000001,-0.87178713
81593348476485,-2.7854077999999998,9.275911,-0.855022
81593368330054,-2.7207422,9.345366499999999,-0.8669971
81593388183493,-2.703977,9.491463000000001,-0.84065187
81593408040822,-2.7063723,9.532178,-0.85023195
81593427894391,-2.680027,9.417216999999999,-0.92926764
81593447747958,-2.7470875,9.395662,-0.8981324
81593467601526,-2.6704468999999995,9.287886,-0.8478370000000001
81593487455095,-2.7566676,9.376502,-0.80233157
81593507315988,-2.8093581000000003,9.410032000000001,-0.8047266
81593527169684,-2.7279273999999996,9.422008,-0.84065187
81593547023509,-2.6776318999999997,9.498648,-0.81191164
81593566877204,-2.6321266,9.479486999999999,-0.9148975
81593586730900,-2.6297317000000002,9.295072,-0.9029224
81593606584597,-2.6728419999999997,9.127419,-0.80712163
81593626432258,-2.804568,9.278306,-0.7544312
81593646285826,-2.7159522000000003,9.524992999999998,-0.7831714
81593666139395,-2.6464967999999995,9.529783,-0.8286768
81593685993090,-2.6441016,9.532178,-0.8765772
81593705850891,-2.6273365,9.529783,-0.9436377
81593725704588,-2.6776318999999997,9.259146000000001,-0.8334668
81593745558155,-2.663262,9.19927,-0.73048097
81593765411851,-2.703977,9.292676,-0.7783814
81593785265548,-2.6225464,9.546548,-0.76401126
81593805104625,-2.6297317000000002,9.484278,-0.82388675
81593824957937,-2.5722509999999996,9.496253,-0.8646021
81593844811378,-2.6057813,9.460327000000001,-0.89573735
81593864664689,-2.555486,9.369317,-0.7592211999999999
81593884518129,-2.7255323,9.328602,-0.7711963000000001
81593904371442,-2.7566676,9.374106,-0.8214916999999999
81593924232543,-2.7782228,9.342972,-0.84544194
81593944086111,-2.6560767000000003,9.395662,-0.81909674
81593963939552,-2.6776318999999997,9.414823,-0.86220706
81593983793119,-2.6297317000000002,9.457932000000001,-0.9436377
81594003656135,-2.7542725,9.465117,-0.87418216
81594023509960,-2.7207422,9.395662,-0.85741705
81594043363783,-2.7758276,9.340575999999999,-0.7927515
81594063217479,-2.7446926,9.314231,-0.8669971
81594083071304,-2.7207422,9.350157000000001,-0.8981324
81594102929645,-2.692002,9.438772,-0.855022
81594122783469,-2.699187,9.412427000000001,-0.87897223
81594142637294,-2.7375073,9.438772,-0.85741705
81594162491117,-2.7686427000000005,9.386082,-0.90052736
81594182344941,-2.7638526000000003,9.352551,-0.85741705
81594202198894,-2.787803,9.307046000000001,-0.87897223
81594222049822,-2.811753,9.342972,-0.87178713
81594241903519,-2.7375073,9.441168,-0.87897223
81594261757344,-2.6608667,9.378897,-0.86220706
81594281611041,-2.7399025000000004,9.364527,-0.8981324
81594301468136,-2.7758276,9.402847,-0.9053174
81594321321961,-2.7087672,9.455538,-0.8430469
81594341175786,-2.7710377999999998,9.417216999999999,-0.8646021
81594361029611,-2.8476784,9.350157000000001,-0.8598120000000001
81594380883564,-2.8333082000000003,9.424402,-0.8765772
81594400737389,-2.6369166,9.263936,-0.84544194
81594420601386,-2.7399025000000004,9.148975,-0.87178713
81594440455467,-2.8380982999999995,9.321417,-0.85741705
81594460309548,-2.7399025000000004,9.534574000000001,-0.8095166
81594480163629,-2.6369166,9.70941,-0.82388675
81594500017710,-2.7901978,9.656719,-0.92926764
81594519869193,-2.699187,9.407638,-0.9651929
81594539723274,-2.7494826,9.187294999999999,-0.84544194
81594559577355,-2.7710377999999998,9.144185,-0.8334668
81594579431436,-2.8979738,9.148975,-0.7951465
81594599279713,-2.7518775,9.390872,-0.7711963000000001
81594619133666,-2.6584717999999996,9.354947,-0.8646021
81594638987619,-2.7063723,9.393267,-1.0011181999999998
81594658841572,-2.703977,9.342972,-0.95561284
81594678695525,-2.6417067000000003,9.433982,-0.8382569
81594698549458,-2.7806177000000005,9.486672,-0.8095166
81594718404879,-2.7830129,9.445957,-0.8334668
81594738258832,-2.8165430000000002,9.465117,-0.81909674
81594758112785,-2.7111623,9.405242,-0.8286768
81594777966863,-2.6560767000000003,9.280700999999999,-0.8286768
81594797820816,-2.6512868,9.19927,-0.8669971
81594817669341,-2.7231374,9.290281,-0.8310718
81594837523165,-2.7518775,9.395662,-0.82388675
81594857376990,-2.7782228,9.496253,-0.82388675
81594877230941,-2.7806177000000005,9.493857,-0.8382569
81594897083302,-2.7590625,9.558523,-0.8861573
81594916937127,-2.684817,9.496253,-0.82388675
81594936790950,-2.7063723,9.321417,-0.79993653
81594956644774,-2.7351123999999998,9.16574,-0.8478370000000001
81594976498599,-2.8572583,9.266331,-0.76161623
81594996352422,-2.7901978,9.376502,-0.7232959
81595016207934,-2.7351123999999998,9.422008,-0.7161109
81595036061759,-2.7231374,9.529783,-0.88376224
81595055915582,-2.7159522000000003,9.616004,-0.90052736
81595075764537,-2.7063723,9.441168,-0.8478370000000001
81595095618362,-2.8404932,9.297466,-0.76161623
81595115476745,-2.787803,9.206455,-0.79993653
81595135330825,-2.7758276,9.280700999999999,-0.7807764
81595155184778,-2.7901978,9.390872,-0.7783814
81595175038857,-2.7422974,9.402847,-0.8981324
81595194889453,-2.8452832999999997,9.551338000000001,-0.7927515
81595214743278,-2.7135572,9.366921000000001,-0.84065187
81595234597229,-2.7542725,9.15137,-0.8478370000000001
81595254451053,-2.8428883999999996,9.319021000000001,-0.8382569
81595274305006,-2.794988,9.479486999999999,-0.7951465
81595294158957,-2.7734327000000003,9.599238,-0.7759864000000001
81595314011335,-2.7806177000000005,9.448353,-0.84065187
81595333865288,-2.675237,9.275911,-0.91729254
81595353719111,-2.7422974,9.254355,-0.8478370000000001
81595373573063,-2.7111623,9.354947,-0.7831714
81595393427016,-2.799778,9.429193,-0.7664063
81595413274666,-2.7518775,9.503438000000001,-0.7831714
81595433128362,-2.7135572,9.433982,-0.88376224
81595452981931,-2.7327175,9.505833,-0.8765772
81595472835626,-2.6824220000000003,9.3309965,-0.81191164
81595492689323,-2.7063723,9.192085,-0.7496411000000001
81595512542892,-2.823728,9.297466,-0.7592211999999999
81595532391029,-2.7542725,9.333391,-0.8981324
81595552244470,-2.7135572,9.376502,-0.855022
81595572098039,-2.6872119999999997,9.419611999999999,-0.852627
81595591951608,-2.7758276,9.522598,-0.87178713
81595611805251,-2.7662477,9.467513,-0.84065187
81595631658820,-2.794988,9.354947,-0.86939216
81595651512389,-2.806963,9.287886,-0.8765772
81595671365830,-2.7279273999999996,9.235196,-0.85741705
81595691219399,-2.7159522000000003,9.314231,-0.82388675
81595711077106,-2.7901978,9.347761,-0.7879615
81595730930675,-2.7255323,9.419611999999999,-0.8669971
81595750784372,-2.7494826,9.5489435,-0.8430469
81595770638056,-2.6896071,9.362132,-0.8334668
81595790491624,-2.7446926,9.304651,-0.8382569
81595810345321,-2.7806177000000005,9.345366499999999,-0.84544194
81595830183839,-2.7542725,9.307046000000001,-0.8310718
81595850037151,-2.8213332,9.371711999999999,-0.79035646
81595869890464,-2.799778,9.369317,-0.855022
81595889743775,-2.7734327000000003,9.398057000000001,-0.9580079
81595909601277,-2.8213332,9.424402,-0.8885523000000001
81595929454718,-2.7327175,9.280700999999999,-0.8669971
81595949308029,-2.823728,9.378897,-0.8310718
81595969161469,-2.823728,9.441168,-0.93405765
81595989014910,-2.806963,9.412427000000001,-0.87418216
81596008882553,-2.9195290000000003,9.422008,-0.8382569
81596028736377,-2.8141482000000004,9.137,-0.9196875
81596048590074,-2.8931837000000002,9.187294999999999,-0.92926764
81596068443769,-2.914739,9.251961,-0.9651929
81596088297593,-2.9817994,9.366921000000001,-0.8885523000000001
81596108151290,-3.0728102,9.496253,-0.8933423
81596128004571,-3.0105397999999997,9.426797,-0.855022
81596147858267,-2.9051588,9.254355,-0.974773
81596167712092,-2.9770092999999997,9.19448,-0.98195803
81596187565787,-2.9722195,9.259146000000001,-0.91010743
81596207419850,-2.9698243,9.326205999999999,-0.852627
81596227273547,-2.9458742,9.347761,-0.9029224
81596247127242,-2.9817994,9.314231,-0.974773
81596266980938,-2.8716285,9.338181500000001,-0.9508228000000001
81596286834635,-2.802173,9.304651,-0.87418216
81596306692966,-2.7854077999999998,9.251961,-0.8095166
81596326546662,-2.7614577000000002,9.113049499999999,-0.852627
81596346400487,-2.8740237,9.15137,-0.90052736
81596366254312,-2.8261232000000005,9.201666000000001,-0.81191164
81596386108137,-2.7279273999999996,9.1849,-0.7711963000000001
81596405961962,-2.6776318999999997,9.182506,-0.85741705
81596425817189,-2.7470875,9.15616,-0.9627979
81596445671014,-2.7806177000000005,9.1849,-0.89573735
81596465524839,-2.7351123999999998,9.15137,-0.78556645
81596485378664,-2.703977,9.175321,-0.9196875
81596505231737,-2.804568,9.297466,-1.0418334999999999
81596525085562,-2.7901978,9.321417,-0.94603276
81596544939387,-2.7159522000000003,9.369317,-0.8047266
81596564793212,-2.7135572,9.326205999999999,-0.87178713
81596584647037,-2.7279273999999996,9.13221,-1.0657837
81596604500734,-2.7518775,9.041199,-1.0657837
81596624354419,-2.7973828,9.048384,-0.99393314
81596644208244,-2.811753,9.108259,-0.9651929
81596664062069,-2.8524685,9.196876,-1.0106983
81596683915894,-2.8596535,9.19927,-1.0801538
81596703769719,-2.8093581000000003,9.259146000000001,-1.0873389
81596723629638,-2.7686427000000005,9.189691,-1.0849438999999999
81596743483591,-2.802173,9.105865,-1.0322535
81596763337544,-2.8668384999999996,9.115445,-1.0801538
81596783191476,-2.8596535,9.196876,-1.0777588
81596803046860,-2.8979738,9.309442,-1.0130934
81596822900941,-2.8357031000000004,9.24717,-0.99393314
81596842754892,-2.7638526000000003,9.09868,-1.0585986
81596862608972,-2.7518775,9.08431,-1.0609937
81596882463053,-2.7231374,9.187294999999999,-1.0609937
81596902317132,-2.7087672,9.261541000000001,-1.0657837
81596922161801,-2.7446926,9.14179,-1.0633887
81596942015626,-2.7470875,9.08431,-1.0322535
81596961869577,-2.7279273999999996,9.228010000000001,-1.089734
81596981723401,-2.7327175,9.244776,-1.0777588
81597001577226,-2.6872119999999997,9.261541000000001,-1.1160791
81597021435121,-2.7686427000000005,9.235196,-1.0585986
81597041289073,-2.7159522000000003,9.242381,-1.0849438999999999
81597061143026,-2.6872119999999997,9.189691,-1.1424243
81597080997626,-2.694397,9.14179,-1.0298585
81597100851475,-2.692002,9.08431,-1.094524
81597120705428,-2.6704468999999995,9.053174,-1.1520045
81597140559507,-2.7446926,9.242381,-1.1136841999999998
81597160413459,-2.7111623,9.304651,-1.0370435
81597180267412,-2.692002,9.230406,-1.0394385
81597200121363,-2.694397,9.163345,-1.1520045
81597219959230,-2.6560767000000003,9.15616,-1.1663746000000002
81597239812927,-2.6249416,9.13221,-1.0921290000000001
81597259666622,-2.6776318999999997,9.187294999999999,-1.0130934
81597279520190,-2.6967921,9.204061,-1.0346485
81597299373887,-2.7446926,9.259146000000001,-1.0466236
81597319216791,-2.680027,9.235196,-1.0226734
81597339070231,-2.6417067000000003,9.125025,-1.0490186000000001
81597358923672,-2.6297317000000002,9.091495,-1.099314
81597378777241,-2.6393116,9.086704,-1.1208692
81597398616486,-2.692002,9.206455,-1.0298585
81597418469543,-2.663262,9.17053,-1.0250684
81597438322472,-2.6967921,9.125025,-1.1424243
81597458175529,-2.792593,9.148975,-1.1328443000000001
81597478028458,-2.675237,9.21364,-1.0921290000000001
81597497881515,-2.5147705,9.319021000000001,-1.0873389
81597517735822,-2.5459058,9.268726,-1.099314
81597537588751,-2.7135572,9.072334,-1.0178833
81597557441808,-2.6464967999999995,9.077125,-0.85741705
81597577294737,-2.4980054,9.177715,-0.90771246
81597597147794,-2.3638844,9.237591,-1.2070899
81597616995669,-2.2632935,9.14658,-1.3028906999999998
81597636848598,-2.1698877999999997,9.228010000000001,-1.3699511999999998
81597656701527,-2.3303542,9.474698,-1.3004956
81597676554456,-2.4189699,9.321417,-1.3388159
81597696407385,-2.6297317000000002,9.14179,-1.5184423999999999
81597716260186,-2.955454,9.16574,-1.2669654
81597736128639,-2.9099487999999996,8.978928999999999,-0.9196875
81597755981823,-2.6369166,9.101074,-0.91250247
81597775834880,-2.5147705,9.323812,-1.1663746000000002
81597795688063,-2.3566992,9.204061,-1.2478052
81597815548727,-1.9687061000000001,9.386082,-1.3843212999999999
81597835401912,-1.8226098999999998,9.814791,-1.3220508
81597855255223,-1.8441651000000001,9.74773,-1.0777588
81597875108535,-2.0381618,9.592053,-0.7496411000000001
81597894961720,-2.3854396,9.477093,-0.7232959
81597914809259,-2.4932152999999997,9.448353,-0.87178713
81597934662315,-2.1674929,9.429193,-1.0753639
81597954515500,-1.7699194999999999,9.592053,-1.3531861
81597974368683,-1.5807129,9.726174,-1.1448194
81597994221867,-1.6789087,9.73815,-0.68018556
81598014075052,-1.8130298999999999,9.558523,-0.68737066
81598033944089,-2.1387525000000003,9.479486999999999,-0.977168
81598053797657,-2.203418,9.275911,-0.97237796
81598073651098,-2.076482,9.239985,-0.732876
81598093504537,-1.7627343999999998,9.208851,-0.74006104
81598113366805,-1.7339942,9.280700999999999,-0.8262818000000001
81598133220374,-1.9782863000000002,9.697434,-0.6730005
81598153074069,-1.6789087,10.042317,-0.6059399999999999
81598172927766,-1.3148658000000002,9.963282000000001,-0.7185059
81598192781335,-1.3148658000000002,9.855506,-0.9484278
81598212649386,-1.7938697000000001,10.332115,-0.5221143
81598232503339,-1.7244141,10.502161,-0.80233157
81598252357292,-1.8274,10.679393,-1.4394068000000002
81598272211245,-2.5914113999999997,11.402688000000001,-0.7113208000000001
81598292065198,-3.04886,10.265054,1.2094848999999999
81598311919151,-2.2728736,10.166859,-1.0418334999999999
81598331784462,-2.6608667,10.365644999999999,-0.6658155
81598351638799,-3.1901662,8.868757,1.6621436
81598371493008,-2.2920337,7.817344,1.5328126
81598391347217,-1.2334352,10.538086,-1.9255958
81598411201554,-0.13891114,13.512701000000002,-4.727769
81598431065813,0.8095166,13.067227,-7.4269557
81598450920406,3.7050953,12.212205,-4.981641000000001
81598470774871,-0.46942386,12.691208999999999,-0.21076173
81598490629464,-5.6905665,12.85886,1.2957056999999998
81598510484057,-4.9720607,12.336746,0.5005590999999999
81598530333432,-3.999683,12.78222,-0.18441652
81598550187897,-3.307522,12.121195,0.32093263
81598570042490,-1.7866846,11.1104965,-0.083825685
81598589896955,-0.6322852,9.989627,-0.21076173
81598609751420,-0.974773,9.568104,0.20118165
81598629607339,-0.46702883,9.534574000000001,-1.4729371
81598649461932,1.0226734,8.634046000000001,-2.579436
81598669316525,1.9591261000000002,7.6233473,-2.2369482999999994
81598689171118,1.7675245,6.368357,-0.67539555
81598709025711,0.16046631,5.616321,-0.12693603
81598728883264,-1.2454101999999998,5.216353,-0.8286768
81598748738113,-2.42855,4.840335,0.7711963000000001
81598768592962,-2.2728736,4.9169754999999995,1.8369801
81598788447676,-1.6142433,5.0343313,3.2308814999999997
81598808302524,-1.1208692,4.8163843,2.9506642999999997
81598828142934,-1.1160791,5.4582496,2.6129665
81598847997526,-0.23231691,6.516848599999999,3.0009596000000003
81598867851990,1.4441968,7.711963000000001,3.7458107000000003
81598887706454,1.4753321000000001,10.224339,3.7194655
81598907561046,-1.2549903,14.664705,1.9591261000000002
81598927406179,-2.9626392999999998,18.233284,3.3913480000000003
81598947260515,-1.1903248,13.706697,7.247329
81598967114851,-0.7831714,7.2401443,6.6653395
81598986969059,-0.8885523000000001,5.000801,3.7793410000000005
81599006823395,0.60833496,6.912027,-1.1615845
81599026672119,-0.34727785,12.260105000000001,-7.1060232999999995
81599046526199,-6.006709,20.496578,-7.9706254
81599066380279,-2.6321266,17.919537,3.7529957
81599086234359,1.7483643,7.3407350000000005,-2.0501368
81599106087328,1.9591261000000002,5.3432889999999995,-5.9851540000000005
81599125938599,0.16046631,7.589817,-4.287085
81599145792552,-1.4729371,10.497371000000001,-4.2032595
81599165646631,-4.138594,12.80138,1.9687061000000001
81599185500712,-2.6081765,11.081756,4.337380400000001
81599205354663,-1.1687696,7.9035649999999995,-0.8765772
81599225203835,-3.2045362,7.177873599999999,-1.4178516
81599245057531,-3.283572,7.7215433,0.18681154
81599264911355,-2.5938063,8.224497999999999,1.4920973
81599284765179,-1.583108,8.2125225,-0.34248779999999995
81599304619004,-1.590293,8.708291000000001,-0.49337405
81599324474333,-2.047742,8.945397999999999,-0.50534916
81599344328286,-1.6621436,9.19448,-0.42152345
81599364182111,-1.0322535,9.5561285,-0.5987549
81599384036064,-0.84065187,9.534574000000001,-1.6717237
81599403889889,-0.5292993,9.778865,-2.3064039000000003
81599423743324,-0.80712163,10.483001,-0.62031007
81599443597277,-1.705254,11.247012,1.3004956
81599463451102,-1.8561403000000003,11.785892,1.223855
81599483304927,-1.4346168,11.864927,1.2549903
81599503158880,-0.43589357,11.464959,1.5352076000000001
81599523010199,0.16525635,10.880574000000001,1.2861254999999998
81599542863896,-1.9064356,10.765614,-0.7041358
81599562717593,-4.742139,14.125826000000002,-3.5901343999999997
81599582571162,-2.7614577000000002,14.901813,-1.6501685000000001
81599602424859,-0.13172609,11.939173,-1.6405883999999997
81599622284504,3.1063403999999997,12.147539,-5.3480787
81599642138201,0.5748047,14.250367,-4.864285
81599661992026,-1.9136206999999998,14.820381,-2.9195290000000003
81599681845851,-2.692002,14.497054,-0.34488282
81599701699676,0.9244776,12.427757000000001,4.7301636
81599721559309,1.7268091,10.997931,2.6105714
81599741413243,0.21315674,9.845925,-1.9591261000000002
81599761267067,-0.15328126,8.722662,-4.493057
81599781121019,1.1927198,6.251001400000001,-7.2928348
81599800974843,0.52690434,5.8270826,-4.689448400000001
81599820832361,-1.6669337,6.981482000000001,-2.076482
81599840686313,-3.5781593000000003,7.527547,-0.6562354
81599860540393,-4.2152348,6.488108,0.6442603
81599880394473,-4.495451999999999,5.992339,1.1136841999999998
81599900248425,-4.095484,5.6977515,1.8824854
81599920106144,-3.06802,5.8438478,2.074087
81599939960224,-1.9016455,7.082072999999999,1.7459692999999998
81599959814432,-0.79035646,8.931028,1.8681153000000001
81599979668640,0.39278322,10.008787,2.938689
81599999522720,0.3520679,11.541599,4.375701
81600019383957,1.0729688,14.224022,6.5312185
81600039238421,4.277505000000001,14.137801000000001,4.9289502999999995
81600059092757,6.7803005999999995,10.286610000000001,-1.3795313
81600078947093,7.9921803,7.189849000000001,-2.2656887
81600098801557,6.3875175,5.937253500000001,2.1124072
81600118647884,2.074087,9.901011,-1.9471509999999999
81600138502092,-1.9639161,14.518609,-7.8676395
81600158356301,-7.326364999999999,18.348246,-2.914739
81600178210510,-7.9682302,12.576248,17.59142
81600198064716,-2.5866213,3.302732,-1.7459692999999998
81600217910403,-2.5147705,4.612807800000001,-7.434141
81600237764483,-4.047583,8.387359,-6.682104600000001
81600257618563,-3.3602126000000005,11.936778,-8.720266
81600277472643,-3.0368847999999997,12.14275,-5.6330860000000005
81600297326723,-2.44771,11.702065,7.685617999999999
81600317180804,-1.3483961000000002,10.243499,6.4186525
81600337028153,-1.4825171,7.398216000000001,-1.7435743000000001
81600356882106,-1.7148341,8.087981,-1.7842896000000001
81600376736187,-2.2561085,9.3309965,0.7161109
81600396590140,-1.5783178999999998,8.667575999999999,0.90771246
81600416444093,-1.9279908,7.9706254,-0.31135255
81600436294320,-2.076482,8.097562,-0.5604346
81600456148273,-1.6765138,8.566985,-1.6789087
81600476002098,-1.3388159,9.386082,-1.9232006999999998
81600495855923,-1.9806811999999998,9.429193,-1.22625
81600515709748,-2.5267458,9.15137,-0.5388794
81600535560763,-1.9303858,9.405242,-1.0538087
81600555414588,-1.9327808999999998,9.024434,-1.2813355
81600575268285,-1.8609301999999999,9.520203,-1.9279908
81600595121982,-0.39278322,11.527229,-1.5304176
81600614975807,-0.043110352000000005,12.001443,-1.2885206
81600634822708,-0.8334668,12.078084,-1.6501685000000001
81600654676277,-0.9987232,12.885205000000001,-1.7531544
81600674529974,-0.99393314,13.45522,-1.4825171
81600694383543,-0.5221143,13.107942999999999,-1.5639478
81600714237112,-0.7424561,11.56076,-1.9926563999999998
81600734093235,-3.1446607,10.473421,-1.2741505
81600753946804,-5.1540823,9.508227999999999,-2.0094216
81600773800349,-5.0510964000000005,10.394385,-1.9136206999999998
81600793653917,-3.5398389999999997,10.229128999999999,-2.6967921
81600813507485,-2.2417382999999997,10.667418,-2.4740553
81600833355543,-3.7985013,12.533137,0.13891114
81600853208983,-5.640271,11.5895,1.7531544
81600873062423,-5.7791824,10.686577999999999,0.30895755
81600892915991,-5.158872,9.465117,0.028740235
81600912769431,-3.2284865000000003,7.335945,0.87178713
81600932610254,-1.8034497,7.185059,0.2562671
81600952463438,-0.9196875,7.2401443,-1.2957056999999998
81600972316622,0.27303225,6.8114357000000005,-2.9027638
81600992169806,-0.9508228000000001,6.1240654,-1.4944923
81601012022990,-0.7113208000000001,2.9482691,0.80712163
81601031874699,-1.8513502,2.692002,2.1124072
81601051727755,-1.5519726999999999,4.8211746,1.7363893
81601071580811,-1.7435743000000001,6.514453400000001,1.099314
81601091433995,-1.7914747,7.6496925000000005,0.9484278
81601111287051,-1.9878663,9.539363,1.5519726999999999
81601131145611,-2.0525317,12.475657,3.666775
81601150998795,-0.55803955,15.684982999999999,7.237749000000001
81601170850382,1.223855,14.341377,5.4534597
81601190703567,2.076482,10.437495,-0.7424561
81601210556752,1.5615528,8.629255,-0.69695073
81601230420567,0.5987549,9.2256155,-0.19160157
81601250274004,-0.7759864000000001,12.066108999999999,-1.2118799999999998
81601270127316,-3.7697608,18.039288,-0.06466553
81601289980756,-5.3935843,18.451231,0.3161426
81601309834068,-4.167333999999999,10.506950999999999,-1.4418018
81601329692272,-3.5733693,5.017566,-3.4009278
81601349545712,-3.1374757,5.101392,-1.4394068000000002
81601369399281,-3.1183155,8.600515,-1.9327808999999998
81601389252722,-2.3638844,11.366763,-3.3051271
81601409106291,-1.0681788,11.402688000000001,-3.4488282
81601428961828,0.1460962,10.923684,1.9806811999999998
81601448815269,-0.1460962,10.674602499999999,3.5709742999999996
81601468668838,-1.3028906999999998,9.177715,0.18441652
81601488522407,-1.6381934999999999,9.086704,-0.51971924
81601508375976,-1.465752,9.7621,-1.0585986
81601528242941,-1.0849438999999999,9.508227999999999,-1.7938697000000001
81601548096766,-0.90052736,10.384805,-0.9436377
81601567950591,-0.974773,11.064991000000001,0.7424561
81601587804416,-0.7161109,10.653048,0.5029541000000001
81601607658369,-1.1879296999999998,10.176438000000001,0.14849122
81601627513118,-1.6501685000000001,9.663903999999999,0.100590825
81601647367071,-2.047742,9.72378,-0.25147706
81601667221024,-2.1842580000000003,9.972861,-0.51971924
81601687074977,-1.8896705000000003,9.81,-0.5556446
81601706928930,-1.5926881000000002,9.656719,-0.46702883
81601726784987,-1.5328126,9.855506,-0.35925296
81601746638923,-1.5663428,9.817185,-0.44068359999999995
81601766493003,-1.8848804,9.946517,-0.29698244
81601786346955,-2.2944287999999995,10.126142999999999,-0.06466553
81601806201035,-1.9255958,9.493857,-0.974773
81601826054038,-1.3699511999999998,9.328602,-2.1195923999999997
81601845907990,-1.8465601000000003,9.81958,-1.9136206999999998
81601865761942,-2.2848487,9.673484,-1.6405883999999997
81601885616022,-2.6273365,9.390872,-1.4681469999999999
81601905469974,-2.4884255,9.611214,-1.1567944
81601925317462,-2.3854396,9.659114,-0.73048097
81601945171286,-2.2632935,9.901011,-0.66342044
81601965025110,-2.4668702999999996,10.33451,-0.6658155
81601984878934,-2.4261549,9.683064,-1.0106983
81602004732758,-2.1363575,9.469908,-1.3268408999999999
81602024598230,-2.0166066000000002,9.527389,-0.8262818000000001
81602044452310,-2.069297,9.702225,-0.62510014
81602064306390,-2.2249732000000004,9.606423,-1.4370118
81602084160470,-2.3974147,9.5561285,-1.4322218
81602104014550,-2.4261549,9.599238,-0.54366946
81602123874256,-2.2585034,9.558523,-0.488584
81602143728464,-2.2393433999999997,9.582474000000001,-0.732876
81602163582800,-2.198628,9.733359,-0.8430469
81602183437008,-2.1100123,9.812395,-0.82388675
81602203291216,-2.1100123,9.687855,-0.7089258
81602223149776,-2.2441335,9.5489435,-0.6490503000000001
81602243004112,-2.3423293,9.448353,-0.84065187
81602262858448,-2.4740553,9.321417,-0.8310718
81602282712785,-2.4884255,9.412427000000001,-0.81909674
81602302567250,-2.5123756,9.369317,-0.95561284
81602322425369,-2.6560767000000003,9.362132,-0.91250247
81602342279834,-2.44292,9.441168,-0.9148975
81602362134299,-2.2776637,9.604028999999999,-0.99393314
81602381988892,-2.5075855,9.594449000000001,-0.855022
81602401843357,-2.6273365,9.496253,-0.8885523000000001
81602421695602,-2.7063723,9.448353,-0.86939216
81602441550067,-2.5123756,9.505833,-0.9412427
81602461404532,-2.3064039000000003,9.441168,-1.0059083
81602481258997,-2.3614892999999997,9.479486999999999,-1.0442286
81602501113462,-2.4980054,9.5561285,-1.0562036
81602520956407,-2.6297317000000002,9.517808,-0.9436377
81602540810616,-2.6488917,9.390872,-0.91010743
81602560664825,-2.543511,9.271121,-0.9436377
81602580518906,-2.3495142,9.438772,-1.096919
81602600373115,-2.3375392,9.649534,-1.0633887
81602620215248,-2.4620802000000004,9.527389,-0.9987232
81602640069073,-2.5890162,9.376502,-0.9244776
81602659923026,-2.6441016,9.393267,-0.9388476999999998
81602679776979,-2.5051906,9.347761,-0.98195803
81602699630804,-2.4237599999999997,9.354947,-0.98914313
81602719476369,-2.4668702999999996,9.402847,-0.9364527
81602739330174,-2.4956105,9.417216999999999,-0.9364527
81602759183871,-2.562671,9.604028999999999,-0.9412427
81602779037566,-2.5099807000000003,9.594449000000001,-0.8813671999999999
81602798891262,-2.5027955000000004,9.467513,-0.87178713
81602818743812,-2.4788454,9.352551,-0.9148975
81602838597636,-2.4165747000000004,9.386082,-0.94603276
81602858451332,-2.3878345000000003,9.465117,-0.9364527
81602878305028,-2.43813,9.429193,-0.82388675
81602898158724,-2.4333397999999997,9.4435625,-0.81191164
81602918005112,-2.44292,9.513017999999999,-0.87178713
81602937858680,-2.3638844,9.601633999999999,-0.8669971
81602957712248,-2.3758595000000002,9.513017999999999,-0.76401126
81602977565688,-2.3255641,9.457932000000001,-0.7568262
81602997419256,-2.3255641,9.474698,-0.74724615
81603017269096,-2.3854396,9.570497999999999,-0.81191164
81603037122536,-2.339934,9.546548,-0.75203615
81603056975976,-2.3950195,9.501043,-0.7041358
81603076829416,-2.3782544,9.489068,-0.7185059
81603096682856,-2.320774,9.481883,-0.76161623
81603116536296,-2.3686745,9.460327000000001,-0.8214916999999999
81603136389669,-2.3926246,9.426797,-0.7951465
81603156243237,-2.4525,9.448353,-0.76880133
81603176096678,-2.4022048,9.486672,-0.7592211999999999
81603195950119,-2.3447242000000004,9.467513,-0.7927515
81603215803557,-2.323169,9.414823,-0.86939216
81603235657570,-2.3255641,9.350157000000001,-0.8669971
81603255510882,-2.411785,9.414823,-0.79993653
81603275364268,-2.3543043,9.589659,-0.728086
81603295217708,-2.2968237,9.721385,-0.70174074
81603315071020,-2.3902297000000003,9.699829,-0.728086
81603334922325,-2.3926246,9.486672,-0.75203615
81603354775638,-2.3255641,9.386082,-0.7592211999999999
81603374628951,-2.2680835999999998,9.335787,-0.7592211999999999
81603394482392,-2.2848487,9.414823,-0.7448511
81603414335705,-2.3255641,9.659114,-0.7807764
81603434192638,-2.2345533,9.651928999999999,-0.8214916999999999
81603454045951,-2.3590944,9.551338000000001,-0.8669971
81603473899264,-2.411785,9.481883,-0.87897223
81603493752705,-2.4261549,9.438772,-0.80712163
81603513606018,-2.3902297000000003,9.304651,-0.81909674
81603533461361,-2.42855,9.419611999999999,-0.7759864000000001
81603553314674,-2.4022048,9.510622999999999,-0.82388675
81603573167987,-2.3566992,9.625584,-0.8143066999999999
81603593021300,-2.3327491,9.544153,-0.8143066999999999
81603612874613,-2.2632935,9.431587,-0.8382569
81603632732508,-2.304009,9.467513,-0.8430469
81603652585949,-2.2800586,9.515413,-0.83586186
81603672439390,-2.3303542,9.515413,-0.72569096
81603692292703,-2.2608986,9.532178,-0.7424561
81603712146144,-2.327959,9.539363,-0.7496411000000001
81603732006879,-2.2129982000000004,9.467513,-0.82388675
81603751860428,-2.2728736,9.587264,-0.7568262
81603771713996,-2.2872437999999997,9.445957,-0.76161623
81603791567564,-2.4237599999999997,9.431587,-0.71371585
81603811421260,-2.3950195,9.5489435,-0.7496411000000001
81603831278473,-2.3566992,9.558523,-0.7376661
81603851132169,-2.3495142,9.560919,-0.76161623
81603870985865,-2.2848487,9.433982,-0.728086
81603890839561,-2.2920337,9.390872,-0.73527104
81603910693257,-2.2896388,9.481883,-0.7664063
81603930548349,-2.2704787,9.474698,-0.7209009
81603950402173,-2.320774,9.580078,-0.7089258
81603970255997,-2.2896388,9.577683,-0.732876
81603990109693,-2.3375392,9.544153,-0.7592211999999999
81604009963517,-2.3614892999999997,9.532178,-0.76401126
81604029826679,-2.304009,9.436378,-0.7664063
81604049680759,-2.3638844,9.374106,-0.7927515
81604069534839,-2.3806496,9.402847,-0.7496411000000001
81604089388919,-2.4165747000000004,9.491463000000001,-0.7424561
81604109242999,-2.3806496,9.745335,-0.7664063
81604129097586,-2.323169,9.635164,-0.7807764
81604148951667,-2.4261549,9.457932000000001,-0.7927515
81604168805876,-2.3495142,9.345366499999999,-0.7568262
81604188659957,-2.3064039000000003,9.280700999999999,-0.7424561
81604208514033,-2.440525,9.422008,-0.7496411000000001
81604228374580,-2.4644752,9.572892999999999,-0.74006104
81604248228916,-2.3734642999999997,9.587264,-0.7424561
81604268083124,-2.3758595000000002,9.546548,-0.79035646
81604287937332,-2.4189699,9.613608000000001,-0.7879615
81604307791540,-2.411785,9.570497999999999,-0.7807764
81604327644211,-2.3495142,9.263936,-0.76161623
81604347498420,-2.4668702999999996,9.2328005,-0.7496411000000001
81604367352629,-2.3782544,9.395662,-0.7807764
81604387206710,-2.3854396,9.599238,-0.7759864000000001
81604407060919,-2.3566992,9.685459,-0.7927515
81604426914718,-2.3519094,9.467513,-0.82388675
81604446768927,-2.4213647999999997,9.436378,-0.8813671999999999
81604466623136,-2.327959,9.393267,-0.9053174
81604486477345,-2.3974147,9.390872,-0.86220706
81604506331554,-2.3902297000000003,9.438772,-0.78556645
81604526177705,-2.4261549,9.479486999999999,-0.8047266
81604546031786,-2.4093897,9.596844,-0.9484278
81604565885739,-2.44771,9.637559,-0.87418216
81604585739820,-2.3614892999999997,9.414823,-0.85023195
81604605593901,-2.411785,9.390872,-0.9244776
81604625438950,-2.4525,9.414823,-1.0394385
81604645292775,-2.6033863999999998,9.481883,-0.9580079
81604665146600,-2.5075855,9.536968,-0.9196875
81604685000553,-2.440525,9.479486999999999,-0.9244776
81604704854378,-2.4932152999999997,9.551338000000001,-1.0442286
81604724708703,-2.440525,9.474698,-0.98914313
81604744562509,-2.4261549,9.366921000000001,-0.9268726
81604764416333,-2.3950195,9.371711999999999,-0.94603276
81604784270157,-2.3926246,9.386082,-1.0035132
81604804123981,-2.4620802000000004,9.513017999999999,-1.0226734
81604823969698,-2.3734642999999997,9.539363,-0.97237796
81604843823394,-2.4141798,9.489068,-0.9915381
81604863677090,-2.4045997000000003,9.4507475,-0.9987232
81604883530786,-2.4045997000000003,9.388477,-0.93405765
81604903384482,-2.4141798,9.4507475,-0.9268726
81604923238495,-2.3710694,9.558523,-0.90052736
81604943092063,-2.4165747000000004,9.513017999999999,-0.96040285
81604962945759,-2.3471193,9.505833,-0.98914313
81604982799327,-2.3734642999999997,9.441168,-0.94603276
81605002653023,-2.3471193,9.429193,-0.9196875
81605022508438,-2.3638844,9.560919,-0.8598120000000001
81605042362006,-2.3543043,9.589659,-0.9268726
81605062215702,-2.3064039000000003,9.508227999999999,-0.977168
81605082069398,-2.3614892999999997,9.405242,-0.9316626
81605101923094,-2.3854396,9.513017999999999,-0.9196875
81605121777936,-2.3662794,9.410032000000001,-0.8909473
81605141631632,-2.440525,9.453142,-0.8981324
81605161485456,-2.3519094,9.513017999999999,-0.8669971
81605181339152,-2.2489235,9.536968,-0.9029224
81605201192848,-2.3519094,9.560919,-0.8765772
81605221040857,-2.320774,9.510622999999999,-0.87418216
81605240894425,-2.339934,9.419611999999999,-0.8478370000000001
81605260747993,-2.2872437999999997,9.455538,-0.87897223
81605280599303,-2.3447242000000004,9.436378,-0.86220706
81605300452744,-2.3710694,9.580078,-0.86220706
81605320306341,-2.2968237,9.601633999999999,-0.852627
81605340159910,-2.339934,9.481883,-0.9268726
81605360013479,-2.3327491,9.486672,-0.8933423
81605379867048,-2.3255641,9.433982,-0.86220706
81605399720617,-2.299219,9.412427000000001,-0.855022
81605419575416,-2.304009,9.448353,-0.82388675
81605439428985,-2.3303542,9.469908,-0.8646021
81605459282554,-2.3375392,9.642349000000001,-0.9148975
81605479136123,-2.3255641,9.580078,-0.8813671999999999
81605498989692,-2.3351439999999997,9.524992999999998,-0.87418216
81605518840573,-2.304009,9.486672,-0.84065187
81605538694142,-2.3686745,9.378897,-0.85741705
81605558547583,-2.3926246,9.457932000000001,-0.82388675
81605578401024,-2.3255641,9.513017999999999,-0.7951465
81605598254465,-2.3423293,9.584868,-0.8310718
81605618116938,-2.304009,9.5561285,-0.88376224
81605637970507,-2.3638844,9.489068,-0.8310718
81605657824204,-2.3375392,9.448353,-0.8214916999999999
81605677677773,-2.2944287999999995,9.433982,-0.79035646
81605697531470,-2.339934,9.333391,-0.8143066999999999
81605717385039,-2.3974147,9.572892999999999,-0.81909674
81605737244526,-2.3064039000000003,9.601633999999999,-0.83586186
81605757098328,-2.318379,9.627979,-0.82388675
81605776952025,-2.3327491,9.517808,-0.82388675
81605796805720,-2.311194,9.299861,-0.8310718
81605816659544,-2.315984,9.304651,-0.76401126
81605836521950,-2.3686745,9.491463000000001,-0.73048097
81605856375902,-2.323169,9.649534,-0.78556645
81605876229854,-2.2872437999999997,9.5633135,-0.8430469
81605896083934,-2.42855,9.503438000000001,-0.84065187
81605915937886,-2.3303542,9.587264,-0.79754156
81605935792210,-2.311194,9.429193,-0.73527104
81605955646290,-2.3303542,9.338181500000001,-0.73527104
81605975500242,-2.3686745,9.393267,-0.7448511
81605995354322,-2.315984,9.517808,-0.80233157
81606015208402,-2.3471193,9.6615095,-0.7807764
81606035071948,-2.2968237,9.534574000000001,-0.8214916999999999
81606054926156,-2.4069947999999997,9.455538,-0.8214916999999999
81606074780492,-2.3830445,9.414823,-0.80233157
81606094634700,-2.440525,9.453142,-0.76401126
81606114487433,-2.323169,9.445957,-0.7951465
81606134341770,-2.3782544,9.393267,-0.81909674
81606154195977,-2.4141798,9.481883,-0.852627
81606174050185,-2.320774,9.541758999999999,-0.8167017
81606193904522,-2.2944287999999995,9.515413,-0.85023195
81606213749452,-2.3758595000000002,9.4435625,-0.8262818000000001
81606233603533,-2.3878345000000003,9.445957,-0.8214916999999999
81606253457614,-2.3710694,9.580078,-0.81191164
81606273311695,-2.3830445,9.627979,-0.7951465
81606293165648,-2.3902297000000003,9.472302,-0.81191164
81606313019729,-2.3806496,9.402847,-0.85741705
81606332880214,-2.311194,9.390872,-0.84544194
81606352734423,-2.4045997000000003,9.477093,-0.8286768
81606372588632,-2.3950195,9.493857,-0.79993653
81606392442841,-2.3950195,9.431587,-0.8310718
81606412297108,-2.3974147,9.539363,-0.89573735
81606432151317,-2.3614892999999997,9.539363,-0.9196875
81606452005526,-2.44292,9.529783,-0.85741705
81606471859607,-2.3471193,9.489068,-0.8598120000000001
81606491713816,-2.3974147,9.386082,-0.8909473
81606511563033,-2.3495142,9.441168,-0.8478370000000001
81606531417114,-2.3327491,9.491463000000001,-0.83586186
81606551271323,-2.3543043,9.491463000000001,-0.9316626
81606571125404,-2.3638844,9.484278,-0.9388476999999998
81606590979485,-2.3590944,9.414823,-0.90771246
81606610833566,-2.2848487,9.462723,-0.9029224
81606630678857,-2.320774,9.484278,-0.92926764
81606650532810,-2.42855,9.649534,-0.9053174
81606670386763,-2.318379,9.639954,-0.8598120000000001
81606690240694,-2.2776637,9.381292,-0.9532178
81606710086903,-2.3926246,9.395662,-1.0011181999999998
81606729940728,-2.318379,9.359736,-1.0011181999999998
81606749794551,-2.299219,9.314231,-0.87897223
81606769648375,-2.3590944,9.412427000000001,-0.8598120000000001
81606789502200,-2.3878345000000003,9.529783,-0.9412427
81606809356023,-2.3974147,9.683064,-0.94603276
81606829199330,-2.299219,9.702225,-0.8933423
81606849052899,-2.3447242000000004,9.539363,-0.8765772
81606868906466,-2.3590944,9.366921000000001,-0.9436377
81606888760034,-2.3686745,9.340575999999999,-0.87418216
81606908613603,-2.440525,9.383687,-0.8262818000000001
81606928466396,-2.3471193,9.505833,-0.8334668
81606948319836,-2.3638844,9.524992999999998,-0.9053174
81606968173277,-2.3447242000000004,9.604028999999999,-0.99393314
81606988026716,-2.3423293,9.503438000000001,-0.92926764
81607007884569,-2.3495142,9.438772,-0.8981324
81607027738010,-2.3375392,9.441168,-0.8981324
81607047591577,-2.44292,9.405242,-0.87178713
81607067445017,-2.3351439999999997,9.529783,-0.8813671999999999
81607087298586,-2.2704787,9.625584,-0.9244776
81607107152153,-2.2585034,9.582474000000001,-0.974773
81607127001931,-2.2561085,9.486672,-0.9196875
81607146855244,-2.3375392,9.371711999999999,-0.84544194
81607166708683,-2.318379,9.383687,-0.8262818000000001
81607186561995,-2.3135889,9.467513,-0.8095166
81607206415436,-2.327959,9.534574000000001,-0.86939216
81607226277141,-2.3375392,9.6758795,-0.8909473
81607246130709,-2.315984,9.620794,-0.9244776
81607265984278,-2.3519094,9.513017999999999,-0.86939216
81607285837845,-2.2944287999999995,9.417216999999999,-0.82388675
81607305694282,-2.3543043,9.345366499999999,-0.8047266
81607325547851,-2.339934,9.410032000000001,-0.7664063
81607345401418,-2.3806496,9.517808,-0.77359134
81607365255114,-2.323169,9.695039999999999,-0.79754156
81607385108683,-2.2225783,9.666299,-0.79993653
81607404962250,-2.2680835999999998,9.534574000000001,-0.8095166
81607424818744,-2.2776637,9.419611999999999,-0.78556645
81607444672441,-2.2968237,9.266331,-0.7448511
81607464526136,-2.44771,9.477093,-0.6730005
81607484379832,-2.2920337,9.618399,-0.7376661
81607504233529,-2.2489235,9.589659,-0.78556645
81607524094500,-2.2369482999999994,9.618399,-0.7664063
81607543948196,-2.191443,9.592053,-0.7831714
81607563802021,-2.1770728,9.462723,-0.7568262
81607583655844,-2.198628,9.369317,-0.7041358
81607603508907,-2.308799,9.410032000000001,-0.6849755999999999
81607623362732,-2.320774,9.493857,-0.732876
81607643216682,-2.2393433999999997,9.544153,-0.6945557
81607663070506,-2.2513185,9.570497999999999,-0.7376661
81607682924331,-2.1483326000000003,9.584868,-0.76880133
81607702778282,-2.198628,9.407638,-0.7711963000000001
81607722638293,-2.3375392,9.517808,-0.6777906
81607742492246,-2.311194,9.553733,-0.6586304000000001
81607762346651,-2.3519094,9.481883,-0.7232959
81607782200603,-2.3543043,9.479486999999999,-0.71371585
81607802054684,-2.3135889,9.460327000000001,-0.77359134
81607821899701,-2.2896388,9.491463000000001,-0.76161623
81607841753525,-2.327959,9.431587,-0.7161109
81607861607350,-2.3878345000000003,9.465117,-0.7185059
81607881461173,-2.3590944,9.539363,-0.67539555
81607901314869,-2.2585034,9.522598,-0.73048097
81607921168694,-2.2393433999999997,9.570497999999999,-0.74006104
81607941030045,-2.1579127000000002,9.5561285,-0.7161109
81607960884125,-2.198628,9.508227999999999,-0.7232959
81607980738078,-2.215393,9.520203,-0.7089258
81608000592157,-2.2776637,9.419611999999999,-0.68976563
81608020459074,-2.2968237,9.441168,-0.68976563
81608040313411,-2.2872437999999997,9.474698,-0.7113208000000001
81608060167746,-2.299219,9.520203,-0.72569096
81608080022211,-2.3686745,9.546548,-0.73527104
81608099876548,-2.42855,9.520203,-0.728086
81608119721651,-2.5051906,9.414823,-0.732876
81608139575857,-2.5578809,9.412427000000001,-0.7161109
81608159430066,-2.5123756,9.386082,-0.68976563
81608179284273,-2.5339308,9.429193,-0.68737066
81608199138481,-2.459685,9.532178,-0.68976563
81608218992690,-2.4572902,9.489068,-0.7089258
81608238847860,-2.4141798,9.520203,-0.68737066
81608258702068,-2.3543043,9.395662,-0.72569096
81608278556277,-2.440525,9.414823,-0.69216067
81608298410486,-2.4884255,9.508227999999999,-0.613125
81608318259103,-2.4525,9.663903999999999,-0.5748047
81608338113184,-2.3351439999999997,9.575289,-0.71371585
81608357967265,-2.299219,9.374106,-0.7592211999999999
81608377821346,-2.2896388,9.472302,-0.6945557
81608397675299,-2.2369482999999994,9.553733,-0.63707525
81608417530080,-2.2177882,9.489068,-0.6514453
81608437384033,-2.3902297000000003,9.510622999999999,-0.6777906
81608457237986,-2.3135889,9.486672,-0.7185059
81608477092067,-2.2800586,9.491463000000001,-0.6777906
81608496946020,-2.3016137999999997,9.625584,-0.6682104999999999
81608516800101,-2.2968237,9.517808,-0.7879615
81608536653754,-2.3854396,9.374106,-0.8167017
81608556507707,-2.4644752,9.448353,-0.7161109
81608576361788,-2.4644752,9.510622999999999,-0.7089258
81608596215741,-2.3686745,9.472302,-0.7448511
81608616061458,-2.3495142,9.498648,-0.7424561
81608635915283,-2.2465284,9.462723,-0.8143066999999999
81608655769108,-2.2106032000000004,9.529783,-0.83586186
81608675622933,-2.191443,9.515413,-0.8214916999999999
81608695476886,-2.2632935,9.448353,-0.7232959
81608715330711,-2.2513185,9.503438000000001,-0.68737066
81608735184003,-2.2417382999999997,9.558523,-0.74006104
81608755037828,-2.201023,9.68067,-0.7161109
81608774891651,-2.090852,9.644744000000001,-0.7448511
81608794745475,-2.0357666,9.503438000000001,-0.7927515
81608814599300,-2.1195923999999997,9.462723,-0.8047266
81608834449740,-2.1866529999999997,9.426797,-0.7831714
81608854303564,-2.299219,9.429193,-0.6706055000000001
81608874157261,-2.2489235,9.493857,-0.6945557
81608894011084,-2.3135889,9.508227999999999,-0.79993653
81608913860879,-2.3854396,9.620794,-0.8669971
81608933714576,-2.3902297000000003,9.604028999999999,-0.7879615
81608953568143,-2.440525,9.479486999999999,-0.74006104
81608973421839,-2.440525,9.359736,-0.7568262
81608993275536,-2.42855,9.278306,-0.7496411000000001
81609013129231,-2.4620802000000004,9.453142,-0.7065308000000001
81609032980969,-2.4333397999999997,9.678274,-0.7089258
81609052834666,-2.3926246,9.616004,-0.7664063
81609072688233,-2.3495142,9.570497999999999,-0.81909674
81609092541801,-2.1962330000000003,9.441168,-0.81191164
81609112395498,-2.1124072,9.268726,-0.8143066999999999
81609132253267,-2.2225783,9.448353,-0.69695073
81609152106963,-2.3255641,9.5561285,-0.728086
81609171960660,-2.3782544,9.544153,-0.71371585
81609191814483,-2.3758595000000002,9.5633135,-0.7544312
81609211659414,-2.2513185,9.515413,-0.7807764
81609231512983,-2.2608986,9.539363,-0.7831714
81609251366422,-2.2848487,9.517808,-0.8095166
81609271219990,-2.3830445,9.508227999999999,-0.8167017
81609291073431,-2.4668702999999996,9.496253,-0.855022
81609310927000,-2.454895,9.381292,-0.86939216
81609330781129,-2.3950195,9.424402,-0.8167017
81609350634698,-2.1650977000000005,9.529783,-0.76880133
81609370488139,-2.0429518,9.536968,-0.9412427
81609390341708,-2.2537133999999996,9.477093,-0.8933423
81609410195277,-2.315984,9.465117,-0.80712163
81609430047346,-2.1722827000000002,9.572892999999999,-0.7376661
81609449900787,-2.2106032000000004,9.546548,-0.73048097
81609469754100,-2.3016137999999997,9.481883,-0.7592211999999999
81609489607541,-2.3303542,9.532178,-0.8933423
81609509460982,-2.2680835999999998,9.489068,-0.7807764
81609529314423,-2.320774,9.532178,-0.89573735
81609549180170,-2.2872437999999997,9.417216999999999,-0.8598120000000001
81609569033739,-2.327959,9.474698,-0.8167017
81609588887436,-2.4740553,9.505833,-0.8885523000000001
81609608741133,-2.4261549,9.496253,-0.85741705
81609628598762,-2.459685,9.608819,-0.91010743
81609648452459,-2.5363257000000003,9.498648,-1.0298585
81609668306284,-2.579436,9.424402,-0.8909473
81609688160109,-2.5147705,9.366921000000001,-0.8933423
81609708013934,-2.4740553,9.338181500000001,-0.8382569
81609727864181,-2.454895,9.474698,-0.88376224
81609747717857,-2.4213647999999997,9.469908,-0.90771246
81609767571554,-2.2704787,9.484278,-0.93405765
81609787426419,-2.2129982000000004,9.441168,-0.91729254
81609807280115,-2.2608986,9.448353,-0.9244776
81609827133812,-2.198628,9.477093,-1.0226734
81609846990239,-2.2345533,9.592053,-0.90052736
81609866843935,-2.4237599999999997,9.520203,-0.6346801999999999
81609886697760,-2.5291407,9.553733,-0.7113208000000001
81609906551455,-2.3686745,9.539363,-0.81191164
81609926406096,-2.3614892999999997,9.764495,-1.0490186000000001
81609946259921,-2.7279273999999996,9.663903999999999,-1.094524
81609966113744,-2.6345215,8.974138,-0.7089258
81609985967440,-2.2585034,8.962164,-0.5340894
81610005821265,-2.1028273,9.536968,-0.7209009
81610025681598,-2.2249732000000004,9.659114,-0.96758795
81610045535550,-2.201023,9.541758999999999,-1.0250684
81610065389503,-2.1698877999999997,9.551338000000001,-1.0035132
81610085243454,-2.0669020000000002,9.582474000000001,-0.87418216
81610105097406,-2.1650977000000005,9.541758999999999,-0.728086
81610124951487,-2.3902297000000003,9.354947,-0.73048097
81610144805347,-2.4237599999999997,9.338181500000001,-0.68976563
81610164659427,-2.311194,9.584868,-0.855022
81610184513380,-2.198628,9.766891000000001,-0.8430469
81610204367459,-2.1627028,9.587264,-0.7544312
81610224203133,-2.323169,9.407638,-0.8214916999999999
81610244056830,-2.44771,9.402847,-0.9580079
81610263910397,-2.5363257000000003,9.429193,-0.96040285
81610283764093,-2.5291407,9.395662,-0.81909674
81610303617662,-2.550696,9.431587,-0.6682104999999999
81610323458233,-2.4357349999999998,9.350157000000001,-0.84065187
81610343311674,-2.459685,9.524992999999998,-0.9963281999999999
81610363165115,-2.3495142,9.596844,-0.96758795
81610383018428,-2.3375392,9.462723,-0.8286768
81610402871869,-2.4764502,9.407638,-0.79035646
81610422725310,-2.4932152999999997,9.414823,-0.84065187
81610442566743,-2.4620802000000004,9.474698,-0.79754156
81610462419800,-2.3950195,9.577683,-0.8143066999999999
81610482272985,-2.2489235,9.565708,-0.8861573
81610502126170,-2.179468,9.486672,-0.89573735
81610521970797,-2.095642,9.479486999999999,-0.86939216
81610541823726,-2.0333717,9.472302,-0.83586186
81610561676655,-2.1579127000000002,9.486672,-0.76880133
81610581529584,-2.3327491,9.414823,-0.7927515
81610601382513,-2.4764502,9.460327000000001,-0.9196875
81610621235314,-2.5842261000000004,9.532178,-1.0083033000000001
81610641079681,-2.555486,9.527389,-0.91010743
81610660932354,-2.5051906,9.575289,-0.8909473
81610680785027,-2.4213647999999997,9.601633999999999,-0.9053174
81610700637700,-2.2728736,9.374106,-0.86220706
81610720490373,-2.2561085,9.110655,-0.76161623
81610740358802,-2.4668702999999996,9.5489435,-0.96758795
81610760211709,-2.3686745,9.510622999999999,-0.977168
81610780064638,-2.1722827000000002,9.522598,-0.8047266
81610799917565,-2.193838,9.630374,-0.78556645
81610819774632,-2.1459377,9.441168,-0.8478370000000001
81610839627561,-2.2058132,9.462723,-0.9244776
81610859480488,-2.2920337,9.625584,-0.9915381
81610879333416,-2.4141798,9.484278,-0.852627
81610899186345,-2.4333397999999997,9.515413,-0.7544312
81610919039272,-2.3255641,9.424402,-0.79993653
81610938902100,-2.4860303,9.376502,-0.90052736
81610958755157,-2.6225464,9.584868,-1.0633887
81610978608212,-2.4764502,9.671089,-1.0394385
81610998461268,-2.5051906,9.433982,-0.7879615
81611018314325,-2.3447242000000004,9.323812,-0.67539555
81611038178511,-2.3135889,9.295072,-0.80233157
81611058031823,-2.5219557,9.4435625,-0.86939216
81611077885008,-2.4333397999999997,9.637559,-0.78556645
81611097738319,-2.0812721,9.5633135,-0.7065308000000001
81611117603249,-1.9064356,9.529783,-0.79993653
81611137456818,-1.9639161,9.508227999999999,-0.8981324
81611157310385,-2.047742,9.496253,-0.82388675
81611177163953,-2.1435425,9.587264,-0.6610254
81611197017522,-2.2129982000000004,9.462723,-0.72569096
81611216871089,-2.4093897,9.501043,-0.9148975
81611236735860,-2.4333397999999997,9.501043,-0.96040285
81611256589685,-2.3950195,9.4507475,-0.86939216
81611276443510,-2.3950195,9.4435625,-0.8478370000000001
81611296297335,-2.2489235,9.268726,-0.8382569
81611316151160,-2.2848487,9.477093,-0.9268726
81611336007573,-2.44292,9.659114,-0.9508228000000001
81611355861526,-2.2968237,9.534574000000001,-0.85741705
81611375715479,-2.179468,9.510622999999999,-0.70174074
81611395569432,-2.2537133999999996,9.515413,-0.7065308000000001
81611415431681,-2.3638844,9.594449000000001,-0.81909674
81611435285890,-2.3662794,9.611214,-0.9412427
81611455140099,-2.4644752,9.524992999999998,-0.82388675
81611474994180,-2.5890162,9.383687,-0.7568262
81611494848389,-2.6369166,9.400452,-0.7759864000000001
81611514702598,-2.6225464,9.472302,-0.7783814
81611534572733,-2.567461,9.606423,-0.7592211999999999
81611554427326,-2.4812402999999996,9.5489435,-0.72569096
81611574281919,-2.3686745,9.477093,-0.7041358
81611594136384,-2.1650977000000005,9.448353,-0.7448511
81611613990977,-2.0285816000000003,9.474698,-0.7089258
81611633851864,-1.9639161,9.539363,-0.613125
81611653706713,-1.9974464,9.508227999999999,-0.613125
81611673561562,-2.0022363999999997,9.558523,-0.6682104999999999
81611693418051,-2.095642,9.620794,-0.6777906
81611713273028,-2.179468,9.627979,-0.62749517
81611733127877,-2.2177882,9.503438000000001,-0.62989014
81611752986382,-2.2896388,9.460327000000001,-0.69216067
81611772841356,-2.3662794,9.419611999999999,-0.6706055000000001
81611792696461,-2.4716603999999998,9.560919,-0.5676197
81611812551564,-2.2824538,9.611214,-0.58198977
81611832401952,-2.3064039000000003,9.599238,-0.68018556
81611852256929,-2.3974147,9.501043,-0.7951465
81611872111904,-2.3662794,9.357342,-0.6346801999999999
81611891967008,-2.327959,9.374106,-0.5724097
81611911821985,-2.411785,9.347761,-0.6322852
81611931668269,-2.411785,9.429193,-0.6777906
81611951522989,-2.3614892999999997,9.501043,-0.67539555
81611971377838,-2.2824538,9.666299,-0.60833496
81611991232685,-2.1483326000000003,9.532178,-0.5987549
81612011087405,-2.198628,9.558523,-0.62989014
81612030942254,-2.179468,9.68067,-0.69695073
81612050786552,-2.1842580000000003,9.307046000000001,-0.69695073
81612070641144,-2.3566992,9.369317,-0.6562354
81612090495609,-2.4620802000000004,9.429193,-0.5604346
81612110350200,-2.4045997000000003,9.472302,-0.6706055000000001
81612130199179,-2.4620802000000004,9.618399,-0.6586304000000001
81612150053644,-2.4165747000000004,9.642349000000001,-0.6777906
81612169907979,-2.4788454,9.536968,-0.7113208000000001
81612189762315,-2.3902297000000003,9.410032000000001,-0.7113208000000001
81612209616652,-2.3327491,9.3309965,-0.72569096
81612229468904,-2.4333397999999997,9.342972,-0.7113208000000001
81612249323112,-2.4644752,9.374106,-0.6394701999999999
81612269177321,-2.4093897,9.472302,-0.6179150999999999
81612289031528,-2.3614892999999997,9.582474000000001,-0.69216067
81612308885608,-2.3686745,9.568104,-0.72569096
81612328739817,-2.4716603999999998,9.489068,-0.6777906
81612348590488,-2.4357349999999998,9.469908,-0.6706055000000001
81612368444569,-2.3710694,9.395662,-0.67539555
81612388298778,-2.3734642999999997,9.426797,-0.7041358
81612408152859,-2.440525,9.460327000000001,-0.6490503000000001
81612428000096,-2.4764502,9.565708,-0.6346801999999999
81612447854177,-2.4644752,9.604028999999999,-0.6586304000000001
81612467708128,-2.4668702999999996,9.5489435,-0.6514453
81612487562080,-2.3878345000000003,9.419611999999999,-0.7664063
81612507416033,-2.3519094,9.295072,-0.7831714
81612527270112,-2.3710694,9.438772,-0.7089258
81612547119572,-2.311194,9.455538,-0.71371585
81612566973525,-2.3950195,9.472302,-0.7376661
81612586827348,-2.4189699,9.577683,-0.73048097
81612606681300,-2.3734642999999997,9.671089,-0.7759864000000001
81612626535125,-2.3255641,9.616004,-0.7711963000000001
81612646376928,-2.3614892999999997,9.410032000000001,-0.7711963000000001
81612666230624,-2.4141798,9.249566,-0.8334668
81612686084321,-2.4884255,9.271121,-0.76880133
81612705937888,-2.44292,9.515413,-0.68018556
81612725790030,-2.3686745,9.596844,-0.69695073
81612745643599,-2.440525,9.606423,-0.76401126
81612765497166,-2.3327491,9.656719,-0.9508228000000001
81612785350734,-2.3375392,9.577683,-0.91010743
81612805204431,-2.3686745,9.498648,-0.90771246
81612825057998,-2.5123756,9.307046000000001,-0.7592211999999999
81612844905526,-2.5027955000000004,9.266331,-0.7448511
81612864759095,-2.411785,9.362132,-0.76161623
81612884612534,-2.3734642999999997,9.568104,-0.88376224
81612904465974,-2.459685,9.493857,-0.84065187
81612924319415,-2.430945,9.572892999999999,-0.84544194
81612944166041,-2.3998096,9.498648,-0.8478370000000001
81612964019353,-2.4213647999999997,9.527389,-0.87418216
81612983872538,-2.4716603999999998,9.479486999999999,-0.73048097
81613003725849,-2.454895,9.429193,-0.66342044
81613023579033,-2.4165747000000004,9.498648,-0.7376661
81613043432346,-2.3806496,9.486672,-0.79993653
81613063287151,-2.3016137999999997,9.527389,-0.78556645
81613083140463,-2.299219,9.572892999999999,-0.7424561
81613102993648,-2.2800586,9.594449000000001,-0.71371585
81613122846831,-2.2848487,9.546548,-0.79754156
81613142691159,-2.3543043,9.455538,-0.87178713
81613162544216,-2.4069947999999997,9.445957,-0.85023195
81613182397399,-2.3782544,9.491463000000001,-0.82388675
81613202250455,-2.440525,9.5633135,-0.8286768
81613222103512,-2.4956105,9.496253,-0.89573735
81613241946232,-2.5411158,9.448353,-0.87178713
81613261799032,-2.5099807000000003,9.457932000000001,-0.84544194
81613281651833,-2.3830445,9.4435625,-0.8167017
81613301504760,-2.2848487,9.448353,-0.7544312
81613321357560,-2.2585034,9.438772,-0.7592211999999999
81613341210489,-2.198628,9.510622999999999,-0.7879615
81613361067229,-2.1842580000000003,9.663903999999999,-0.8047266
81613380920157,-2.1818627999999998,9.582474000000001,-0.728086
81613400773086,-2.2129982000000004,9.544153,-0.68018556
81613420625885,-2.2393433999999997,9.520203,-0.69695073
81613440489565,-2.2297632999999997,9.462723,-0.7592211999999999
81613460342622,-2.2632935,9.455538,-0.76161623
81613480195677,-2.2824538,9.527389,-0.7089258
81613500048733,-2.2177882,9.577683,-0.732876
81613519901918,-2.1507277,9.654325,-0.8095166
81613539765688,-2.1698877999999997,9.604028999999999,-0.7951465
81613559618872,-2.2249732000000004,9.445957,-0.7783814
81613579472185,-2.2680835999999998,9.237591,-0.7376661
81613599325496,-2.2369482999999994,9.400452,-0.7065308000000001
81613619178680,-2.2225783,9.479486999999999,-0.66342044
81613639031993,-2.2441335,9.618399,-0.68018556
81613658895312,-2.2656887,9.616004,-0.7496411000000001
81613678748752,-2.2848487,9.570497999999999,-0.7089258
81613698602065,-2.2585034,9.611214,-0.6849755999999999
81613718455504,-2.2369482999999994,9.541758999999999,-0.61552006
81613738325690,-2.2680835999999998,9.414823,-0.60833496
81613758179515,-2.318379,9.378897,-0.5724097
81613778035485,-2.2872437999999997,9.465117,-0.6059399999999999
81613797889309,-2.2920337,9.596844,-0.5939649
81613817743006,-2.2608986,9.656719,-0.6322852
81613837596829,-2.2393433999999997,9.630374,-0.6322852
81613857461582,-2.1962330000000003,9.565708,-0.67539555
81613877315663,-2.2058132,9.438772,-0.6562354
81613897169742,-2.2968237,9.362132,-0.55803955
81613917023822,-2.2728736,9.390872,-0.5245093000000001
81613936878031,-2.2249732000000004,9.455538,-0.5987549
81613956741996,-2.2249732000000004,9.5561285,-0.6777906
81613976596460,-2.2249732000000004,9.627979,-0.61073
81613996450797,-2.1818627999999998,9.6686945,-0.6011499
81614016305132,-2.1746778,9.64714,-0.5939649
81614036164124,-2.1962330000000003,9.544153,-0.6322852
81614056018717,-2.1962330000000003,9.366921000000001,-0.5987549
81614075873180,-2.2129982000000004,9.383687,-0.51732427
81614095727772,-2.2321582,9.467513,-0.5005590999999999
81614115582237,-2.2225783,9.553733,-0.56522465
81614135436828,-2.2082080000000004,9.592053,-0.61073
81614155255018,-2.201023,9.651928999999999,-0.6227050999999999
81614175108843,-2.1818627999999998,9.616004,-0.5676197
81614194962794,-2.198628,9.529783,-0.5724097
81614214816746,-2.2321582,9.441168,-0.5891748
81614234670571,-2.2704787,9.419611999999999,-0.59156984
81614254531917,-2.2465284,9.410032000000001,-0.58677983
81614274385997,-2.2129982000000004,9.529783,-0.5724097
81614294239950,-2.0549269,9.654325,-0.5963599
81614314094029,-1.9974464,9.690249,-0.62031007
81614333952309,-1.9399658,9.644744000000001,-0.6490503000000001
81614353806518,-2.0094216,9.551338000000001,-0.63707525
81614373660725,-2.0429518,9.460327000000001,-0.5604346
81614393514805,-2.0525317,9.438772,-0.51492923
81614413369014,-2.0836669999999997,9.513017999999999,-0.5604346
81614433223221,-2.1100123,9.582474000000001,-0.58677983
81614453078211,-2.191443,9.649534,-0.59156984
81614472932292,-2.1818627999999998,9.627979,-0.6610254
81614492786499,-2.2656887,9.596844,-0.6490503000000001
81614512640707,-2.3423293,9.474698,-0.6442603
81614532494916,-2.440525,9.350157000000001,-0.6993457
81614552356251,-2.4908203999999996,9.335787,-0.70174074
81614572210587,-2.4788454,9.383687,-0.68018556
81614592064924,-2.4022048,9.489068,-0.6945557
81614611919259,-2.3830445,9.604028999999999,-0.7807764
81614631774711,-2.3255641,9.553733,-0.86220706
81614651629048,-2.318379,9.520203,-0.7592211999999999
81614671483511,-2.2608986,9.515413,-0.7113208000000001
81614691337847,-2.2489235,9.489068,-0.732876
81614711192312,-2.3255641,9.4435625,-0.68018556
81614731046775,-2.2848487,9.455538,-0.6466553
81614750893981,-2.3135889,9.489068,-0.7424561
81614770748190,-2.3614892999999997,9.577683,-0.76401126
81614790602397,-2.3830445,9.582474000000001,-0.67539555
81614810456605,-2.3734642999999997,9.546548,-0.68018556
81614830310686,-2.3590944,9.522598,-0.7807764
81614850152697,-2.3758595000000002,9.460327000000001,-0.88376224
81614870006521,-2.4620802000000004,9.386082,-0.80712163
81614889860346,-2.4165747000000004,9.410032000000001,-0.75203615
81614909714169,-2.4141798,9.489068,-0.71371585
81614929567865,-2.3638844,9.72857,-1.0083033000000001
81614949421690,-2.323169,9.208851,-0.7113208000000001
81614969272630,-2.3950195,9.532178,-0.7783814
81614989126326,-2.299219,9.604028999999999,-0.97237796
81615008980023,-2.1195923999999997,9.422008,-0.7664063
81615028833718,-2.1627028,9.4435625,-0.76161623
81615048690583,-2.1746778,9.592053,-0.92926764
81615068544408,-2.1507277,9.580078,-0.8669971
81615088398103,-2.1124072,9.558523,-0.77359134
81615108251799,-1.951941,9.606423,-0.8646021
81615128105624,-1.8417700000000001,9.814791,-1.0562036
81615147965864,-1.9064356,9.721385,-0.9987232
81615167819688,-2.215393,9.268726,-0.7592211999999999
81615187673641,-2.5195606,9.465117,-0.8382569
81615207527464,-2.8548633999999997,9.474698,-0.9244776
81615227381288,-2.9482691,9.342972,-0.8765772
81615247235241,-2.931504,9.299861,-0.64186525
81615267093350,-2.9027638,9.390872,-0.67539555
81615286947430,-2.5530908,9.122630000000001,-0.60833496
81615306801383,-2.2321582,9.546548,-1.1064991000000002
81615326655334,-2.0836669999999997,9.70941,-1.1975098
81615346515620,-2.1004322,9.472302,-0.9388476999999998
81615366369829,-2.2800586,9.522598,-0.8382569
81615386223908,-2.3471193,9.417216999999999,-0.88376224
81615406078116,-2.4764502,9.465117,-0.77359134
81615425932325,-2.6153615,9.503438000000001,-0.6610254
81615445792492,-2.692002,9.481883,-0.7089258
81615465646828,-2.4620802000000004,9.491463000000001,-0.7496411000000001
81615485501165,-2.1962330000000003,9.362132,-0.8478370000000001
81615505355500,-2.1339624,9.481883,-1.1112891000000003
81615525209836,-1.9375708999999999,9.862691,-1.1567944
81615545064301,-2.0237916,9.496253,-0.6322852
81615564927017,-2.3710694,9.522598,-0.6849755999999999
81615584781737,-2.5411158,9.462723,-0.86220706
81615604636330,-2.703977,9.364527,-0.73527104
81615624490921,-2.7087672,9.572892999999999,-0.7592211999999999
81615644346049,-2.5411158,9.611214,-1.0106983
81615664200770,-2.44292,9.297466,-0.9867481
81615684055489,-2.2441335,9.2328005,-0.82388675
81615703910337,-2.0142113999999998,9.4507475,-0.7664063
81615723765058,-2.2297632999999997,9.553733,-0.7927515
81615743600803,-2.4357349999999998,9.472302,-0.7759864000000001
81615763454883,-2.4644752,9.371711999999999,-0.80233157
81615783308964,-2.4261549,9.68067,-0.9148975
81615803164753,-2.1770728,9.764495,-1.0322535
81615823018833,-2.0525317,9.505833,-0.92926764
81615842872914,-2.2561085,9.254355,-0.7783814
81615862723543,-2.5842261000000004,9.436378,-0.9532178
81615882577623,-2.5938063,9.560919,-1.0106983
81615902431704,-2.6560767000000003,9.5633135,-0.9268726
81615922285783,-2.7734327000000003,9.539363,-0.8430469
81615942137961,-2.6536817999999998,9.436378,-0.8765772
81615961991914,-2.430945,9.364527,-0.8286768
81615981845993,-2.0261867,9.359736,-0.91250247
81616001699945,-2.0621118999999997,9.278306,-0.7807764
81616021554026,-2.4740553,9.426797,-0.9029224
81616041407977,-2.7518775,9.479486999999999,-0.8478370000000001
81616061261813,-2.5866213,9.414823,-1.0083033000000001
81616081115766,-2.2608986,9.474698,-1.0083033000000001
81616100969845,-2.179468,9.522598,-0.6442603
81616120823797,-2.1698877999999997,9.6758795,-0.855022
81616140677750,-2.1650977000000005,9.72857,-1.2094848999999999
81616160534907,-2.2585034,9.472302,-1.0849438999999999
81616180388987,-2.3638844,9.316627,-0.87897223
81616200243068,-2.411785,9.393267,-0.7065308000000001
81616220097275,-2.3926246,9.436378,-0.7376661
81616239953293,-2.4333397999999997,9.587264,-0.84544194
81616259807374,-2.3806496,9.659114,-0.9580079
81616279661581,-2.2680835999999998,9.587264,-0.9412427
81616299515661,-2.193838,9.496253,-0.8981324
81616319369870,-2.1674929,9.287886,-0.96758795
81616339223949,-2.1962330000000003,9.19927,-0.9651929
81616359078485,-2.4980054,9.357342,-0.91729254
81616378932694,-2.7686427000000005,9.489068,-0.9316626
81616398786773,-2.7375073,9.589659,-0.94603276
81616418640981,-2.6608667,9.663903999999999,-1.0106983
81616438495190,-2.4956105,9.460327000000001,-1.0442286
81616458333576,-2.5051906,9.309442,-1.0035132
81616478187400,-2.5387207999999997,9.244776,-0.97237796
81616498041225,-2.7087672,9.378897,-0.9053174
81616517894920,-2.8380982999999995,9.354947,-0.87418216
81616537748207,-2.7542725,9.398057000000001,-0.9053174
81616557601904,-2.6560767000000003,9.445957,-0.88376224
81616577455727,-2.6393116,9.517808,-0.98195803
81616597309423,-2.6656568,9.491463000000001,-0.98914313
81616617163248,-2.5985963,9.472302,-0.9196875
81616637016943,-2.6824220000000003,9.436378,-1.0059083
81616656852932,-2.7207422,9.414823,-0.7831714
81616676706373,-2.4141798,9.177715,-0.72569096
81616696559684,-2.1435425,9.433982,-0.8334668
81616716413124,-2.0237916,9.560919,-0.89573735
81616736266437,-2.069297,9.616004,-0.8478370000000001
81616756127135,-1.9854711999999999,9.608819,-0.852627
81616775980703,-1.9160157,9.570497999999999,-0.83586186
81616795834272,-2.047742,9.460327000000001,-0.7711963000000001
81616815687711,-2.2489235,9.422008,-0.7879615
81616835540285,-2.2824538,9.275911,-0.8813671999999999
81616855393726,-2.3447242000000004,9.295072,-0.9196875
81616875247165,-2.311194,9.314231,-0.9148975
81616895100605,-2.3327491,9.510622999999999,-0.91729254
81616914954046,-2.2800586,9.486672,-0.977168
81616934807485,-2.2058132,9.342972,-1.0370435
81616954663174,-2.2680835999999998,9.374106,-1.0322535
81616974516615,-2.3543043,9.218430499999998,-1.0466236
81616994370182,-2.5219557,9.14179,-1.0274634
81617014223622,-2.668052,9.220825,-1.0154883
81617034077063,-2.7159522000000003,9.280700999999999,-0.9196875
81617053939401,-2.7135572,9.369317,-1.0202783000000002
81617073792969,-2.675237,9.414823,-1.0753639
81617093646666,-2.6177563999999998,9.398057000000001,-1.0059083
81617113500361,-2.4788454,9.398057000000001,-0.9963281999999999
81617133356305,-2.430945,9.364527,-1.0394385
81617153210002,-2.4836354,9.307046000000001,-1.0490186000000001
81617173063697,-2.5004005,9.307046000000001,-0.974773
81617192917393,-2.4644752,9.287886,-0.9699829
81617212771218,-2.5027955000000004,9.304651,-1.0059083
81617232624913,-2.5099807000000003,9.280700999999999,-1.0514137
81617252481175,-2.5195606,9.354947,-1.0466236
81617272334872,-2.5099807000000003,9.371711999999999,-1.089734
81617292188695,-2.5698562000000003,9.374106,-1.0298585
81617312042391,-2.4764502,9.321417,-1.0250684
81617331896216,-2.3758595000000002,9.333391,-1.0777588
81617351754653,-2.3782544,9.402847,-1.1376343
81617371608477,-2.3902297000000003,9.398057000000001,-1.1112891000000003
81617391462430,-2.311194,9.369317,-1.096919
81617411316253,-2.3902297000000003,9.359736,-1.1639795
81617431170205,-2.5267458,9.235196,-1.1807446000000001
81617451024030,-2.5985963,9.168135000000001,-1.0274634
81617470878694,-2.5866213,9.228010000000001,-0.99393314
81617490732646,-2.4932152999999997,9.309442,-1.094524
81617510586471,-2.44771,9.388477,-1.1112891000000003
81617530440294,-2.3255641,9.467513,-1.1496094
81617550304037,-2.3135889,9.383687,-1.1472143999999997
81617570158118,-2.327959,9.354947,-1.1759547
81617590012197,-2.3327491,9.326205999999999,-1.1112891000000003
81617609866277,-2.3998096,9.249566,-1.0633887
81617629720230,-2.4980054,9.235196,-1.0370435
81617649574862,-2.5363257000000003,9.307046000000001,-1.1328443000000001
81617669428942,-2.5171657000000005,9.393267,-1.1112891000000003
81617689283023,-2.430945,9.376502,-1.0322535
81617709137230,-2.3064039000000003,9.381292,-1.1591895
81617728991310,-2.2129982000000004,9.381292,-1.219065
81617748845391,-2.189048,9.24717,-1.1639795
81617768702882,-2.2537133999999996,9.201666000000001,-1.0130934
81617788557090,-2.2201831000000003,9.266331,-1.0921290000000001
81617808411299,-2.2680835999999998,9.347761,-1.1448194
81617828261755,-2.2944287999999995,9.386082,-1.0490186000000001
81617848117243,-2.2345533,9.453142,-0.977168
81617867971580,-2.1339624,9.4507475,-1.0562036
81617887825915,-2.1579127000000002,9.438772,-1.0921290000000001
81617907680123,-2.2177882,9.400452,-1.0250684
81617927534460,-2.2273683999999996,9.323812,-0.9915381
81617947388777,-2.179468,9.218430499999998,-1.0202783000000002
81617967243113,-2.0932472,9.235196,-1.0729688
81617987097578,-2.0405567,9.304651,-1.1783496
81618006951913,-2.2106032000000004,9.484278,-1.1064991000000002
81618026806377,-2.3471193,9.5561285,-1.0011181999999998
81618046660842,-2.4692652,9.517808,-0.9268726
81618066511855,-2.4908203999999996,9.237591,-0.77359134
81618086366191,-2.2704787,9.290281,-0.88376224
81618106220528,-2.1004322,9.424402,-1.1256591999999999
81618126074735,-2.0932472,9.388477,-1.1759547
81618145931582,-2.0453467,9.328602,-1.2046948999999998
81618165786047,-1.9615209999999998,9.402847,-1.3675561999999999
81618185640382,-2.0621118999999997,9.417216999999999,-1.4130616000000003
81618205494846,-2.1411476,9.285491,-1.3939015
81618225349183,-1.9016455,9.290281,-1.3651612
81618245203646,-1.7004639,9.3309965,-1.3364209999999999
81618265042372,-1.6070582,9.280700999999999,-1.3603711
81618284896325,-1.585503,9.261541000000001,-1.2502003000000002
81618304750276,-1.5567628,9.515413,-1.1567944
81618324604228,-1.5160475,9.6686945,-1.1999048
81618344458309,-1.7268091,9.687855,-0.7783814
81618364315850,-1.8226098999999998,9.486672,-0.5292993
81618384169930,-1.7387843,9.431587,-0.7568262
81618404024011,-1.7028589,9.565708,-0.90052736
81618423877962,-1.5591576999999999,9.426797,-1.0035132
81618443724447,-1.5352076000000001,9.338181500000001,-1.1567944
81618463578272,-1.5040723,9.374106,-1.0538087
81618483432223,-1.4513819,9.436378,-0.81909674
81618503286047,-1.4274316999999999,9.498648,-0.65384036
81618523139872,-1.4513819,9.496253,-0.73048097
81618542993823,-1.5519726999999999,9.366921000000001,-0.96758795
81618562849896,-1.463357,9.414823,-1.1184741000000002
81618582703849,-1.4010864,9.481883,-0.7831714
81618602557672,-1.4729371,9.295072,-0.9148975
81618622411624,-1.5328126,8.868757,-1.6980689999999998
81618642265448,-1.6357985000000002,9.17053,-1.6046631000000002
81618662118717,-2.0046315,9.254355,-1.2478052
81618681972669,-2.1650977000000005,9.613608000000001,-0.84065187
81618701826621,-2.5267458,10.439891000000001,-0.72569096
81618721680445,-2.43813,10.902128999999999,-0.58198977
81618741534397,-1.9471509999999999,10.981164999999999,-0.62749517
81618761384899,-0.9388476999999998,11.177557,-0.8286768
81618781238723,-0.68737066,11.7930765,-0.29698244
81618801092547,-0.7664063,11.5751295,0.31374758
81618820946371,-1.0921290000000001,11.179952,1.2717555
81618840800195,-1.0466236,10.526112,0.86939216
81618860643924,-0.87178713,13.048067,-2.2465284
81618880497492,-0.19160157,14.853910999999998,-5.0415163
81618900351060,0.5340894,12.4612875,-2.9698243
81618920204628,-0.19160157,10.633887,-1.1041040000000002
81618940058196,-2.7542725,9.807606,-1.0801538
81618959915946,-2.2489235,10.018367,-1.3986914
81618979769642,-2.1866529999999997,11.488909,-0.028740235
81618999623210,-1.5663428,11.02667,1.7579445
81619019476906,-2.2872437999999997,10.87818,1.4920973
81619039330475,-2.6728419999999997,11.510465,-1.5639478
81619059184138,-2.8380982999999995,10.633887,-3.5685792000000003
81619079037707,-0.5939649,9.21364,-3.4512233999999995
81619098891400,1.6980689999999998,8.1071415,-1.4298267
81619118744969,0.21076173,8.315508,3.2883620000000002
81619138598536,-1.5088624,9.012459,2.430945
81619158456395,-1.8106349,7.5874224,-0.87178713
81619178310219,-2.0070264,6.514453400000001,-2.8668384999999996
81619198163915,-1.8633252,6.720425,-1.0226734
81619218017739,-1.1879296999999998,6.325247,1.8609301999999999
81619237871435,-1.5639478,5.8198977,2.2728736
81619257730464,-2.44771,6.1863356,2.3686745
81619277584289,-2.2896388,6.047425,2.2824538
81619297438114,-1.4058765,5.704937,2.3447242000000004
81619317291939,-0.55324954,5.470225,2.9602442000000004
81619337145764,-0.50534916,5.752837,3.4152980000000004
81619356999589,-0.48618898,6.6533647,3.532654
81619376849328,-0.15088624,8.610096,4.0667434
81619396703025,-0.5484595,11.292518,4.1864944
81619416556850,-1.4082716,13.97015,5.46304
81619436410675,-1.6286133999999999,14.453942999999999,7.031778
81619456264372,-1.0657837,11.424244,7.5012016
81619476120963,-1.8130298999999999,7.4676714,6.567144
81619495974788,-2.8668384999999996,7.4940166,5.566025700000001
81619515828613,-4.406836,11.120076,1.4944923
81619535682438,-4.5146120000000005,14.238392000000001,-5.0439115
81619555536263,-4.8283596,19.742147,-0.48618898
81619575386576,-0.85023195,12.228971000000001,-0.3784131
81619595240273,-0.50774413,6.6126494000000005,-3.4009278
81619615094098,0.13651612,6.198311,-2.4908203999999996
81619634947795,-0.05508545,7.2569094,-2.2608986
81619654801492,-0.20118165,10.085427000000001,-6.516848599999999
81619674654999,0.21076173,10.873389,-5.951624
81619694508696,-1.5232325,9.948912,-0.5556446
81619714362502,-4.1314087,10.480606,13.450429999999999
81619734216199,-2.327959,8.734636,3.3817677
81619754070024,-0.1580713,6.559958999999999,-4.021237999999999
81619773927879,-2.0501368,7.067703,0.06227051
81619793781701,-1.4394068000000002,8.703502,0.6394701999999999
81619813635525,-0.38080812,9.831555,0.19160157
81619833486800,-0.19639161,9.877061,0.22752686
81619853340624,-1.1735597,9.261541000000001,-0.36164796
81619873194500,-2.0621118999999997,8.854387,-0.51492923
81619893048324,-2.2752686,9.235196,-0.07903565
81619912902148,-1.6190332,9.850716,-0.6490503000000001
81619932755972,-0.76880133,10.39678,-0.9963281999999999
81619952609668,-0.6730005,11.223061999999999,0.011975098
81619972467387,-0.45984375,11.936778,0.70174074
81619992321339,-0.2083667,11.721226,-0.047900394000000006
81620012175291,-0.014370117,11.441009,-0.7807764
81620032029243,0.21555176,11.426639,-0.5939649
81620051883195,0.7544312,11.567945,-0.6586304000000001
81620071741499,0.32093263,13.127103,-2.2177882
81620091595579,-1.2070899,14.573694,-2.7207422
81620111449531,-3.056045,11.697275999999999,0.24668702
81620131303483,-2.6967921,9.702225,1.1951148999999999
81620151157435,-1.4226416000000002,12.4684725,-1.2621753
81620171011076,0.6706055000000001,14.851517000000001,-4.382886
81620190865157,0.28740236,15.009588,-3.5422339999999997
81620210719236,-0.26105714,13.912669000000001,-2.8309132999999997
81620230573188,1.6717237,11.852952,-2.3902297000000003
81620250427268,3.0799952,9.6686945,3.6452197999999996
81620270287857,1.3388159,9.043594,0.27542725
81620290141937,-0.75203615,8.432864,-5.5492606
81620309996145,0.44307864,6.809041000000001,-8.214917
81620329850354,1.3364209999999999,6.8761015,-4.9576907
81620349704435,-1.4441968,7.5251517,-1.8896705000000003
81620369560246,-4.584067299999999,6.8808913,0.42870852
81620389414455,-5.4678297,5.7696023,1.7747096000000002
81620409268664,-4.490661599999999,6.06419,1.7962648
81620429123001,-3.1398706,6.943161999999999,1.8202148999999999
81620448977210,-3.1207106,7.2593045,1.3579761000000001
81620468817295,-2.7279273999999996,7.4748564,1.4825171
81620488671120,-1.3795313,7.606582,2.4644752
81620508525073,-0.7185059,8.313113000000001,3.2093263
81620528378898,0.28740236,10.612332,4.722978599999999
81620548232851,3.1734009999999997,14.329403,6.981482000000001
81620568084440,5.431904299999999,14.568904999999999,3.6092947
81620587938265,4.842729599999999,9.702225,-0.87418216
81620607792218,4.2104445,8.686736,-1.1424243
81620627646043,1.3819263000000002,11.826607000000001,-4.9217653
81620647499868,-2.5291407,16.168777,-7.189849000000001
81620667351889,-5.745652,18.38896,6.550379
81620687205714,-3.0823902999999997,6.5240335,10.178833000000001
81620707059539,-2.1387525000000003,3.3578174,-8.322693
81620726913364,-2.4644752,6.959927,-5.6905665
81620746767169,-4.3134303,12.061319000000001,-10.236314
81620766616574,-2.8141482000000004,12.485237,-5.781577599999999
81620786470270,-2.4860303,11.03625,3.9302273000000003
81620806323966,-1.8992506000000002,10.181229,5.6450615
81620826177790,-1.5423926000000001,7.28565,-0.05748047
81620846031486,-1.7292042,7.072493,-1.5663428
81620865881173,-1.9351758999999997,8.816068,-0.5676197
81620885734869,-2.6896071,9.592053,1.1400293
81620905588565,-2.311194,8.849598,1.6142433
81620925442261,-1.5687379,8.751402,-0.87418216
81620945295957,-1.7387843,9.216036,-2.3974147
81620965145609,-1.7675245,8.945397999999999,-1.9782863000000002
81620984999177,-1.9040406000000003,9.321417,-0.9699829
81621004852745,-2.5075855,9.663903999999999,0.009580079
81621024706313,-2.565066,9.275911,-0.46942386
81621044559881,-1.7076490000000002,8.854387,-2.193838
81621064415619,-2.1459377,9.21364,-1.1136841999999998
81621084269187,-2.0381618,9.867481,-1.6908839
81621104122755,-1.4609618999999998,11.757152,-1.9639161
81621123976323,-1.4394068000000002,12.279264999999999,-1.334026
81621143830020,-1.0777588,12.051739,-0.94603276
81621163682809,-0.17483643,12.578643,-1.3939015
81621183536375,0.34248779999999995,13.119917999999998,-2.4956105
81621203389815,-0.5891748,13.778548,-1.8633252
81621223243383,-0.5221143,13.210928,-1.5112573999999999
81621243096951,-0.21555176,10.389595,-2.2082080000000004
81621262952731,-2.938689,8.708291000000001,-2.1507277
81621282806299,-5.0918117,8.966953,-1.3028906999999998
81621302659867,-4.785248999999999,10.851834,-1.9639161
81621322513307,-3.9278321000000003,10.483001,-2.3614892999999997
81621342366875,-4.5601172,10.7871685,-0.8765772
81621362216320,-4.4643164,11.910433,0.852627
81621382069760,-4.8666797,10.715318,0.08622070400000001
81621401923200,-5.8270826,9.994417,-0.8286768
81621421776640,-4.5816726999999995,9.829161000000001,0.5412744
81621441630080,-2.2489235,9.316627,0.8861573
81621461489054,-0.60354495,7.8556643,-0.9867481
81621481342494,-1.8513502,7.017407400000001,-1.8992506000000002
81621501196062,-1.7699194999999999,6.375542,-1.22625
81621521049630,-1.6501685000000001,6.327642,-0.18441652
81621540903070,-2.4620802000000004,6.737190200000001,0.5484595
81621560761781,-2.2680835999999998,6.332432,1.1663746000000002
81621580615349,-3.4009278,5.855823,2.2848487
81621600468917,-3.06323,5.961204,3.7242556
81621620322613,-2.0621118999999997,6.974297,3.7122805
81621640176181,-1.6166383,8.47837,3.1829810000000003
81621660035399,-1.3843212999999999,9.1202345,2.6704468999999995
81621679889223,-1.3100758,8.54543,1.2933106
81621699743047,-0.98195803,8.260423,0.7783814
81621719596743,-0.30416748,8.931028,-0.21076173
81621739450567,0.27542725,9.963282000000001,-0.8262818000000001
81621759305610,1.3555812,10.655441999999999,0.43349856
81621779159434,2.2776637,10.511742,2.2632935
81621799013258,1.7579445,9.982442,2.9674294
81621818866954,-0.39757326,10.037527,2.7135572
81621838720778,-1.5495777,11.031461,2.5842261000000004
81621858583655,-2.8931837000000002,11.977492999999999,0.62031007
81621878437735,-4.296665,12.73432,-1.7818946
81621898291687,-4.761299,11.848162,-0.977168
81621918145639,-3.4272730000000005,9.14179,-0.17723145
81621937999719,-2.0836669999999997,8.099956500000001,-1.2981006000000002
81621957853927,-1.7579445,9.1849,-1.4202466
81621977708007,-2.2441335,11.646980000000001,-0.5748047
81621997562215,-2.0501368,11.955938,-2.3710694
81622017416295,-1.4226416000000002,11.685300999999999,-2.8333082000000003
81622037270375,-0.94603276,11.091336,0.41912845
81622057124449,-1.1328443000000001,9.908196,0.9388476999999998
81622076978529,-1.4825171,8.665181,-0.977168
81622096832609,-2.315984,9.053174,-0.6179150999999999
81622116686689,-2.1627028,9.383687,-0.9148975
81622136540769,-1.7507593999999997,8.756192,-2.1243825000000003
81622156394849,-1.9926563999999998,8.899892999999999,-1.6980689999999998
81622176251801,-2.1100123,9.642349000000001,-0.56522465
81622196106009,-1.9136206999999998,9.970467,-0.009580079
81622215960089,-1.7699194999999999,10.142908,0.32332766
81622235814169,-1.4274316999999999,10.121353,0.41912845
81622255668377,-1.0226734,9.980047,-0.32093263
81622275512654,-1.0466236,9.8938265,-0.6586304000000001
81622295366606,-1.3100758,9.936936,-1.1184741000000002
81622315220558,-1.5639478,9.905801,-1.4130616000000003
81622335074510,-1.6789087,9.599238,-1.3651612
81622354928462,-1.6980689999999998,9.695039999999999,-1.2669654
81622374789301,-1.3292358999999998,9.872271000000001,-1.1831397
81622394643381,-1.7627343999999998,10.063872,-0.8310718
81622414497461,-1.9974464,9.903406,-0.7807764
81622434351541,-1.6932789000000001,9.704619000000001,-1.22146
81622454205621,-2.0237916,9.584868,-1.4130616000000003
81622474035965,-2.6560767000000003,9.592053,-1.0059083
81622493889533,-2.7111623,9.333391,-0.6322852
81622513743229,-2.2704787,9.314231,-0.87897223
81622533596797,-1.9327808999999998,9.77647,-1.0202783000000002
81622553450365,-1.5423926000000001,9.867481,-1.346001
81622573301214,-1.4034815,9.812395,-1.3124708
81622593154782,-1.8609301999999999,9.5633135,-0.81909674
81622613008350,-2.4884255,9.438772,-0.4023633
81622632861790,-2.5530908,9.587264,-0.64186525
81622652715358,-2.5267458,9.795630000000001,-0.7592211999999999
81622672568282,-2.567461,9.987232,-0.5125342
81622692421850,-2.699187,10.066267999999999,-0.49337405
81622712275290,-2.7327175,10.145303,-0.46942386
81622732128730,-2.6129665,9.922566,-0.51732427
81622751982298,-2.5219557,9.587264,-0.8167017
81622771832751,-2.2561085,9.524992999999998,-0.9196875
81622791686191,-1.9160157,9.529783,-1.1831397
81622811539631,-2.0716919999999996,9.501043,-1.22625
81622831392943,-2.3734642999999997,9.460327000000001,-1.0753639
81622851246383,-2.4333397999999997,9.501043,-1.0562036
81622871104746,-2.4572902,9.522598,-0.9053174
81622890958186,-2.5051906,9.529783,-0.73527104
81622910811754,-2.454895,9.596844,-0.7544312
81622930665194,-2.3662794,9.6615095,-0.73527104
81622950518762,-2.3662794,9.733359,-0.6322852
81622970369250,-2.2968237,9.764495,-0.68018556
81622990222562,-2.2680835999999998,9.74773,-0.74006104
81623010076002,-2.2561085,9.68067,-0.7568262
81623029929314,-2.2680835999999998,9.644744000000001,-0.728086
81623049782754,-2.2872437999999997,9.604028999999999,-0.68018556
81623069641295,-2.3351439999999997,9.536968,-0.6466553
81623089494735,-2.3662794,9.594449000000001,-0.62989014
81623109348175,-2.3878345000000003,9.608819,-0.70174074
81623129201615,-2.43813,9.716595,-0.75203615
81623149055183,-2.4836354,9.73815,-0.728086
81623168914681,-2.459685,9.627979,-0.65384036
81623188768249,-2.3447242000000004,9.457932000000001,-0.7448511
81623208621817,-2.3471193,9.407638,-0.76161623
81623228475385,-2.4165747000000004,9.505833,-0.6706055000000001
81623248328953,-2.430945,9.611214,-0.60833496
81623268190230,-2.3974147,9.663903999999999,-0.6322852
81623288043926,-2.3495142,9.733359,-0.6825806
81623307897622,-2.3974147,9.654325,-0.73048097
81623327751446,-2.2776637,9.690249,-0.72569096
81623347605142,-2.2393433999999997,9.651928999999999,-0.71371585
81623367458051,-2.3902297000000003,9.570497999999999,-0.66342044
81623387311747,-2.3495142,9.572892999999999,-0.67539555
81623407165571,-2.308799,9.623189,-0.6514453
81623427019267,-2.2920337,9.68067,-0.6490503000000001
81623446872963,-2.2417382999999997,9.644744000000001,-0.70174074
81623466736233,-2.2297632999999997,9.687855,-0.7232959
81623486590185,-2.3064039000000003,9.642349000000001,-0.7065308000000001
81623506444137,-2.3351439999999997,9.599238,-0.69216067
81623526298090,-2.2656887,9.606423,-0.8167017
81623546152043,-2.3064039000000003,9.639954,-0.77359134
81623566009024,-2.2537133999999996,9.6686945,-0.71371585
81623585862977,-2.1746778,9.692644,-0.73527104
81623605717056,-2.1411476,9.695039999999999,-0.852627
81623625571008,-2.1842580000000003,9.6758795,-0.91250247
81623645425088,-2.1674929,9.639954,-0.87178713
81623665282815,-2.2489235,9.630374,-0.82388675
81623685137023,-2.2944287999999995,9.64714,-0.855022
81623704991103,-2.2656887,9.616004,-0.9148975
81623724845311,-2.3303542,9.611214,-0.8861573
81623744699391,-2.308799,9.520203,-0.9627979
81623764561826,-2.3064039000000003,9.489068,-1.0226734
81623784416290,-2.3135889,9.501043,-0.9699829
81623804270626,-2.315984,9.529783,-0.9867481
81623824125090,-2.3830445,9.448353,-1.0562036
81623843979554,-2.44292,9.412427000000001,-0.9987232
81623863833707,-2.4333397999999997,9.376502,-1.0202783000000002
81623883688043,-2.44292,9.378897,-1.0849438999999999
81623903542379,-2.5123756,9.484278,-1.099314
81623923396843,-2.555486,9.501043,-1.0083033000000001
81623943251179,-2.4572902,9.515413,-1.1352394
81623963110872,-2.5291407,9.431587,-1.1136841999999998
81623982965464,-2.5291407,9.469908,-1.0418334999999999
81624002820184,-2.4093897,9.484278,-1.0873389
81624022674776,-2.42855,9.390872,-1.0274634
81624042529496,-2.4644752,9.299861,-1.0514137
81624062378302,-2.44771,9.359736,-1.1041040000000002
81624082232766,-2.4836354,9.577683,-1.0777588
81624102087230,-2.4189699,9.64714,-1.0490186000000001
81624121941566,-2.42855,9.551338000000001,-1.099314
81624141796030,-2.4980054,9.407638,-1.1112891000000003
81624161640826,-2.4740553,9.386082,-1.1591895
81624181495163,-2.5315359,9.378897,-1.0322535
81624201349372,-2.4644752,9.388477,-0.9915381
81624221203578,-2.4261549,9.357342,-1.0370435
81624241057786,-2.4069947999999997,9.508227999999999,-1.1208692
81624260911663,-2.4189699,9.580078,-1.1160791
81624280765871,-2.3662794,9.493857,-1.0370435
81624300620079,-2.2441335,9.429193,-1.0849438999999999
81624320474287,-2.3519094,9.441168,-0.96758795
81624340328496,-2.2728736,9.513017999999999,-1.0202783000000002
81624360180119,-2.2680835999999998,9.448353,-0.91010743
81624380034328,-2.2129982000000004,9.429193,-0.94603276
81624399888409,-2.2824538,9.486672,-0.9987232
81624419742614,-2.2632935,9.616004,-1.0466236
81624439596694,-2.3327491,9.575289,-1.0346485
81624459445373,-2.3519094,9.484278,-0.98435307
81624479299325,-2.3447242000000004,9.419611999999999,-1.0681788
81624499153405,-2.3566992,9.4435625,-0.9651929
81624519007485,-2.1722827000000002,9.462723,-0.9963281999999999
81624538861565,-2.1411476,9.484278,-0.9915381
81624558714016,-2.201023,9.477093,-0.99393314
81624578567968,-2.2513185,9.577683,-1.0059083
81624598421920,-2.308799,9.627979,-0.9699829
81624618276000,-2.2920337,9.618399,-0.9196875
81624638129952,-2.2369482999999994,9.486672,-0.9651929
81624657969805,-2.2321582,9.469908,-0.95561284
81624677823501,-2.2513185,9.436378,-0.98914313
81624697677197,-2.320774,9.465117,-0.977168
81624717530893,-2.2968237,9.498648,-1.0274634
81624737384589,-2.2321582,9.513017999999999,-0.98914313
81624757238497,-2.2106032000000004,9.474698,-1.0609937
81624777092193,-2.2704787,9.467513,-1.0681788
81624796945889,-2.304009,9.580078,-1.0538087
81624816799585,-2.299219,9.539363,-0.9963281999999999
81624836653153,-2.2608986,9.412427000000001,-0.9651929
81624856505154,-2.2824538,9.417216999999999,-1.0370435
81624876358850,-2.2273683999999996,9.520203,-1.0035132
81624896212418,-2.1459377,9.517808,-1.0921290000000001
81624916066114,-2.1866529999999997,9.477093,-1.0657837
81624935919682,-2.2129982000000004,9.493857,-1.1088941
81624955770799,-2.203418,9.580078,-1.0873389
81624975624367,-2.2177882,9.539363,-1.0322535
81624995477807,-2.2225783,9.436378,-0.9987232
81625015331375,-2.1387525000000003,9.374106,-1.0873389
81625035184815,-2.1866529999999997,9.431587,-1.096919
81625055042969,-2.2082080000000004,9.625584,-1.0729688
81625074896537,-2.201023,9.635164,-1.0154883
81625094750233,-2.2345533,9.469908,-0.974773
81625114603801,-2.215393,9.481883,-1.1136841999999998
81625134457369,-2.2393433999999997,9.510622999999999,-1.0825489
81625154314137,-2.1579127000000002,9.517808,-1.0466236
81625174167833,-2.2106032000000004,9.493857,-0.97237796
81625194021401,-2.1722827000000002,9.484278,-0.974773
81625213875097,-2.2369482999999994,9.5489435,-1.1520045
81625233728793,-2.339934,9.568104,-1.0801538
81625253587851,-2.339934,9.479486999999999,-1.0466236
81625273441675,-2.44771,9.419611999999999,-0.98195803
81625293295371,-2.3614892999999997,9.383687,-1.0298585
81625313149067,-2.3135889,9.515413,-1.089734
81625333002763,-2.3135889,9.503438000000001,-1.1064991000000002
81625352856312,-2.2824538,9.513017999999999,-1.0538087
81625372710008,-2.2513185,9.529783,-1.0083033000000001
81625392563704,-2.198628,9.544153,-0.977168
81625412417529,-2.1555176,9.453142,-1.0825489
81625432271226,-2.2129982000000004,9.388477,-1.0106983
81625452130181,-2.2728736,9.419611999999999,-1.0154883
81625471984134,-2.2537133999999996,9.429193,-0.9316626
81625491837959,-2.2608986,9.457932000000001,-0.9580079
81625511691784,-2.2776637,9.522598,-1.0202783000000002
81625531545737,-2.2752686,9.7142,-1.0154883
81625551403132,-2.2632935,9.604028999999999,-0.90771246
81625571257085,-2.2129982000000004,9.553733,-0.9484278
81625591111038,-2.3255641,9.438772,-0.99393314
81625610964991,-2.311194,9.407638,-0.8646021
81625630818944,-2.2441335,9.369317,-0.9029224
81625650672897,-2.2752686,9.426797,-0.88376224
81625670526722,-2.2249732000000004,9.501043,-0.9268726
81625690380803,-2.191443,9.666299,-0.9029224
81625710234884,-2.2321582,9.68067,-0.84544194
81625730088837,-2.1770728,9.618399,-0.8214916999999999
81625749942918,-2.1195923999999997,9.522598,-0.85741705
81625769791436,-2.1076174,9.501043,-0.8478370000000001
81625789645260,-2.0836669999999997,9.378897,-0.90052736
81625809499212,-2.1004322,9.311836,-0.8478370000000001
81625829353036,-2.1579127000000002,9.414823,-0.81909674
81625849206988,-2.1531227000000004,9.599238,-0.84065187
81625869013497,-2.1555176,9.704619000000001,-0.8214916999999999
81625888866553,-2.198628,9.639954,-0.85741705
81625908719481,-2.2608986,9.570497999999999,-0.86939216
81625928572409,-2.215393,9.457932000000001,-0.86220706
81625948425465,-2.1746778,9.422008,-0.7927515
81625968291612,-2.1387525000000003,9.388477,-0.82388675
81625988144796,-2.1674929,9.388477,-0.7951465
81626007998108,-2.1866529999999997,9.572892999999999,-0.9053174
81626027851292,-2.2417382999999997,9.711803999999999,-0.8598120000000001
81626047704476,-2.1818627999999998,9.695039999999999,-0.87418216
81626067570051,-2.2273683999999996,9.536968,-0.8646021
81626087423363,-2.2177882,9.4507475,-0.8430469
81626107276803,-2.320774,9.352551,-0.852627
81626127130243,-2.2968237,9.424402,-0.8143066999999999
81626146983555,-2.2824538,9.362132,-0.852627
81626166844838,-2.3135889,9.481883,-0.8286768
81626186698407,-2.3303542,9.663903999999999,-0.9651929
81626206552104,-2.3327491,9.72378,-0.852627
81626226405670,-2.2920337,9.582474000000001,-0.94603276
81626246259238,-2.3782544,9.510622999999999,-0.8885523000000001
81626266109861,-2.2896388,9.433982,-0.8909473
81626285963301,-2.2656887,9.235196,-0.85741705
81626305816741,-2.311194,9.220825,-0.9364527
81626325670053,-2.323169,9.383687,-0.89573735
81626345523493,-2.215393,9.611214,-0.8861573
81626365380450,-2.2345533,9.6615095,-0.92208254
81626385233891,-2.198628,9.656719,-0.9484278
81626405087332,-2.2106032000000004,9.5633135,-0.9651929
81626424940901,-2.1842580000000003,9.575289,-0.91729254
81626444793452,-2.198628,9.448353,-0.8909473
81626464646893,-2.1866529999999997,9.398057000000001,-0.8382569
81626484500334,-2.1507277,9.402847,-1.0130934
81626504353775,-2.2082080000000004,9.546548,-0.9699829
81626524207216,-2.2249732000000004,9.489068,-1.0154883
81626544068049,-2.3064039000000003,9.534574000000001,-0.96758795
81626563921618,-2.2920337,9.580078,-1.0298585
81626583775059,-2.318379,9.493857,-0.94603276
81626603628628,-2.2656887,9.438772,-1.0609937
81626623482197,-2.323169,9.467513,-0.90771246
81626643335766,-2.2968237,9.465117,-0.977168
81626663192985,-2.3543043,9.465117,-0.9532178
81626683046682,-2.299219,9.510622999999999,-1.0202783000000002
81626702900251,-2.3016137999999997,9.479486999999999,-0.98435307
81626722753948,-2.2872437999999997,9.515413,-1.0298585
81626742614977,-2.318379,9.462723,-0.95561284
81626762468802,-2.3016137999999997,9.4435625,-0.9508228000000001
81626782322607,-2.2968237,9.431587,-0.9987232
81626802176431,-2.2800586,9.544153,-0.99393314
81626822030256,-2.2441335,9.5561285,-1.0538087
81626841884079,-2.3471193,9.520203,-0.99393314
81626861742352,-2.327959,9.496253,-0.9867481
81626881596305,-2.2776637,9.472302,-1.0083033000000001
81626901450384,-2.2704787,9.503438000000001,-1.0250684
81626921304336,-2.2537133999999996,9.4507475,-0.9987232
81626941158289,-2.2441335,9.388477,-0.97956306
81626961017726,-2.2561085,9.402847,-1.0226734
81626980871806,-2.2848487,9.527389,-1.089734
81627000726015,-2.3447242000000004,9.587264,-1.0729688
81627020580094,-2.4045997000000003,9.618399,-1.0083033000000001
81627040443506,-2.3543043,9.496253,-0.9651929
81627060297971,-2.3830445,9.390872,-1.101709
81627080152306,-2.4572902,9.402847,-1.0801538
81627100006770,-2.3686745,9.433982,-1.0394385
81627119861107,-2.3902297000000003,9.328602,-0.9532178
81627139715570,-2.3543043,9.496253,-1.0298585
81627159576514,-2.4668702999999996,9.606423,-1.1232642
81627179431107,-2.3734642999999997,9.616004,-1.0681788
81627199285826,-2.4453151,9.469908,-1.0298585
81627219140418,-2.4141798,9.436378,-0.97237796
81627238995011,-2.3710694,9.369317,-1.0801538
81627258853611,-2.3950195,9.302257,-1.0394385
81627278708459,-2.3686745,9.429193,-1.0657837
81627298563308,-2.3782544,9.419611999999999,-1.0178833
81627318418155,-2.3375392,9.620794,-1.0514137
81627338271186,-2.3519094,9.601633999999999,-1.0633887
81627358126163,-2.2417382999999997,9.553733,-1.0442286
81627377981012,-2.320774,9.460327000000001,-1.0370435
81627397835861,-2.3423293,9.422008,-0.974773
81627417690838,-2.3495142,9.366921000000001,-1.0178833
81627437545687,-2.3016137999999997,9.395662,-1.0083033000000001
81627457377368,-2.3327491,9.419611999999999,-1.0322535
81627477231449,-2.339934,9.529783,-1.0035132
81627497085402,-2.3471193,9.616004,-1.0011181999999998
81627516939483,-2.3471193,9.606423,-1.0083033000000001
81627536793436,-2.3638844,9.489068,-1.0490186000000001
81627556650033,-2.3327491,9.402847,-0.95561284
81627576504114,-2.3375392,9.290281,-0.9867481
81627596358195,-2.3590944,9.295072,-0.9915381
81627616212404,-2.3447242000000004,9.455538,-1.0083033000000001
81627636071001,-2.2656887,9.599238,-0.9364527
81627655925210,-2.2896388,9.632769,-0.97956306
81627675779547,-2.304009,9.582474000000001,-1.0154883
81627695633756,-2.311194,9.568104,-1.0298585
81627715488093,-2.339934,9.417216999999999,-0.91729254
81627735342302,-2.3495142,9.354947,-0.86939216
81627755196803,-2.3495142,9.319021000000001,-0.9196875
81627775051140,-2.323169,9.376502,-0.977168
81627794905475,-2.3902297000000003,9.565708,-1.0011181999999998
81627814759811,-2.3686745,9.644744000000001,-0.91010743
81627834614020,-2.318379,9.625584,-0.93405765
81627854461852,-2.3566992,9.604028999999999,-0.96040285
81627874316060,-2.3423293,9.508227999999999,-1.0083033000000001
81627894170269,-2.3447242000000004,9.347761,-0.9364527
81627914024476,-2.3135889,9.323812,-0.852627
81627933870591,-2.3566992,9.3309965,-0.92926764
81627953724672,-2.411785,9.510622999999999,-1.0202783000000002
81627973578751,-2.3327491,9.656719,-0.974773
81627993432703,-2.3064039000000003,9.68067,-0.9148975
81628013286784,-2.2513185,9.503438000000001,-0.84544194
81628033140863,-2.2177882,9.414823,-0.97956306
81628052997985,-2.320774,9.376502,-0.98195803
81628072852066,-2.318379,9.402847,-0.90052736
81628092706145,-2.3255641,9.433982,-0.82388675
81628112560097,-2.2513185,9.498648,-0.8933423
81628132414178,-2.2680835999999998,9.635164,-1.0035132
81628152263503,-2.2896388,9.639954,-0.9316626
81628172117456,-2.2848487,9.5633135,-0.87178713
81628191971409,-2.2920337,9.469908,-0.89573735
81628211825362,-2.2896388,9.441168,-0.9412427
81628231679439,-2.3495142,9.412427000000001,-0.9364527
81628251533392,-2.3135889,9.338181500000001,-0.9029224
81628271390153,-2.3255641,9.422008,-0.88376224
81628291244233,-2.2944287999999995,9.515413,-0.9316626
81628311098186,-2.299219,9.611214,-0.9316626
81628330952137,-2.299219,9.620794,-0.9580079
81628350808843,-2.3064039000000003,9.5561285,-0.9268726
81628370662924,-2.2920337,9.445957,-0.9029224
81628390516877,-2.3303542,9.383687,-0.852627
81628410370958,-2.3566992,9.369317,-0.84065187
81628430225039,-2.2968237,9.429193,-0.855022
81628450074844,-2.2513185,9.546548,-0.9364527
81628469928797,-2.323169,9.620794,-0.9627979
81628489782750,-2.304009,9.558523,-0.9532178
81628509636703,-2.3064039000000003,9.532178,-0.86220706
81628529490528,-2.311194,9.515413,-0.80712163
81628549344481,-2.3255641,9.352551,-0.85023195
81628569196008,-2.3471193,9.352551,-0.87178713
81628589049961,-2.308799,9.501043,-0.86939216
81628608903786,-2.2680835999999998,9.568104,-0.80712163
81628628757739,-2.2489235,9.527389,-0.8646021
81628648603500,-2.315984,9.532178,-0.91250247
81628668457197,-2.3327491,9.553733,-0.88376224
81628688310894,-2.2752686,9.515413,-0.8095166
81628708164719,-2.2513185,9.453142,-0.81191164
81628728018416,-2.2465284,9.424402,-0.87418216
81628747870703,-2.2800586,9.486672,-0.91250247
81628767724399,-2.3016137999999997,9.529783,-0.91250247
81628787578096,-2.2968237,9.505833,-0.87178713
81628807431791,-2.318379,9.460327000000001,-0.87897223
81628827285487,-2.320774,9.529783,-0.9268726
81628847139184,-2.315984,9.517808,-0.95561284
81628866987613,-2.3064039000000003,9.422008,-0.87897223
81628886841181,-2.311194,9.364527,-0.86220706
81628906694750,-2.3519094,9.453142,-0.8669971
81628926548445,-2.3590944,9.596844,-0.9316626
81628946396235,-2.3447242000000004,9.6615095,-0.9651929
81628966249676,-2.3950195,9.491463000000001,-0.8981324
81628986103115,-2.3926246,9.393267,-0.91729254
81629005956555,-2.44771,9.448353,-0.9053174
81629025809996,-2.3495142,9.414823,-0.88376224
81629045663435,-2.3686745,9.414823,-0.92208254
81629065521404,-2.3447242000000004,9.402847,-0.8909473
81629085374845,-2.327959,9.508227999999999,-0.95561284
81629105228412,-2.3255641,9.64714,-0.9580079
81629125081852,-2.323169,9.596844,-0.90771246
81629144935421,-2.311194,9.501043,-0.86939216
81629164788326,-2.3327491,9.407638,-0.87897223
81629184641895,-2.3064039000000003,9.448353,-0.94603276
81629204495336,-2.299219,9.398057000000001,-0.92926764
81629224348900,-2.315984,9.405242,-0.91729254
81629244203059,-2.3926246,9.520203,-0.98914313
81629264056628,-2.4261549,9.618399,-0.9699829
81629283910195,-2.3854396,9.596844,-0.97956306
81629303763635,-2.3782544,9.484278,-0.9532178
81629323617204,-2.3471193,9.374106,-0.9388476999999998
81629343470643,-2.3566992,9.362132,-0.8981324
81629363321796,-2.3686745,9.366921000000001,-0.91250247
81629383175237,-2.3830445,9.362132,-0.9364527
81629403028806,-2.3782544,9.486672,-0.9532178
81629422882247,-2.4022048,9.592053,-0.92926764
81629442735688,-2.3519094,9.601633999999999,-0.9148975
81629462595589,-2.3614892999999997,9.570497999999999,-0.8981324
81629482449158,-2.3614892999999997,9.529783,-0.8861573
81629502302727,-2.3614892999999997,9.436378,-0.89573735
81629522156296,-2.3495142,9.371711999999999,-0.85741705
81629542009865,-2.3590944,9.366921000000001,-0.8909473
81629561863434,-2.320774,9.422008,-0.8981324
81629581710135,-2.2944287999999995,9.541758999999999,-0.9364527
81629601563448,-2.3423293,9.601633999999999,-0.8861573
81629621416761,-2.3351439999999997,9.546548,-0.88376224
81629641270202,-2.3064039000000003,9.493857,-0.8885523000000001
81629661135675,-2.3135889,9.4435625,-0.8262818000000001
81629680989244,-2.2872437999999997,9.388477,-0.852627
81629700842941,-2.2752686,9.405242,-0.8933423
81629720696510,-2.315984,9.558523,-0.9053174
81629740550207,-2.323169,9.572892999999999,-0.87178713
81629760403904,-2.3471193,9.568104,-0.87897223
81629780265345,-2.315984,9.505833,-0.8598120000000001
81629800119042,-2.2680835999999998,9.501043,-0.88376224
81629819972865,-2.2680835999999998,9.484278,-0.88376224
81629839826561,-2.2704787,9.424402,-0.86939216
81629859680386,-2.323169,9.369317,-0.8598120000000001
81629879536733,-2.3590944,9.455538,-0.8933423
81629899390685,-2.3423293,9.635164,-0.89573735
81629919244638,-2.311194,9.659114,-0.87178713
81629939098589,-2.2824538,9.577683,-0.8334668
81629958963276,-2.2585034,9.505833,-0.9029224
81629978817485,-2.3327491,9.429193,-0.9268726
81629998671692,-2.315984,9.417216999999999,-0.90771246
81630018525900,-2.3495142,9.357342,-0.8646021
81630038380109,-2.2872437999999997,9.402847,-0.85741705
81630058234316,-2.318379,9.524992999999998,-0.9699829
81630078075249,-2.323169,9.651928999999999,-0.9244776
81630097929330,-2.2608986,9.599238,-0.88376224
81630117783409,-2.2417382999999997,9.541758999999999,-0.8214916999999999
81630137637361,-2.2561085,9.513017999999999,-0.8933423
81630157491442,-2.311194,9.474698,-0.9029224
81630177356249,-2.323169,9.431587,-0.88376224
81630197210585,-2.2680835999999998,9.400452,-0.87178713
81630217064922,-2.3016137999999997,9.453142,-0.9388476999999998
81630236919129,-2.3686745,9.577683,-0.95561284
81630256771216,-2.3734642999999997,9.553733,-0.9053174
81630276625425,-2.2824538,9.5489435,-0.8167017
81630296479631,-2.2345533,9.520203,-0.90052736
81630316333839,-2.304009,9.469908,-0.92926764
81630336188048,-2.308799,9.350157000000001,-0.89573735
81630356042255,-2.315984,9.362132,-0.8646021
81630375900553,-2.2848487,9.486672,-0.8765772
81630395754890,-2.2489235,9.592053,-0.94603276
81630415609227,-2.311194,9.642349000000001,-0.9029224
81630435463564,-2.323169,9.582474000000001,-0.83586186
81630455317901,-2.2920337,9.551338000000001,-0.87178713
81630475168720,-2.2848487,9.455538,-0.9029224
81630495022929,-2.3255641,9.419611999999999,-0.92926764
81630514877266,-2.308799,9.383687,-0.91250247
81630534731475,-2.323169,9.453142,-0.8286768
81630554579678,-2.323169,9.510622999999999,-0.8813671999999999
81630574433759,-2.2944287999999995,9.539363,-0.8981324
81630594287840,-2.2872437999999997,9.536968,-0.92208254
81630614142049,-2.2680835999999998,9.534574000000001,-0.85741705
81630633996130,-2.2656887,9.508227999999999,-0.83586186
81630653850211,-2.2417382999999997,9.4435625,-0.84065187
81630673703262,-2.339934,9.477093,-0.8885523000000001
81630693557343,-2.3375392,9.493857,-0.8262818000000001
81630713411424,-2.2656887,9.560919,-0.83586186
81630733265633,-2.2848487,9.524992999999998,-0.8646021
81630753119714,-2.2321582,9.479486999999999,-0.91010743
81630772969646,-2.198628,9.513017999999999,-0.9268726
81630792823726,-2.2608986,9.493857,-0.8669971
81630812677807,-2.2369482999999994,9.412427000000001,-0.8382569
81630832531758,-2.2417382999999997,9.457932000000001,-0.8669971
81630852385838,-2.3495142,9.551338000000001,-0.9244776
81630872239791,-2.315984,9.630374,-0.90771246
81630892091371,-2.2968237,9.570497999999999,-0.9053174
81630911945323,-2.2896388,9.501043,-0.8334668
81630931799276,-2.2608986,9.419611999999999,-0.96040285
81630951653227,-2.304009,9.386082,-0.9412427
81630971503364,-2.2537133999999996,9.374106,-0.8861573
81630991357189,-2.2872437999999997,9.4507475,-0.85741705
81631011211012,-2.2465284,9.5633135,-0.91010743
81631031064836,-2.3351439999999997,9.6758795,-0.9627979
81631050918661,-2.3327491,9.649534,-0.9244776
81631070774572,-2.3255641,9.536968,-0.89573735
81631090628396,-2.2704787,9.4507475,-0.852627
81631110482349,-2.2537133999999996,9.376502,-0.9029224
81631130336172,-2.2872437999999997,9.350157000000001,-0.95561284
81631150190124,-2.3375392,9.378897,-0.9388476999999998
81631170043949,-2.3255641,9.493857,-0.9436377
81631189888326,-2.3255641,9.592053,-0.9532178
81631209741893,-2.299219,9.625584,-1.0202783000000002
81631229595462,-2.327959,9.544153,-1.0370435
81631249449029,-2.3830445,9.438772,-0.9627979
81631269311698,-2.3566992,9.412427000000001,-0.9268726
81631289165395,-2.311194,9.338181500000001,-0.9316626
81631309019218,-2.327959,9.352551,-0.9915381
81631328873042,-2.327959,9.436378,-1.0394385
81631348726867,-2.3135889,9.596844,-1.0202783000000002
81631368587180,-2.3016137999999997,9.6686945,-1.0059083
81631388441133,-2.318379,9.618399,-1.0059083
81631408295086,-2.318379,9.501043,-1.0035132
81631428149039,-2.3135889,9.405242,-0.9268726
81631448002992,-2.339934,9.328602,-0.97956306
81631467856945,-2.3662794,9.314231,-0.93405765
