UPTIMENANO,Ax,Ay,Az
81577922088279,1.5332835,1.3689312,11.48485
81577941942104,0.5697543,2.0562818,11.985296
81577961799231,-1.0767931,2.0043185,11.568946
81577981653311,-1.3760005,1.5225956,10.691539
81578001507392,-1.2942867,0.9771884,9.847417
81578021361471,-1.3435749,0.39930564,8.81366
81578041215423,-1.0732089,-0.14001605,8.5353155
81578061069504,-0.30614585,0.2574391,9.35126
81578080925375,0.30170074,1.0824263,10.216952
81578100779455,0.011220208,0.6718768,9.759208
81578120633664,-0.17560698,0.3198039,9.192167
81578140487743,0.38285515,0.51058054,9.647938
81578160339799,0.121749595,0.4942146,9.905495
81578180193880,-0.8540834,1.4515079,9.394019
81578200047959,-0.8641202,1.4706024,6.8900247
81578219902039,-0.32087067,-0.65385616,6.740763
81578239756120,-0.18067276,-1.0954281,9.496192
81578259610199,-0.71619487,0.67641014,10.06679
81578279464328,-0.35430914,-0.008910385,10.310055
81578299318281,-0.70800865,0.28859058,9.624802
81578319172360,-1.5715568,-0.15634158,9.46277
81578339026312,-0.67657477,-0.112951465,10.137501
81578358880393,-0.35853776,0.13546692,10.823452
81578378731375,-1.0847865,0.9579856,11.3526325
81578398585455,-1.8411149,0.5352114,10.454885
81578418439408,-2.6933064,-0.44570103,9.854636
81578438293359,-1.2625166,-0.5734116,9.943685
81578458137674,0.29893017,-0.39325547,9.792322
81578477991499,0.09330858,-0.6344718,9.754494
81578497845194,-0.5714712,0.46678698,10.488636
81578517699018,-1.3784127,2.1724489,11.641514
81578537552715,-1.8128093,2.2373288,11.248984
81578557406538,-1.5148412,-0.1030123,10.309279
81578577252682,-0.76277286,-0.9943425,9.382709
81578597106379,-1.45631,-0.7114287,8.900531
81578616959946,-0.9020261,-0.82251894,8.72237
81578636813642,-0.5313357,-0.8244831,8.169243
81578656667339,-0.60997975,-0.51405,7.7278094
81578676517951,0.19540438,-0.9455381,7.866103
81578696371519,0.41649905,-0.8894958,9.417953
81578716225088,1.2220157,1.49257,11.111833
81578736078527,1.3058563,3.0003092,11.204151
81578755932844,-0.106354065,1.56726,9.492399
81578775786413,-0.5455348,-0.010419362,7.937741
81578795639852,-0.8190575,1.3368713,8.254182
81578815493292,-0.92686665,2.5548468,9.557328
81578835346861,3.0558188,-0.2741405,10.363122
81578855200300,3.855887,-4.0038743,8.34944
81578875056612,-0.25261587,-1.7761552,7.6332617
81578894910181,-0.36750257,1.8954989,10.197182
81578914763748,1.3486019,3.5170405,12.516194
81578934617444,-0.035264555,1.704177,11.628462
81578954471013,-0.7758458,0.699285,11.159979
81578974325688,-0.2550594,0.45368582,10.799243
81578994181794,-0.0105964895,0.6058397,9.669218
81579014035363,-1.702842,-0.35754776,8.722021
81579033888930,-2.9002295,0.17141517,8.762376
81579053742047,-1.5545679,1.6764451,10.031554
81579073595616,-0.30036092,2.0971804,11.065507
81579093449183,-0.42054978,0.50552315,9.738624
81579113302623,-2.7018144,0.5094646,9.077931
81579133156192,-3.1644812,0.7630232,10.638579
81579153009759,-2.9312916,0.12658423,10.078983
81579172857567,-1.6100912,0.4672438,11.057898
81579192711008,-0.63626564,1.8472718,10.878347
81579212564319,-0.23383707,2.0262976,10.133487
81579232417759,-1.2332369,0.9581581,10.459476
81579252271072,-0.9941559,0.24944489,10.255734
81579272129850,-0.38665012,0.2679666,10.936829
81579291983290,-0.56295013,0.8996733,10.772646
81579311836859,-0.8875365,0.62988305,9.967075
81579331690426,-0.111676276,0.57462525,10.447526
81579351543866,0.2966281,0.718394,11.109778
81579371397435,-0.1753448,1.6355047,9.542759
81579391255860,-1.3294141,1.5821832,8.13444
81579411109428,-2.6453645,1.6944491,6.5832744
81579430963125,-4.439105,2.243842,5.9411263
81579450816692,-3.4607558,2.2552207,6.101749
81579470668907,-0.40195405,1.4565065,6.8758574
81579490522476,1.8587439,-0.8149919,6.951284
81579510376043,0.4831018,-2.307918,4.627607
81579530229611,1.1877046,-0.8774636,5.1440945
81579550083180,1.9452983,0.9289203,7.687631
81579569937344,1.8102525,1.471759,10.249928
81579589790912,1.592639,1.3825408,13.409746
81579609644481,0.82992744,2.0384235,15.187011
81579629498176,-0.89134574,1.6992353,15.107467
81579649351744,-1.3605357,1.2332666,14.077637
81579669205313,-1.5237588,1.3522885,13.694383
81579689062988,-0.39713106,0.078108415,7.0569634
81579708916684,-2.805694,-6.274938,-12.729231
81579728770381,-3.2279897,4.3306165,8.903656
81579748624076,3.3442857,4.8672395,15.932996
81579768483435,2.187079,3.1262622,7.084778
81579788337260,1.3148327,-0.26676223,5.7161703
81579808191211,0.46076974,-0.17005858,9.529826
81579828045035,0.7048167,2.758089,8.6909075
81579847898860,2.0265806,1.3528814,8.729318
81579867760466,2.0882726,-3.464923,10.479657
81579887614418,0.34522948,6.7705255,5.4861965
81579907468499,2.9897115,12.186488,12.725449
81579927322578,-3.0165112,6.2894335,12.452633
81579947176658,-8.888925,-1.0214139,1.0746247
81579967034358,-6.289262,-1.7114843,-3.7456832
81579986888566,-2.612379,2.1382756,-0.3828211
81580006742646,-3.2121644,3.2070289,2.063692
81580026596854,-2.310373,5.1770325,2.3871794
81580046451062,-0.99764705,7.80356,3.7674923
81580066305142,0.8297193,9.852065,4.957763
81580086159283,4.190739,10.958552,11.071624
81580106013491,4.459118,7.4507785,21.050474
81580125867571,2.523662,1.0710847,27.366095
81580145721779,10.508286,-2.5562565,22.259916
81580165575859,15.294061,-2.033301,20.918093
81580185420071,6.4361672,-10.675279,27.233263
81580205274023,0.83943796,-16.621634,23.120924
81580225127847,4.1864924,-14.264089,17.303608
81580244981799,8.93249,-11.208647,15.854777
81580264835751,-4.729261,-12.062725,13.889405
81580284689770,-14.347601,-3.718828,10.520296
81580304543722,-9.558312,0.025225814,12.555156
81580324397546,-2.0836248,-5.6452904,12.289943
81580344251498,5.454605,-7.711226,8.417108
81580364105450,-0.8082906,-2.2875674,6.838535
81580383960682,-6.178272,3.492889,6.044808
81580403814634,-2.7500772,-1.2312737,8.38994
81580423668586,-1.2840085,-2.7235904,6.420158
81580443522538,1.9072874,-3.2747324,4.6121902
81580463376490,0.65166235,-3.2026803,5.3028245
81580483231521,1.3761793,-4.347712,6.8866277
81580503085473,0.120476045,-5.888091,7.076641
81580522939553,1.5901762,-4.1391397,4.634265
81580542793505,1.4706823,-2.4615476,3.5816855
81580562647457,-2.943269,-1.436577,3.6577287
81580582494814,-3.750254,-5.234355,3.964735
81580602348638,-0.4384235,-9.476185,8.4780855
81580622202590,2.722937,-6.4733973,13.805039
81580642056542,1.1524385,-5.6026154,14.868397
81580661910366,0.6487698,-1.3560443,14.392514
81580681757645,0.45238656,1.0874567,15.995381
81580701611469,-3.716656,0.3524987,14.875283
81580721465165,-4.337819,1.7252746,15.906144
81580741318989,-7.8968177,2.0457742,15.269324
81580761172685,-6.0487995,-3.5118904,16.84496
81580781023754,4.8704643,-1.8355477,15.362034
81580800877322,-1.4508512,-2.9100428,15.277607
81580820731018,-1.255627,1.505306,8.776438
81580840584714,4.061669,0.69685155,4.043486
81580860438282,10.710629,3.84086,1.2844907
81580880288437,-6.8733654,4.9743567,-0.7267146
81580900142005,-3.3070881,3.377081,4.641154
81580919995573,-0.46128446,-0.6763985,2.7503905
81580939849141,-1.4984424,-4.0648875,5.110039
81580959702709,2.9673574,-4.7617364,7.8555098
81580979539367,0.44514546,-0.07452342,8.963033
81580999396345,2.1041346,3.5911193,12.767685
81581019249529,-5.8581767,-1.1076647,14.552243
81581039102713,-2.5996497,-5.790289,12.641038
81581058956025,0.63563937,4.001543,5.4804244
81581078806716,-0.009870902,4.1803923,8.596212
81581098659900,-2.4229517,-0.43900266,7.0945296
81581118513084,-3.5907521,1.2957612,5.049662
81581138366140,-2.19387,2.1572638,6.1473947
81581158219324,-1.667631,2.700812,9.514149
81581178077852,-2.4708006,1.8409384,11.136982
81581197931036,-3.3304617,0.700704,12.082731
81581217784220,-2.172444,0.79003924,13.889905
81581237637404,-4.1452804,2.1175995,22.868484
81581257490588,1.4833183,-2.4133172,14.57999
81581277355464,4.17341,-1.790582,15.180397
81581297208776,1.9289452,-1.6754797,13.15344
81581317062216,0.106134176,-1.5915346,9.053912
81581336915528,-1.2578254,-1.0463258,8.267344
81581356768840,-0.13776515,-1.6188456,8.329778
81581376631563,-1.2372642,-2.436916,5.6713724
81581396485131,1.9586574,0.20139027,6.274292
81581416338699,6.366285,1.6797054,12.356211
81581436192139,1.884888,-1.3439122,6.892154
81581456045707,-3.5016742,0.05500815,1.489742
81581475907496,-4.1403337,2.902908,1.8819876
81581495761192,-0.7482156,2.687739,7.7846045
81581515614888,-0.8231488,-0.4516974,14.560353
81581535468584,-1.7462124,4.6379166,19.049274
81581555322280,-4.098925,7.0482507,18.997147
81581575183347,-0.13881728,-2.4541621,9.832327
81581595037171,2.0223024,-7.0640554,7.713397
81581614891123,-1.1036365,-4.9690466,10.2749815
81581634745075,-0.87159187,0.88488054,10.075856
81581654598899,0.16177723,1.802193,9.500461
81581674454246,0.25885266,-0.20867747,9.746554
81581694308198,0.74208504,-0.37092763,9.877044
81581714162278,0.84423137,0.28149536,9.9922495
81581734016230,0.8848588,-0.6230342,10.140519
81581753870310,1.0618427,-1.5068047,10.15498
81581773726511,1.0629793,-1.1911426,9.967849
81581793580591,0.93854535,-1.1753832,9.759752
81581813434671,0.76391554,-1.5689352,9.459692
81581833288623,0.86575973,-1.4291961,9.427288
81581853142703,1.1869162,-0.94505024,9.874281
81581872996673,1.2256049,-0.121945895,10.1612215
81581892850753,0.9379005,0.39962357,10.129337
81581912704833,0.4449368,0.15880431,9.960541
81581932558913,0.015988836,-0.23976883,9.70963
81581952412993,-0.24259451,-0.666222,9.57662
81581972275716,-0.4311871,-0.73800474,9.542253
81581992130052,-0.48412576,-0.5840986,9.586048
81582011984388,-0.23559186,-0.24708988,9.620447
81582031838724,0.31921148,-0.22047998,9.850599
81582051692932,0.6982361,-0.7307589,10.009776
81582071550535,0.4392807,-0.45525163,9.76141
81582091404999,0.06267556,-0.2295735,9.747703
81582111259463,-0.16876362,-0.7538321,9.767159
81582131113927,-0.248364,-1.2226418,9.926423
81582150968391,-0.099091336,-0.9394353,10.049118
81582170818314,0.0070373793,-0.730808,9.967714
81582190672650,0.2151579,-0.96243656,9.861809
81582210527114,0.2425572,-0.9600572,9.774214
81582230381450,0.183632,-0.8745575,9.687933
81582250235786,0.23786762,-0.8537399,9.746442
81582270089889,0.1596385,-0.651938,9.769595
81582289944225,0.115271255,-0.5483381,9.760736
81582309798689,0.10451364,-0.47016338,9.703929
81582329653025,0.11292843,-0.50884944,9.716223
81582349507361,0.0975391,-0.62339586,9.708725
81582369357497,0.1526882,-0.6773935,9.734133
81582389211833,0.19647883,-0.6927247,9.703323
81582409066169,0.23868257,-0.6150755,9.750242
81582428920505,0.31801558,-0.496164,9.846117
81582448774841,0.41891637,-0.57497287,9.850107
81582468625422,0.49554828,-0.7188562,9.775266
81582488479758,0.4868249,-0.7144856,9.744454
81582508334094,0.47332725,-0.71435034,9.783074
81582528188302,0.5241214,-0.64234453,9.823522
81582548042638,0.5416282,-0.7120159,9.958651
81582567881736,0.48984203,-0.6480454,9.759008
81582587735560,0.4410394,-0.71034545,9.755019
81582607589384,0.45261413,-0.58398867,9.736326
81582627443208,0.40576395,-0.5753917,9.780521
81582647297033,0.3835215,-0.6479275,9.848114
81582667146426,0.2377605,-0.8116352,9.913172
81582687000121,0.15599546,-0.8348373,9.722664
81582706853817,0.09374453,-0.80354273,9.784018
81582726707385,0.09711744,-0.72522813,9.796403
81582746561081,0.1470687,-0.70527613,9.750158
81582766415734,0.26950264,-0.7226226,9.634747
81582786269302,0.385193,-0.7008423,9.736374
81582806122998,0.5431217,-0.6617297,9.862438
81582825976566,0.69299066,-0.45839894,9.831587
81582845830262,0.6764904,-0.45134085,9.876632
81582865683830,0.5317057,-0.50252825,9.812571
81582885536770,0.43353233,-0.5809792,9.700471
81582905390338,0.3651568,-0.69577396,9.712838
81582925244034,0.328568,-0.7543284,9.705593
81582945097730,0.38828516,-0.6867486,9.79396
81582964951298,0.48561335,-0.5717026,9.808877
81582984795985,0.5512299,-0.5073513,9.865797
81583004650210,0.50691336,-0.519525,9.719956
81583024503650,0.45849356,-0.5676823,9.611982
81583044357090,0.49881345,-0.5763709,9.850361
81583064210658,0.5701981,-0.55491525,9.92762
81583084061135,0.6239972,-0.6237768,9.846057
81583103914448,0.59918994,-0.6361084,9.847138
81583123767886,0.52718395,-0.6295808,9.666699
81583143621326,0.56605273,-0.55474776,9.769269
81583163474766,0.5187687,-0.4140631,9.79712
81583183330162,0.5553441,-0.476085,9.748815
81583203183602,0.5684709,-0.5261975,9.779678
81583223037043,0.58393574,-0.6517458,9.801549
81583242890484,0.5607125,-0.5749797,9.821959
81583262743925,0.55269486,-0.51780844,9.796502
81583282600590,0.5212914,-0.45841607,9.684932
81583302454031,0.46042407,-0.469763,9.69011
81583322307472,0.5364723,-0.41142693,9.751429
81583342160913,0.58463496,-0.41033193,9.836963
81583362014354,0.54906595,-0.47844365,9.945313
81583381864235,0.5215692,-0.4640603,9.861896
81583401717548,0.5271606,-0.4112588,9.789665
81583421570989,0.44950432,-0.50670063,9.823079
81583441424430,0.5054096,-0.522943,9.685848
81583461277743,0.504516,-0.5209968,9.688471
81583481135870,0.50044006,-0.52406853,9.783355
81583500989183,0.48902622,-0.5115074,9.881631
81583520842624,0.5616768,-0.5423865,9.861505
81583540696065,0.59743416,-0.49713123,9.818257
81583560549506,0.53263086,-0.4756803,9.773728
81583580405019,0.47383088,-0.48418656,9.626681
81583600258588,0.39583546,-0.56856984,9.669265
81583620112029,0.49333468,-0.55019677,9.666975
81583639965598,0.52183986,-0.5290792,9.857746
81583659819039,0.51866657,-0.51595527,9.925623
81583679682068,0.5425574,-0.51814556,9.834906
81583699535765,0.5482457,-0.52531344,9.831194
81583719389590,0.5365618,-0.41986185,9.683835
81583739243287,0.47608992,-0.5193736,9.6720705
81583759096984,0.49449033,-0.54332155,9.726421
81583778955613,0.49239787,-0.5381519,9.750904
81583798809437,0.47832143,-0.47692534,9.802634
81583818663261,0.48466223,-0.5086319,9.792766
81583838517085,0.51108927,-0.483194,9.732808
81583858370909,0.44876257,-0.50665355,9.789069
81583878225714,0.48940635,-0.479318,9.871129
81583898079538,0.5111665,-0.4614658,9.893777
81583917933362,0.5552926,-0.40014672,9.830956
81583937787314,0.45276654,-0.46160093,9.745819
81583957641138,0.50438017,-0.5385276,9.883113
81583977496120,0.5126899,-0.5107198,9.848907
81583997350072,0.6706217,-0.5421985,9.893455
81584017203896,0.586312,-0.40156844,9.756632
81584037057848,0.52818936,-0.3226474,9.690428
81584056911800,0.4994659,-0.2588919,9.779452
81584076768030,0.52572435,-0.36119372,9.778886
81584096621982,0.5463238,-0.35564816,9.691144
81584116475934,0.41059032,-0.42822465,9.697237
81584136330014,0.40981945,-0.38606638,9.737675
81584156183966,0.50173485,-0.3588914,9.835449
81584176036896,0.5646417,-0.38826862,9.944166
81584195890849,0.53218406,-0.4191904,9.872809
81584215744802,0.42609966,-0.3232006,9.803904
81584235598755,0.41632465,-0.38089183,9.747576
81584255452704,0.6006618,-0.4298709,9.760975
81584275311873,0.61878353,-0.46374214,9.772036
81584295165953,0.6797922,-0.35684186,9.879052
81584315020033,0.49179977,-0.2436355,9.891368
81584334874241,0.48796335,-0.30213258,9.840221
81584354728321,0.51161236,-0.3364528,9.779416
81584374586834,0.52389205,-0.34751505,9.607937
81584394441171,0.49372956,-0.3823244,9.665625
81584414295380,0.47836405,-0.37554243,9.836188
81584434149717,0.5528118,-0.32717168,9.854087
81584454003921,0.5896963,-0.3896492,9.9604435
81584473857732,0.54558325,-0.3348253,9.8916235
81584493712068,0.56579393,-0.34566432,9.838458
81584513566276,0.54103446,-0.30214474,9.71428
81584533420612,0.55154496,-0.36425763,9.593063
81584553274820,0.5021134,-0.39011088,9.7102995
81584573120909,0.5398048,-0.39254597,9.851734
81584592974861,0.5772438,-0.3023491,9.914408
81584612828941,0.6094513,-0.24575353,9.979701
81584632683021,0.5683854,-0.26150182,9.817969
81584652537101,0.6003312,-0.2755596,9.69771
81584672388529,0.5736116,-0.2326131,9.657152
81584692242481,0.6318361,-0.3308323,9.828386
81584712096561,0.5970537,-0.27855626,9.935692
81584731950513,0.6684699,-0.1885623,9.768354
81584751804465,0.6562375,-0.17055845,9.723075
81584771659563,0.642279,-0.1789382,9.754938
81584791513515,0.6278508,-0.23578407,9.73118
81584811367467,0.67883146,-0.22869422,9.799721
81584831221547,0.6601617,-0.26379207,9.742536
81584851075499,0.64033467,-0.25094244,9.845692
81584870927647,0.62151843,-0.16397393,9.927809
81584890781727,0.69157517,-0.19076104,9.909243
81584910635679,0.65068626,-0.23033717,9.749543
81584930489631,0.5518422,-0.27433366,9.578677
81584950343583,0.5379384,-0.28276822,9.644317
81584970196306,0.5847852,-0.28701717,9.743141
81584990050258,0.60164046,-0.27026564,9.879978
81585009906334,0.6029359,-0.25967064,9.95498
81585029760286,0.5490509,-0.17725936,9.86368
81585049614110,0.5402975,-0.17657082,9.842662
81585069461499,0.53360325,-0.21003452,9.806632
81585089315195,0.6612888,-0.25270444,9.693169
81585109169019,0.7524744,-0.20975113,9.804855
81585129022843,0.6744211,-0.09935999,9.728895
81585148876667,0.6668921,-0.119665086,9.846539
81585168730363,0.6473149,-0.13611166,9.876123
81585188572015,0.7084405,-0.13012591,9.73062
81585208425583,0.67963,-0.15848248,9.84822
81585228279024,0.6464259,-0.20364721,9.826115
81585248132593,0.59840983,-0.2525117,9.7404
81585267986031,0.693142,-0.28045034,9.806815
81585287827650,0.63768876,-0.23564872,9.812777
81585307680962,0.61474735,-0.22608127,9.810547
81585327534274,0.5889658,-0.20646514,9.721801
81585347387586,0.56639147,-0.202907,9.7036705
81585367240898,0.61010784,-0.21765755,9.7827425
81585387096087,0.5439208,-0.2684662,9.8140545
81585406949400,0.570061,-0.30690858,9.919797
81585426802713,0.54768634,-0.2855475,9.879281
81585446656026,0.59610784,-0.25311846,9.783842
81585466509339,0.5293567,-0.2656804,9.638244
81585486363888,0.52764183,-0.29763392,9.642022
81585506217201,0.57660246,-0.28426287,9.845584
81585526070386,0.6473791,-0.28772953,9.874186
81585545923699,0.59477645,-0.24539906,9.863683
81585565777012,0.4304163,-0.25737172,9.806278
81585585633377,0.4755062,-0.23907687,9.790173
81585605486690,0.4719438,-0.3167868,9.71436
81585625340003,0.59988415,-0.40315467,9.74187
81585645193316,0.5649462,-0.36081114,9.751634
81585665046629,0.5824654,-0.37451044,9.933651
81585684903014,0.5033819,-0.20630515,9.7383995
81585704756455,0.46671504,-0.32137457,9.683822
81585724609768,0.5006375,-0.287486,9.69584
81585744463081,0.5006158,-0.36340147,9.73242
81585764316394,0.5686168,-0.31404325,9.870961
81585784175310,0.55534524,-0.40169042,9.86703
81585804028751,0.5062,-0.3354094,9.948322
81585823882190,0.48980665,-0.37664875,9.8080845
81585843735502,0.48717213,-0.36855826,9.610203
81585863588943,0.44931534,-0.42135373,9.778898
81585883447325,0.47675765,-0.40788668,9.723513
81585903300765,0.52767366,-0.4391278,9.734949
81585923154334,0.53768885,-0.45002118,9.80166
81585943007901,0.5096505,-0.33899152,9.86161
81585962867270,0.50442106,-0.37275568,9.903965
81585982720967,0.51573247,-0.38501605,9.8516865
81586002574662,0.50501883,-0.3927739,9.667316
81586022428358,0.48896742,-0.41388863,9.660211
81586042282055,0.48830357,-0.41324827,9.73617
81586062135622,0.56223977,-0.36968696,9.845318
81586081990317,0.52817935,-0.34168544,9.92459
81586101844014,0.5201983,-0.36682484,9.857369
81586121697709,0.52387583,-0.300445,9.833896
81586141551405,0.46261516,-0.33889687,9.716062
81586161405102,0.41258413,-0.4311055,9.736853
81586181261698,0.49562672,-0.47129753,9.7182665
81586201115523,0.40600312,-0.4704457,9.783793
81586220969220,0.49160114,-0.37889567,9.927165
81586240823045,0.44638872,-0.34591815,9.926699
81586260676866,0.4919846,-0.3972568,9.84608
81586280530563,0.45483798,-0.34758726,9.628655
81586300387249,0.40553355,-0.4619464,9.638661
81586320241073,0.42895877,-0.4390901,9.880737
81586340094898,0.5170919,-0.41388562,9.905757
81586359948721,0.53069544,-0.33611518,9.913513
81586379808378,0.46246177,-0.34259304,9.8364315
81586399662459,0.5169513,-0.20819508,9.824596
81586419516538,0.43558112,-0.37767258,9.698761
81586439370618,0.5137092,-0.45300025,9.703765
81586459224571,0.34017703,-0.5168187,9.745329
81586479082644,0.4748259,-0.4685769,9.879355
81586498936853,0.4119879,-0.29782712,9.751389
81586518791062,0.4844633,-0.36884326,9.852606
81586538645143,0.48335275,-0.2888593,9.735482
81586558499346,0.4865211,-0.43854135,9.786477
81586578353555,0.46897808,-0.3992063,9.8431835
81586598206177,0.45196193,-0.5051588,9.818533
81586618060385,0.46315235,-0.43972805,9.861329
81586637914594,0.49422324,-0.3711761,9.773218
81586657768929,0.5057894,-0.4017889,9.792173
81586677617140,0.45859337,-0.3920573,9.800094
81586697471349,0.44324252,-0.37870726,9.689666
81586717325428,0.46985975,-0.46813214,9.778971
81586737179636,0.47852325,-0.38280806,9.851597
81586757033717,0.50909716,-0.36688608,9.83261
81586776883894,0.47570893,-0.37855446,9.799771
81586796737974,0.45040122,-0.39828056,9.743157
81586816592055,0.4747571,-0.32954213,9.739104
81586836446006,0.4853421,-0.34399116,9.791701
81586856300086,0.52226114,-0.4007833,9.863606
81586876154039,0.53363633,-0.41835943,9.817067
81586895995019,0.52032954,-0.35169673,9.802191
81586915848715,0.4883064,-0.35090414,9.8041
81586935702412,0.51353747,-0.26638186,9.784855
81586955552619,0.4968168,-0.32379952,9.824519
81586975409826,0.5249283,-0.3608829,9.785938
81586995263523,0.52604103,-0.34152913,9.8056135
81587015117220,0.49878877,-0.38768592,9.769758
81587034970914,0.46009305,-0.35683015,9.793227
81587054824611,0.46368444,-0.3389199,9.7972555
81587074678306,0.5619395,-0.3303996,9.737674
81587094533398,0.4702774,-0.35830477,9.684652
81587114387095,0.46477097,-0.392889,9.746004
81587134240790,0.51576996,-0.24362579,9.913419
81587154094487,0.6296349,-0.22488034,9.950714
81587173948312,0.5819354,-0.20852734,9.939549
81587193802765,0.5456061,-0.23883197,9.642424
81587213656462,0.52103686,-0.26505712,9.661713
81587233510159,0.49880397,-0.2857471,9.659089
81587253363984,0.5727147,-0.2688868,9.818085
81587273219173,0.55693746,-0.31307012,9.921993
81587293072998,0.6054466,-0.22110814,9.867937
81587312926695,0.41668466,-0.23539658,9.861741
81587332780392,0.58993024,-0.26266718,9.8199215
81587352634089,0.522592,-0.24169835,9.608619
81587372487914,0.53936654,-0.344412,9.589959
81587392340895,0.48962668,-0.3053548,9.720959
81587412194592,0.5220412,-0.2910331,9.921483
81587432048289,0.6170833,-0.23516637,9.9938965
81587451902114,0.58090186,-0.1861021,9.85453
81587471755811,0.5807821,-0.1887608,9.736569
81587491617756,0.53259414,-0.17444807,9.693164
81587511471709,0.56452006,-0.2274165,9.763814
81587531325534,0.61484796,-0.34015143,9.839393
81587551179487,0.5999973,-0.2394113,9.787341
81587571031926,0.56873935,-0.16805726,9.891823
81587590885751,0.5140476,-0.105411634,9.817524
81587610739683,0.5842431,-0.11512552,9.750303
81587630593508,0.61819,-0.11384991,9.649119
81587650447461,0.59820926,-0.10725486,9.636718
81587670301286,0.58777964,-0.14568044,9.80513
81587690153449,0.6440218,-0.09019883,9.831899
81587710007274,0.6025397,-0.10283567,9.940104
81587729861099,0.6027945,-0.021838352,9.909691
81587749714917,0.51862544,0.004381836,9.830761
81587769568870,0.5053136,-0.18233512,9.766796
81587789430180,0.5973443,-0.17841032,9.65915
81587809284132,0.567892,-0.2065855,9.660116
81587829138085,0.5896369,-0.19459033,9.796094
81587848992164,0.51991296,-0.07245088,9.852037
81587868848946,0.55502355,-0.100940384,9.956566
81587888703027,0.5690963,-0.045934763,9.811376
81587908557106,0.48051623,-0.12717153,9.629757
81587928411186,0.44996297,-0.2125686,9.754169
81587948265267,0.5260134,-0.19633497,9.899196
81587968119346,0.5984936,-0.15385893,9.902073
81587987980314,0.5606259,-0.218714,9.828228
81588007834523,0.45498568,-0.19758183,9.824362
81588027688730,0.41415298,-0.083243586,9.7911005
81588047543066,0.45967427,-0.17327774,9.683912
81588067397275,0.5114912,-0.23818617,9.731054
81588087248172,0.53650135,-0.22903992,9.857209
81588107102380,0.4927326,-0.10229841,9.91246
81588126956589,0.47029185,-0.17079253,9.863592
81588146810926,0.47636414,-0.14655142,9.762856
81588166665135,0.45022774,-0.22519712,9.69458
81588186519344,0.50847584,-0.19702289,9.697128
81588206377967,0.46750718,-0.1964849,9.680564
81588226232303,0.5820797,-0.12941536,9.8709755
81588246086640,0.54034615,-0.046025045,9.930081
81588265940847,0.5374263,-0.11081492,9.899284
81588285796762,0.46512312,-0.10461921,9.826446
81588305651099,0.44943383,-0.11891699,9.810658
81588325505436,0.5020793,-0.121546745,9.7629
81588345359773,0.50406903,-0.12023903,9.701605
81588365214110,0.47344732,-0.12569304,9.779852
81588385066137,0.43948525,-0.053002093,9.835698
81588404920474,0.45921952,-0.06929028,9.846098
81588424774811,0.48662433,-0.13197277,9.852015
81588444629148,0.46535748,-0.069737114,9.781904
81588464483485,0.45406628,-0.116777025,9.804116
81588484337694,0.53924346,-0.13268295,9.818895
81588504180755,0.54914874,-0.10473099,9.76666
81588524034708,0.56084764,-0.12598917,9.855674
81588543888789,0.54320467,-0.053484548,9.830071
81588563742870,0.49002427,-0.082203574,9.858427
81588583587705,0.49653012,-0.10923574,9.791058
81588603441658,0.504892,-0.10450353,9.770468
81588623295483,0.5597272,-0.21614064,9.793823
81588643149436,0.5904752,-0.13162002,9.790635
81588663003261,0.4628331,-0.10239286,9.823798
81588682855470,0.5193911,-0.12079741,9.852568
81588702709295,0.51505834,-0.048803933,9.6503315
81588722563120,0.5213412,-0.08299284,9.668148
81588742416945,0.52715015,-0.07770472,9.756415
81588762270875,0.55948585,-0.110488,9.872057
81588782124700,0.6795184,-0.017279254,9.94195
81588801975220,0.66791487,0.10646139,9.887168
81588821828916,0.6040665,0.01042979,9.809985
81588841682741,0.576532,0.010004211,9.755171
81588861536436,0.5981326,-0.06749127,9.703333
81588881386786,0.7156059,-0.058414612,9.724926
81588901240483,0.6712596,-0.065036476,9.836713
81588921094178,0.64051205,-0.04604391,9.940597
81588940947874,0.6263592,-0.078587085,9.880387
81588960801571,0.5326883,-0.12018776,9.645693
81588980650762,0.57349575,-0.17880224,9.631643
81589000504330,0.47897556,-0.065986075,9.66403
81589020357771,0.5484621,-0.14662796,9.791407
81589040208935,0.6014343,-0.11749529,9.867045
81589060062503,0.6021139,-0.07655041,9.936147
81589079915944,0.57267404,-0.067450166,9.884365
81589099767117,0.5390543,-0.10545796,9.761658
81589119620685,0.58755994,-0.1654674,9.737657
81589139474126,0.59927,-0.1070592,9.702592
81589159327693,0.6188925,-0.10967127,9.729842
81589179183620,0.57402474,-0.1278331,9.808799
81589199037189,0.52777785,-0.08635685,9.807636
81589218890628,0.5515734,-0.10522195,9.905856
81589238744069,0.56641185,-0.04574183,9.885137
81589258597638,0.5608614,-0.044144865,9.709397
81589278451076,0.51412743,-0.14689954,9.691583
81589298304215,0.5364048,-0.13310507,9.751607
81589318157656,0.60315067,-0.12004112,9.842605
81589338011095,0.5457696,-0.15043394,9.829713
81589357864535,0.62074095,-0.08954663,9.8317375
81589377717848,0.60820204,-0.01841411,9.92945
81589397576549,0.6080029,0.038694095,9.780951
81589417430118,0.5635527,-0.07429129,9.604954
81589437283559,0.5730851,-0.1282893,9.669965
81589457137128,0.6036907,-0.09025199,9.800125
81589476995469,0.6402851,-0.028905481,9.910385
81589496849038,0.5933989,-0.07151344,9.870578
81589516702735,0.5539903,-0.060809158,9.817925
81589536556304,0.47099668,-0.0411438,9.703847
81589556409873,0.49194327,-0.10202507,9.737999
81589576263570,0.5096196,-0.13672097,9.897258
81589596118583,0.61679214,-0.076536335,9.904886
81589615972280,0.5423261,-0.042447604,9.861004
81589635825977,0.47044697,-0.09221795,9.76262
81589655679674,0.40260062,-0.025722397,9.703921
81589675533371,0.48817375,-0.13193387,9.696064
81589695388108,0.58347815,-0.13913205,9.675671
81589715241789,0.5518476,-0.12432772,9.834832
81589735095486,0.4893215,-0.0391189,9.941773
81589754949053,0.45302746,-0.10624261,9.910461
81589774812605,0.47262034,-0.09821538,9.807889
81589794666558,0.45432353,-0.17439945,9.662288
81589814520381,0.47298053,-0.15540527,9.732583
81589834374333,0.4949869,-0.21716951,9.862158
81589854228286,0.55512434,-0.11634128,9.8336
81589874082237,0.44949833,-0.15082584,9.813706
81589893944284,0.4753961,-0.11327667,9.843675
81589913798493,0.3985452,-0.07638631,9.850066
81589933652572,0.51081514,-0.1374133,9.839206
81589953506780,0.45286897,-0.1304898,9.728975
81589973360989,0.54066616,-0.1450347,9.830482
81589993215111,0.5118384,-0.07937042,9.852687
81590013069319,0.49988964,-0.101805896,9.734815
81590032923656,0.46840277,-0.13010395,9.761329
81590052777863,0.49748418,-0.06950558,9.8357315
81590072627573,0.5129113,0.029009013,9.822294
81590092481782,0.49747038,-0.097047634,9.79255
81590112335861,0.47965395,-0.13817416,9.809568
81590132190069,0.49630716,-0.12175674,9.891838
81590152044278,0.52765065,-0.08344446,9.8981
81590171898357,0.49487874,-0.11117294,9.828263
81590191753126,0.4199561,-0.15466511,9.817295
81590211607207,0.47826907,-0.109224536,9.697275
81590231461286,0.49873924,-0.07831206,9.707246
81590251315495,0.4614311,-0.12180199,9.690718
81590271169576,0.5074488,-0.108917266,9.847256
81590291029921,0.51375043,-0.06586213,9.968244
81590310884258,0.5545581,-0.024141882,9.939182
81590330738467,0.49760735,-0.055653047,9.789699
81590350592676,0.41837457,-0.09861574,9.604728
81590370447013,0.4531864,-0.17171405,9.680321
81590390301222,0.5450152,-0.21354493,9.812174
81590410152615,0.6097113,-0.117842644,9.79191
81590430006952,0.5577694,-0.0765365,9.944859
81590449861161,0.474557,0.011101814,9.9277725
81590469715370,0.4695817,-0.031797294,9.816568
81590489562605,0.49406815,-0.090403,9.655893
81590509416686,0.5572497,-0.11529359,9.690522
81590529270767,0.5992131,-0.144118,9.816031
81590549124848,0.60800165,-0.06227879,9.923752
81590568978929,0.5528055,-0.039981026,9.784899
81590588816778,0.5165707,-0.029732527,9.736297
81590608670603,0.504389,-0.03720695,9.619642
81590628524300,0.57861614,-5.947782E-4,9.721558
81590648378125,0.5930707,-0.064856805,9.796251
81590668231822,0.62781143,-0.0068565668,9.917836
81590688085647,0.58314687,0.003732067,9.974141
81590707929966,0.57739747,0.027175313,9.866368
81590727783406,0.5792279,-0.06193958,9.782638
81590747636975,0.5177564,-0.00425241,9.680432
81590767490414,0.5380311,-0.065824226,9.648916
81590787343711,0.5098028,-0.099079356,9.75224
81590807197280,0.5575538,-0.114370875,9.8238
81590827050719,0.5339675,-0.055738773,9.86046
81590846904287,0.50783104,-0.077393174,9.861156
81590866757728,0.5462264,-0.03801082,9.898691
81590886611295,0.5742015,-0.01236248,9.794177
81590906460702,0.55326056,-0.045083143,9.708166
81590926314143,0.5147866,-0.10422118,9.743548
81590946167454,0.50120836,-0.05156562,9.716907
81590966020894,0.5221073,-0.09601994,9.799707
81590985874207,0.5396017,-0.10010694,9.902882
81591005733254,0.50274,-0.063634306,9.881285
81591025586694,0.48705795,-0.08917332,9.8126545
81591045440263,0.4791953,-0.10217453,9.686608
81591065291799,0.5411041,-0.11411735,9.762306
81591085144721,0.5269219,-0.08468023,9.815626
81591104998162,0.5065656,-0.08263067,9.7714615
81591124851601,0.5502851,-0.09146176,9.944451
81591144705041,0.52515745,-0.07413364,9.854357
81591164558482,0.50160587,-0.052890338,9.632346
81591184411923,0.4529029,-0.09778734,9.706595
81591204262324,0.46507487,-0.08261501,9.801009
81591224115637,0.6338791,1.822792E-4,9.936541
81591243968945,0.5800002,-0.0352152,9.858325
81591263822385,0.51360655,-0.03957878,9.836637
81591283675698,0.40303278,0.010755686,9.819903
81591303534981,0.50221443,-0.056893986,9.665224
81591323388421,0.6459239,-0.13460164,9.737625
81591343241862,0.618114,-0.12680258,9.847027
81591363095303,0.54531944,-0.0214759,9.80151
81591382948616,0.55894935,-0.08766686,9.836118
81591402802057,0.4816106,-0.09376677,9.772537
81591422664488,0.54255986,-0.1009837,9.704234
81591442518057,0.5402359,-0.11649723,9.786857
81591462371754,0.534185,-0.1132737,9.8275585
81591482225323,0.4935649,-0.118314855,9.902533
81591502085620,0.52559024,-0.048899624,9.832739
81591521939445,0.44890842,-0.0011682838,9.787823
81591541793142,0.52935886,-0.038819704,9.715952
81591561646967,0.4901442,-0.034331273,9.730201
81591581500792,0.5233591,-0.07014107,9.85382
81591601352057,0.5445105,-0.05443099,9.835426
81591621205882,0.52030057,0.0055676233,9.807064
81591641059579,0.44532034,-0.03563461,9.840331
81591660913276,0.4343508,-0.052762505,9.826811
81591680766973,0.4843347,-0.07877042,9.747936
81591700620670,0.4646774,-0.08901589,9.641113
81591720475737,0.43606028,-0.12229992,9.816788
81591740329415,0.4749302,-0.07061084,9.8980665
81591760183112,0.49997047,-0.018743029,9.841813
81591780036807,0.49501598,-0.08108876,9.870915
81591799897842,0.44688356,-0.031345647,9.854655
81591819751795,0.4412399,-0.07859294,9.812468
81591839605618,0.51029664,-0.09473815,9.734966
81591859459570,0.46695855,-0.07377106,9.618628
81591879313523,0.4687789,-0.08605256,9.833234
81591899173853,0.46413937,-0.040452097,9.979052
81591919028061,0.5054851,-0.024186142,9.914109
81591938882142,0.47560593,-0.045182496,9.865172
81591958736349,0.4417211,-0.056502234,9.701518
81591978590557,0.3964368,-0.069568805,9.606861
81591998444638,0.50893074,-0.18135567,9.69039
81592018300834,0.52349037,-0.14047197,9.822614
81592038155042,0.52735186,-0.063379735,9.9761095
81592058009379,0.48206437,-0.030901266,9.971595
81592077863586,0.43361688,-0.011206817,9.878818
81592097713795,0.37971428,-0.040504377,9.695977
81592117568004,0.41914588,-0.17895384,9.646588
81592137422211,0.42960474,-0.17293392,9.662451
81592157276419,0.5001451,-0.16563897,9.830675
81592177130628,0.44149294,-0.0811324,9.869979
81592196984963,0.44583452,-0.095323466,9.890225
81592216832742,0.3749561,0.0054973857,9.536644
81592236686695,0.39566714,-0.15938348,9.732975
81592256540774,0.4196582,-0.22207499,10.170625
81592276394854,0.6203977,0.040077746,9.950422
81592296248807,0.40802842,-0.118202075,9.807402
81592316106810,0.36422268,-0.2236113,9.797631
81592335960891,0.30959094,-0.018232714,9.906316
81592355814972,0.5507648,-0.009257558,9.717718
81592375669053,0.42312258,-0.2135876,9.613019
81592395523570,0.3245989,-0.14017786,9.710724
81592415377651,0.42963222,0.037922632,9.872098
81592435231732,0.47120246,-0.007326365,9.953062
81592455085813,0.4533106,-0.0639224,9.77277
81592474939894,0.38655826,-0.010745249,9.837754
81592494793975,0.44958478,-0.02754187,9.869193
81592514638722,0.51140547,0.059418995,9.68279
81592534492547,0.4870556,-0.081539944,9.698626
81592554346372,0.4845797,-0.057101183,9.780507
81592574200325,0.4517419,0.033913195,9.806291
81592594054150,0.56451285,0.08572832,9.86534
81592613903757,0.47977147,0.070859276,9.796111
81592633757582,0.4781648,0.004630421,9.885464
81592653611407,0.4782433,0.09417247,9.815096
81592673465232,0.49034303,0.04957008,9.769929
81592693318917,0.49120665,-0.044297177,9.851423
81592713172614,0.52224344,-8.0979796E-4,9.838891
81592733026419,0.48577785,0.06258736,9.812491
81592752880243,0.4182751,0.014006342,9.733214
81592772733940,0.44982216,-0.028277101,9.66878
81592792587763,0.4839441,0.012567743,9.700867
81592812440752,0.49480045,0.02321123,9.738943
81592832294449,0.45985365,0.0018721002,9.917427
81592852148144,0.51542044,0.030689554,10.041351
81592872001840,0.48038068,0.052666657,9.961506
81592891855537,0.47754273,0.010894453,9.827291
81592911708444,0.40412897,-0.04015805,9.567357
81592931562140,0.46233943,0.017829796,9.615387
81592951415837,0.5021448,0.0025945273,9.717261
81592971269532,0.54825515,0.12676094,9.865839
81592991121266,0.3912169,0.104004495,9.954917
81593010974963,0.4421934,0.15627338,9.950318
81593030828658,0.35159492,0.23665848,9.822854
81593050678640,0.50740236,0.18139619,9.715277
81593070532337,0.43391117,0.0918582,9.633643
81593090386032,0.5319241,0.017702246,9.7739935
81593110241357,0.40691632,0.104439296,9.788898
81593130095054,0.46278638,0.18799303,9.833046
81593149948749,0.4065627,0.19696404,9.872686
81593169802573,0.4150629,0.1329024,9.844386
81593189656270,0.48291892,0.08662964,9.812341
81593209504839,0.47051245,0.029404847,9.761625
81593229358407,0.5289837,0.04995494,9.829745
81593249211976,0.4589909,0.11334919,9.901408
81593269065543,0.44161096,0.14014006,9.7812805
81593288916037,0.45033607,0.084511116,9.855106
81593308769478,0.4243929,0.06145395,9.812198
81593328623045,0.42214933,0.10110655,9.714031
81593348476485,0.44856477,0.008708433,9.712404
81593368330054,0.4320521,0.08885109,9.761938
81593388183493,0.46616912,0.14632325,9.892793
81593408040822,0.46003586,0.15180242,9.933535
81593427894391,0.3676368,0.13314225,9.827371
81593447747958,0.40871993,0.063088275,9.821435
81593467601526,0.42446634,0.1438209,9.6909275
81593487455095,0.49408013,0.09865346,9.793258
81593507315988,0.5001525,0.08188724,9.840323
81593527169684,0.44059289,0.15857604,9.833781
81593547023509,0.4577531,0.235442,9.888794
81593566877204,0.34521732,0.2399327,9.87163
81593586730900,0.33852002,0.19854438,9.694077
81593606584597,0.4353421,0.13407744,9.534036
81593626432258,0.5269246,0.08646558,9.707556
81593646285826,0.47820377,0.23258917,9.921313
81593666139395,0.4128707,0.28329217,9.912452
81593685993090,0.3732254,0.26441035,9.920326
81593705850891,0.30508167,0.2615807,9.922128
81593725704588,0.41378486,0.16356614,9.664273
81593745558155,0.5114298,0.16745247,9.589762
81593765411851,0.4839387,0.14050218,9.696249
81593785265548,0.49288955,0.29616737,9.91299
81593805104625,0.44832435,0.22109361,9.863871
81593824957937,0.39232853,0.2876687,9.864389
81593844811378,0.36623082,0.23996696,9.843705
81593864664689,0.47434384,0.29779735,9.725088
81593884518129,0.50113964,0.1197557,9.735533
81593904371442,0.4621362,0.09500362,9.794148
81593924232543,0.4387549,0.061589897,9.773849
81593944086111,0.44090888,0.19695812,9.7862625
81593963939552,0.40504992,0.174398,9.816186
81593983793119,0.31352907,0.22550514,9.854404
81594003656135,0.41026706,0.12731901,9.887071
81594023509960,0.41412845,0.14092162,9.80942
81594043363783,0.48648223,0.0880098,9.763997
81594063217479,0.40525293,0.086998254,9.740027
81594083071304,0.3722261,0.114388235,9.771534
81594102929645,0.41410115,0.17612799,9.842046
81594122783469,0.39263713,0.15331602,9.822135
81594142637294,0.4235079,0.1291151,9.855127
81594162491117,0.38539997,0.0704189,9.819438
81594182344941,0.4233426,0.07348994,9.780574
81594202198894,0.40333173,0.033823892,9.7468815
81594222049822,0.41443688,0.0051429477,9.786997
81594241903519,0.40912834,0.10422206,9.860221
81594261757344,0.41071206,0.1601866,9.777166
81594281611041,0.38257313,0.07789569,9.79059
81594301468136,0.383436,0.054402765,9.838108
81594321321961,0.44289744,0.13860372,9.861033
81594341175786,0.4246203,0.06634074,9.845075
81594361029611,0.4310335,-0.026037417,9.802424
81594380883564,0.42049417,0.008215776,9.871095
81594400737389,0.4127726,0.15044768,9.658965
81594420601386,0.38643283,0.016466638,9.58234
81594440455467,0.42937112,-0.025188856,9.772093
81594460309548,0.48765555,0.13480547,9.94055
81594480163629,0.4799141,0.28327098,10.079395
81594500017710,0.38749492,0.113611154,10.086521
81594519869193,0.31617054,0.12419301,9.828809
81594539723274,0.41748697,0.020657932,9.61801
81594559577355,0.42729998,-0.011642053,9.581583
81594579431436,0.4798766,-0.12818505,9.617045
81594599279713,0.5120846,0.08404883,9.802386
81594619133666,0.40561262,0.15523145,9.754047
81594638987619,0.27998847,0.11034301,9.821895
81594658841572,0.31952155,0.10133094,9.767469
81594678695525,0.43790713,0.19650558,9.820944
81594698549458,0.47235855,0.088725686,9.907226
81594718404879,0.44454244,0.07304269,9.872335
81594738258832,0.46397954,0.047546547,9.898221
81594758112785,0.43814802,0.1298968,9.812587
81594777966863,0.41966975,0.14582488,9.67861
81594797820816,0.37261322,0.124168195,9.60486
81594817669341,0.42868254,0.047175404,9.707189
81594837523165,0.4505157,0.029215142,9.814594
81594857376990,0.46418732,0.03178848,9.917644
81594877230941,0.45072237,0.04222021,9.917808
81594897083302,0.4141991,0.09780921,9.979075
81594916937127,0.46706295,0.14936432,9.890673
81594936790950,0.47011063,0.08146185,9.727567
81594956644774,0.40409437,0.015424644,9.594109
81594976498599,0.5038392,-0.07569769,9.713356
81594996352422,0.5530081,0.01856716,9.793927
81595016207934,0.5635854,0.08416122,9.82055
81595036061759,0.41175604,0.1318088,9.941147
81595055915582,0.40596306,0.16388576,10.023132
81595075764537,0.43695307,0.11182532,9.847613
81595095618362,0.4997198,-0.06201462,9.738469
81595115476745,0.4515471,-0.038415585,9.641846
81595135330825,0.48336825,-0.0072051925,9.706314
81595155184778,0.5011907,0.009693956,9.814696
81595175038857,0.3817746,0.067915656,9.828023
81595194889453,0.5034249,0.0029312908,9.984923
81595214743278,0.43333596,0.08069292,9.778293
81595234597229,0.3938798,-0.018807108,9.586288
81595254451053,0.42264134,-0.06211499,9.769667
81595274305006,0.4905173,0.025030546,9.902711
81595294158957,0.52532154,0.07825784,10.007864
81595314011335,0.44045988,0.034169536,9.874954
81595333865288,0.34357992,0.09303031,9.69093
81595353719111,0.40959936,0.017172456,9.680602
81595373573063,0.48517397,0.07184792,9.759009
81595393427016,0.5091802,0.006395355,9.852741
81595413274666,0.50630134,0.05991448,9.911691
81595433128362,0.4014788,0.08470031,9.847645
81595452981931,0.41835538,0.08526232,9.92042
81595472835626,0.45572755,0.09904899,9.731628
81595492689323,0.4941775,0.031167706,9.598732
81595512542892,0.4931401,-0.050829526,9.733806
81595532391029,0.36632234,0.04033284,9.765707
81595552244470,0.4181535,0.08648932,9.789327
81595572098039,0.42888987,0.12328942,9.822323
81595591951608,0.41994736,0.06911214,9.948065
81595611805251,0.44281203,0.05972476,9.889034
81595631658820,0.39526734,0.004304102,9.794211
81595651512389,0.37708092,-0.024863228,9.734961
81595671365830,0.3931184,0.034038495,9.659706
81595691219399,0.43911865,0.06368157,9.726933
81595711077106,0.474762,-0.001842591,9.775548
81595730930675,0.41217878,0.08822873,9.835224
81595750784372,0.45408025,0.09845963,9.961768
81595770638056,0.44516262,0.10894692,9.765662
81595790491624,0.43327403,0.040819287,9.727444
81595810345321,0.429865,0.018600093,9.7773905
81595830183839,0.44551703,0.039862458,9.731277
81595850037151,0.49321434,-0.0073297587,9.806643
81595869890464,0.43088272,0.020360144,9.8065195
81595889743775,0.34283623,0.08144001,9.839158
81595909601277,0.41421187,0.0415063,9.8689165
81595929454718,0.4181724,0.0836649,9.70407
81595949308029,0.47501263,0.028583704,9.818421
81595969161469,0.38859415,0.060611434,9.890747
81595989014910,0.4441171,0.06258251,9.850678
81596008882553,0.4848049,-0.0388033,9.887568
81596028736377,0.37103096,-0.008068229,9.597516
81596048590074,0.36495036,-0.06826897,9.669675
81596068443769,0.34406438,-0.060486034,9.741869
81596088297593,0.43799043,-0.09770451,9.859942
81596108151290,0.44849554,-0.1473425,10.009804
81596128004571,0.4932411,-0.104596786,9.919914
81596147858267,0.36054322,-0.0402128,9.741745
81596167712092,0.34033185,-0.12513451,9.707408
81596187565787,0.42741302,-0.10262089,9.757099
81596207419850,0.4972316,-0.08453987,9.811756
81596227273547,0.45231345,-0.050730202,9.831934
81596247127242,0.3857054,-0.08747145,9.820377
81596266980938,0.42120406,0.023870843,9.806832
81596286834635,0.49486032,0.07316994,9.743853
81596306692966,0.558681,0.07063258,9.679642
81596326546662,0.5829733,-0.005238963,9.542558
81596346400487,0.5358024,-0.09683585,9.61884
81596366254312,0.634538,-0.04665476,9.639088
81596386108137,0.6775369,0.03800553,9.588442
81596405961962,0.59539664,0.09462418,9.584354
81596425817189,0.48305842,0.032347903,9.595538
81596445671014,0.5519615,0.0011314377,9.62247
81596465524839,0.65714216,0.023356365,9.561022
81596485378664,0.53135777,0.07418548,9.594581
81596505231737,0.42652833,0.025361696,9.757629
81596525085562,0.5257238,0.03543061,9.761729
81596544939387,0.6774139,0.10441344,9.764133
81596564793212,0.60413766,0.10191259,9.732737
81596584647037,0.37881544,0.0550529,9.582704
81596604500734,0.36152807,0.0068451506,9.50375
81596624354419,0.4306661,-0.042319845,9.513109
81596644208244,0.4684777,-0.042451214,9.569571
81596664062069,0.43673614,-0.05172478,9.67198
81596683915894,0.3684546,-0.050435178,9.686725
81596703769719,0.37484095,0.015016664,9.729638
81596723629638,0.3675464,0.03426999,9.651768
81596743483591,0.4027234,-0.02675363,9.574528
81596763337544,0.35342577,-0.08064132,9.609653
81596783191476,0.37064117,-0.04952911,9.684104
81596803046860,0.45690522,-0.06592692,9.791692
81596822900941,0.46842083,-0.02582165,9.711807
81596842754892,0.3933859,0.0014395459,9.55985
81596862608972,0.39188668,0.0071408954,9.54304
81596882463053,0.41160342,0.06318371,9.631936
81596902317132,0.42056963,0.09511172,9.698637
81596922161801,0.4015996,0.023215748,9.595555
81596942015626,0.42199022,0.00174281,9.537225
81596961869577,0.39716652,0.05835247,9.675956
81596981723401,0.4149111,0.055342093,9.691233
81597001577226,0.38291726,0.10753895,9.699728
81597021435121,0.44094336,0.010268657,9.689185
81597041289073,0.42181996,0.06211271,9.684695
81597061143026,0.3576804,0.081306875,9.635462
81597080997626,0.46281022,0.042154826,9.574798
81597100851475,0.39435607,0.026689207,9.529601
81597120705428,0.3338198,0.045654338,9.502886
81597140559507,0.4044279,0.016129397,9.696982
81597160413459,0.49789017,0.04620173,9.734084
81597180267412,0.48327282,0.044822916,9.658786
81597200121363,0.36640325,0.033183478,9.613452
81597219959230,0.36373463,0.06003569,9.597631
81597239812927,0.43440583,0.073827475,9.554379
81597259666622,0.5211228,0.023962725,9.608867
81597279520190,0.51510817,0.0017784962,9.632891
81597299373887,0.5099054,-0.027779397,9.700503
81597319216791,0.53946465,0.017986063,9.655356
81597339070231,0.55322117,-0.15445149,9.54019
81597358923672,0.4991325,-0.1414531,9.5136795
81597378777241,0.4759297,-0.14762853,9.515367
81597398616486,0.5820104,-0.18669869,9.627705
81597418469543,0.583033,-0.1687417,9.585091
81597438322472,0.4551861,-0.18922162,9.570835
81597458175529,0.45615208,-0.2766379,9.617746
81597478028458,0.5256509,-0.15721138,9.640528
81597497881515,0.5750682,0.019757496,9.696362
81597517735822,0.54846144,-0.019561836,9.6591
81597537588751,0.5621133,-0.24130817,9.504342
81597557441808,0.7276975,-0.2067108,9.463669
81597577294737,0.72114784,-0.03184002,9.527505
81597597147794,0.4630421,0.16692416,9.598741
81597616995669,0.36512032,0.25935638,9.501544
81597636848598,0.33059356,0.38037854,9.564902
81597656701527,0.42771372,0.27280587,9.830278
81597676554456,0.3457371,0.15929742,9.715336
81597696407385,0.10443662,-0.05003811,9.632241
81597716260186,0.30724058,-0.40239903,9.700226
81597736128639,0.6098248,-0.46919864,9.452129
81597755981823,0.6787616,-0.2017766,9.492846
81597775834880,0.5004923,0.017702583,9.714276
81597795688063,0.45624998,0.12683432,9.5708685
81597815548727,0.4667281,0.56006026,9.662256
81597835401912,0.6544698,0.77669334,10.018396
81597855255223,0.9011732,0.69406193,9.913976
81597875108535,1.1712599,0.37824565,9.757492
81597894961720,1.0938061,0.020279782,9.73817
81597914809259,0.8956191,-0.10799466,9.769017
81597934662315,0.77323234,0.23263797,9.701141
81597954515500,0.63423944,0.71481913,9.8009205
81597974368683,0.92058325,0.85639644,9.840063
81597994221867,1.3363483,0.6385374,9.793844
81598014075052,1.2568569,0.47697628,9.6601095
81598033944089,0.69380575,0.13810495,9.741117
81598053797657,0.62956935,0.0063926093,9.5627775
81598073651098,0.8762681,0.060583025,9.45805
81598093504537,0.9822183,0.30193084,9.348901
81598113366805,0.9761064,0.33219308,9.421134
81598133220374,1.16364,0.13913451,9.850551
81598153074069,2.074437,0.69675565,9.962192
81598172927766,2.04035,1.0533688,9.810171
81598192781335,1.7965903,1.1062404,9.762574
81598212649386,2.2101984,0.622469,10.245521
81598232503339,2.02276,0.81253815,10.44801
81598252357292,1.4659778,0.96107274,10.788323
81598272211245,2.1585763,0.16625953,11.513278
81598292065198,3.4567149,-1.113681,10.145961
81598311919151,1.5603703,0.31575006,10.348039
81598331784462,1.8664893,-0.12432011,10.557976
81598351638799,3.4102345,-1.6764876,8.783757
81598371493008,3.2012596,-1.0197798,7.5779796
81598391347217,1.129078,1.6389031,10.598099
81598411201554,-0.2545464,4.1688814,13.693786
81598431065813,-2.6233923,5.8324738,13.625983
81598450920406,0.10099258,7.534981,11.4409895
81598470774871,3.554037,2.225279,11.989515
81598490629464,3.6495214,-3.0512705,13.295953
81598510484057,2.945058,-2.2355754,12.786557
81598530333432,2.7015662,-1.0239098,13.079363
81598550187897,3.1410096,-0.6843505,12.150381
81598570042490,2.8513064,0.6452401,10.867202
81598589896955,2.6890116,1.5235827,9.522854
81598609751420,2.8507047,0.9872324,9.134445
81598629607339,-2.9684842,3.618043,8.449473
81598649461932,-2.0485797,5.031454,7.2618093
81598669316525,-0.8857436,4.95592,6.4507236
81598689171118,-0.05578135,3.242593,5.7981677
81598709025711,-1.0207976,1.7573775,5.239706
81598728883264,-2.4819007,1.4859324,4.591325
81598748738113,-2.653584,-0.52522206,4.7543736
81598768592962,-2.024366,-1.2852956,5.1929817
81598788447676,-0.8154846,-2.0392437,5.7935596
81598808302524,-0.49944752,-1.5627562,5.5198436
81598828142934,-0.77752686,-1.068857,6.009884
81598847997526,0.13293234,-0.6839138,7.1444826
81598867851990,1.9124739,0.031595618,8.481309
81598887706454,1.741952,0.81864434,10.80942
81598907561046,-1.7869186,0.9666671,14.708474
81598927406179,-1.5684937,-0.34699294,18.71231
81598947260515,3.5923321,-2.1501794,14.976184
81598967114851,4.1767225,-2.5925212,8.561172
81598986969059,2.1341283,-1.3187033,5.8127
81599006823395,-1.6977172,2.6184456,6.3053117
81599026672119,-7.9721823,5.6363893,10.276275
81599046526199,-12.115272,2.6735408,19.125732
81599066380279,0.4432902,-0.3762892,18.487421
81599086234359,-1.5791131,4.149096,6.4372063
81599106087328,-4.6084175,5.954455,3.3938105
81599125938599,-4.243559,4.3094997,6.2793794
81599145792552,-5.2389183,3.74097,9.412259
81599165646631,-0.9312303,-0.32547498,13.561194
81599185500712,1.9672527,-0.628184,12.006501
81599205354663,-1.7401384,1.889166,7.616018
81599225203835,-2.7552238,0.12201296,7.496338
81599245057531,-0.92481107,-0.7692833,8.306136
81599264911355,0.87356126,-0.724599,8.678042
81599284765179,-0.3280783,0.92644477,8.312829
81599304619004,-0.47719887,1.0681688,8.78852
81599324474333,-0.49289626,0.70173013,9.150597
81599344328286,-0.40428066,1.1429164,9.274113
81599364182111,-0.5738365,1.8535608,9.432852
81599384036064,-1.6448976,2.0416212,9.356045
81599403889889,-2.2755105,2.4181666,9.497389
81599423743324,-0.58970773,2.343564,10.251318
81599443597277,1.3247796,1.6918133,11.246208
81599463451102,1.2486151,1.7082909,11.805636
81599483304927,1.2842771,2.133938,11.75613
81599503158880,1.5730407,2.9661381,11.077895
81599523010199,1.3278589,3.3696492,10.341693
81599542863896,-0.68353516,1.3784107,10.84719
81599562717593,-3.5854719,-0.30264372,14.898616
81599582571162,-1.6228462,1.7981818,15.0514345
81599602424859,-1.5977663,3.4311552,11.442337
81599622284504,-5.2717295,6.624884,10.683342
81599642138201,-4.8056493,4.8255157,13.441904
81599661992026,-2.8839126,2.5972886,14.722992
81599681845851,-0.31843066,1.7305617,14.643572
81599701699676,4.785039,4.516536,11.592351
81599721559309,2.6683571,4.881541,9.990089
81599741413243,-4.672764,2.03283,8.652094
81599761267067,-6.7127957,1.6249263,6.9709325
81599781121019,-7.931317,3.2792304,4.4748087
81599800974843,-5.5037446,2.0808096,4.6478467
81599820832361,-3.6846414,-0.7121782,6.4612513
81599840686313,-2.9171624,-3.1698885,7.16518
81599860540393,-1.4246203,-4.267688,6.3274097
81599880394473,-0.60332006,-4.6956024,5.911416
81599900248425,0.64716834,-4.2899747,5.8273845
81599920106144,0.7874199,-3.2345228,6.0648966
81599939960224,0.13540763,-2.1252704,7.230859
81599959814432,-0.12489758,-1.0480756,9.097458
81599979668640,0.5222807,0.38506508,10.41849
81599999522720,1.6190042,0.7998713,12.215492
81600019383957,2.9833314,2.1226647,15.255322
81600039238421,0.6706877,5.202913,14.661134
81600059092757,-5.1227627,6.273232,9.38583
81600078947093,-5.6489725,7.1757193,6.1074047
81600098801557,-0.69720846,6.6953793,5.932909
81600118647884,-4.1025004,1.3500541,9.352547
81600138502092,-9.461302,-4.2924223,12.984822
81600158356301,-4.069802,-8.452454,17.630148
81600178210510,16.65279,-3.9873168,15.4239645
81600198064716,-1.2628875,-2.9741786,3.1947513
81600217910403,-6.8547378,-4.8267426,3.547347
81600237764483,-6.3259726,-5.880782,7.5352316
81600257618563,-9.066319,-5.544585,10.811115
81600277472643,-6.3962235,-3.926715,11.492168
81600297326723,6.3782516,6.6260877,10.835646
81600317180804,4.8304024,6.1592064,9.310098
81600337028153,-0.96119934,-0.049577538,7.6840835
81600356882106,-0.8977075,-0.041423626,8.410243
81600376736187,1.2271452,1.5570328,9.420196
81600396590140,0.98226875,1.9681964,8.579233
81600416444093,0.35659507,0.73048353,8.1660385
81600436294320,0.25650072,0.50072217,8.359417
81600456148273,-0.88439417,0.19162302,8.84329
81600476002098,-1.3585249,0.5064175,9.564916
81600495855923,-0.41839767,0.51887435,9.689797
81600515709748,0.47886416,0.50036865,9.483813
81600535560763,-0.32006326,0.65932286,9.631113
81600555414588,-0.45685744,0.40054554,9.297779
81600575268285,-1.0308892,0.17402849,9.834706
81600595121982,-1.866052,2.043148,11.301188
81600614975807,-1.9542587,2.5827513,11.627856
81600634822708,-1.7133427,1.8132981,11.961364
81600654676277,-1.7504853,1.8620167,12.789378
81600674529974,-1.5989586,2.204835,13.29702
81600694383543,-1.9401958,2.3845794,12.848584
81600714237112,-1.9860694,1.5064903,11.487345
81600734093235,0.22099969,-0.032112993,11.007044
81600753946804,1.0698662,-2.2022674,10.724465
81600773800349,0.17556584,-2.8526163,11.360042
81600793653917,-1.3091035,-2.1633546,10.864823
81600813507485,-2.249417,-1.2958188,10.872035
81600833355543,0.22563979,-1.3656273,13.023501
81600853208983,2.3511143,-2.596757,12.5272455
81600873062423,1.0053806,-3.8771832,11.474058
81600892915991,0.44607005,-3.9327395,10.026856
81600912769431,0.6443169,-2.2660062,7.710337
81600932610254,-0.6163383,-1.7196068,7.1837497
81600952463438,-2.3243906,-1.8961089,6.778375
81600972316622,-3.9535666,-1.928783,5.9619913
81600992169806,-1.8809364,-2.4086912,5.594822
81601012022990,0.52155143,-0.66277206,3.022984
81601031874699,2.264976,-0.952554,3.0164816
81601051727755,1.4780585,-1.2016196,5.0038824
81601071580811,0.8181994,-1.9446815,6.4988766
81601091433995,0.6139669,-2.1385255,7.594502
81601111287051,1.0971637,-1.9903038,9.601802
81601131145611,2.4118547,-0.7620806,12.919069
81601150998795,3.6913075,2.799247,16.650934
81601170850382,1.1888422,3.6499164,14.905632
81601190703567,-3.433118,0.5237269,10.086809
81601210556752,-2.8006308,0.26108164,8.3352585
81601230420567,-1.8886479,-0.18054096,9.050282
81601250274004,-1.8247961,-2.1464293,11.820521
81601270127316,0.4552254,-4.0817914,17.965605
81601289980756,1.8434737,-5.0818706,18.450336
81601309834068,0.47285146,-4.74345,10.349764
81601329692272,-0.8138823,-5.257031,4.6057
81601349545712,0.8227861,-2.6088042,5.5187864
81601369399281,0.12807247,-2.5899055,8.9835615
81601389252722,-1.6240228,-2.8101833,11.626716
81601409106291,-2.6740286,-2.0515316,11.475953
81601428961828,0.13723867,2.720528,10.76342
81601448815269,1.446356,3.676156,10.541076
81601468668838,0.16457048,0.2437914,9.266903
81601488522407,-0.05441072,-0.5095057,9.233603
81601508375976,-0.61072534,-0.72184867,9.882996
81601528242941,-1.3593254,-1.0395174,9.585047
81601548096766,-1.0097156,-0.19513284,10.415756
81601567950591,0.11151866,1.0747489,11.08007
81601587804416,-0.19819103,1.0258259,10.637745
81601607658369,-0.043386593,0.39953735,10.23873
81601627513118,0.31426477,0.0025498655,9.799257
81601647367071,0.36280185,-0.51572955,9.920221
81601667221024,0.25754252,-0.77844435,10.189541
81601687074977,0.03366929,-0.626504,9.9860935
81601706928930,-0.10910891,-0.3798412,9.790343
81601726784987,-0.100281164,-0.23925197,9.977088
81601746638923,-0.026743928,-0.2311894,9.948396
81601766493003,0.28985995,-0.27677223,10.119957
81601786346955,0.7378095,-0.2905912,10.352708
81601806201035,-0.06911455,-0.76332456,9.7058735
81601826054038,-1.1758013,-1.250618,9.510295
81601845907990,-0.71717167,-1.2619495,10.069212
81601865761942,-0.18426266,-1.2525802,9.99427
81601885616022,0.19916634,-1.3383696,9.768107
81601905469974,0.2695667,-0.9154103,9.949635
81601925317462,0.41967124,-0.4647951,9.956417
81601945171286,0.3235225,-0.27272856,10.169247
81601965025110,0.4337276,-0.29008546,10.632901
81601984878934,0.23938054,-0.6283655,10.01086
81602004732758,-0.15818152,-0.71358263,9.770846
81602024598230,0.061681025,-0.24039704,9.770312
81602044452310,0.19810179,-0.07700873,9.937844
81602064306390,-0.21369949,-0.77969295,9.9320345
81602084160470,-0.087458104,-0.8661594,9.917689
81602104014550,0.49271426,-0.17480873,9.902215
81602123874256,0.3992426,-0.01040809,9.825753
81602143728464,0.22591957,-0.15354279,9.864123
81602163582800,0.1044529,-0.16058487,10.012307
81602183437008,0.032119274,-0.059894584,10.070226
81602203291216,0.115529664,0.020036967,9.939595
81602223149776,0.27039728,-0.029268388,9.826787
81602243004112,0.22984274,-0.24306473,9.76487
81602262858448,0.26979285,-0.17153437,9.674619
81602282712785,0.2787219,-0.15215045,9.765047
81602302567250,0.20928957,-0.27734402,9.741079
81602322425369,0.34444398,-0.33932534,9.762333
81602342279834,0.17800592,-0.18722396,9.791517
81602362134299,-0.013579599,-0.10401476,9.919781
81602381988892,0.24938028,-0.15130244,9.949244
81602401843357,0.32519314,-0.2741131,9.883844
81602421695602,0.40113625,-0.3211062,9.853308
81602441550067,0.2044522,-0.23709026,9.872226
81602461404532,0.01675272,-0.16666244,9.769286
81602481258997,0.02741223,-0.22185439,9.8223095
81602501113462,0.11144879,-0.30154258,9.928337
81602520956407,0.28771076,-0.31150088,9.910339
81602540810616,0.3377293,-0.32670736,9.788392
81602560664825,0.25058922,-0.30984414,9.651674
81602580518906,-0.012406888,-0.26180276,9.784947
81602600373115,-0.02105377,-0.18362874,9.9837
81602620215248,0.12669,-0.24245393,9.887144
81602640069073,0.28566647,-0.30201313,9.76236
81602659923026,0.31467894,-0.34426573,9.792275
81602679776979,0.18862827,-0.29681095,9.720967
81602699630804,0.12327869,-0.24832085,9.710366
81602719476369,0.1851881,-0.2267753,9.761672
81602739330174,0.20475839,-0.24207996,9.782049
81602759183871,0.23095344,-0.2479929,9.978766
81602779037566,0.22119783,-0.16058043,9.952665
81602798891262,0.2374979,-0.17660333,9.827014
81602818743812,0.20431931,-0.21908908,9.714021
81602838597636,0.13688816,-0.19386107,9.735349
81602858451332,0.112640634,-0.15183851,9.804662
81602878305028,0.22710164,-0.10470223,9.770895
81602898158724,0.22771792,-0.09113151,9.78269
81602918005112,0.18722905,-0.13128604,9.85764
81602937858680,0.1217832,-0.06259936,9.925334
81602957712248,0.2082019,-0.0141871795,9.83272
81602977565688,0.18113494,0.010287294,9.767323
81602997419256,0.18591286,0.01875662,9.782721
81603017269096,0.17991859,-0.04982875,9.894904
81603037122536,0.18533091,0.013466087,9.856111
81603056975976,0.2624844,0.0010189882,9.820022
81603076829416,0.24242195,-0.007894028,9.805914
81603096682856,0.17292681,-0.013380255,9.789897
81603116536296,0.173567,-0.0997655,9.784843
81603136389669,0.2121775,-0.107982956,9.755241
81603156243237,0.27192238,-0.12564185,9.787106
81603176096678,0.23541902,-0.07959734,9.812348
81603195950119,0.17253244,-0.073991686,9.783901
81603215803557,0.110205725,-0.13803793,9.7345085
81603235657570,0.12095064,-0.15116806,9.672016
81603255510882,0.22016612,-0.13654262,9.748251
81603275364268,0.20273061,-0.004338309,9.899158
81603295217708,0.16211043,0.086493805,10.011961
81603315071020,0.21901432,0.012800704,10.014083
81603334922325,0.23070127,-0.058961708,9.809712
81603354775638,0.18668075,-0.04505881,9.697748
81603374628951,0.14851417,-0.020967862,9.636132
81603394482392,0.16096279,-0.0036034123,9.715364
81603414335705,0.14043576,-0.0053954315,9.964767
81603434192638,0.045750953,0.016213499,9.941099
81603454045951,0.12496251,-0.114404745,9.875037
81603473899264,0.16626813,-0.16958883,9.820336
81603493752705,0.22761409,-0.1315434,9.775428
81603513606018,0.20853788,-0.14693181,9.638235
81603533461361,0.25130883,-0.11285823,9.754651
81603553314674,0.19006333,-0.11532141,9.841336
81603573167987,0.14732607,-0.056909177,9.942035
81603593021300,0.13866724,-0.05934814,9.857633
81603612874613,0.08370852,-0.059442826,9.7349615
81603632732508,0.10769834,-0.08014903,9.779312
81603652585949,0.08806103,-0.050349507,9.819885
81603672439390,0.19593428,0.004678078,9.8215
81603692292703,0.1299971,0.036821805,9.823801
81603712146144,0.17617935,-0.0074632573,9.846304
81603732006879,0.049764846,-0.010760739,9.757426
81603751860428,0.123785205,0.019772017,9.8812275
81603771713996,0.14625148,-0.020397782,9.747606
81603791567564,0.2806616,-0.07133051,9.759867
81603811421260,0.22219023,-0.0554744,9.870561
81603831278473,0.20014092,-0.019176904,9.870316
81603851132169,0.17808305,-0.03169544,9.873132
81603870985865,0.1649594,0.009309549,9.732591
81603890839561,0.16966306,-0.0089161,9.692969
81603910693257,0.13562198,-0.011693311,9.783527
81603930548349,0.14987479,0.033303957,9.7683735
81603950402173,0.18244997,0.034814224,9.880889
81603970255997,0.14309934,0.033910405,9.873699
81603990109693,0.16676457,-0.021146027,9.854093
81604009963517,0.183839,-0.041181162,9.848212
81604029826679,0.14903647,-0.028361158,9.742588
81604049680759,0.18385002,-0.09680048,9.697788
81604069534839,0.21944883,-0.067117825,9.725755
81604089388919,0.24053422,-0.063376114,9.819221
81604109242999,0.16758506,-0.005573097,10.059737
81604129097586,0.12773822,-0.0044674515,9.941166
81604148951667,0.21932101,-0.11342049,9.793171
81604168805876,0.19733064,-0.062680535,9.663644
81604188659957,0.1813903,-0.038882542,9.589981
81604208514033,0.2608314,-0.084117904,9.757932
81604228374580,0.26701784,-0.058302145,9.908931
81604248228916,0.19614162,0.0013944347,9.902614
81604268083124,0.17512691,-0.039177343,9.867814
81604287937332,0.20319824,-0.042350028,9.9423685
81604307791540,0.23147278,0.008700339,9.897835
81604327644211,0.2314423,-0.005311185,9.584739
81604347498420,0.33053565,-0.076329395,9.5800295
81604367352629,0.2257912,-0.008727284,9.720758
81604387206710,0.21170498,0.035024002,9.919266
81604407060919,0.16966523,0.05926945,9.997917
81604426914718,0.1699052,-0.0088955965,9.788522
81604446768927,0.18772627,-0.10216506,9.779539
81604466623136,0.10695961,-0.07134702,9.718844
81604486477345,0.18739134,-0.08283088,9.728182
81604506331554,0.22683266,-0.010336403,9.765716
81604526177705,0.23665899,-0.03818808,9.815144
81604546031786,0.11708921,-0.109836236,9.938729
81604565885739,0.1898078,-0.06908904,9.979842
81604585739820,0.16568747,-0.04619202,9.742117
81604605593901,0.15740936,-0.13851953,9.737345
81604625438950,0.110013135,-0.2449234,9.780696
81604645292775,0.26872796,-0.2631988,9.872186
81604665146600,0.2160039,-0.16262797,9.900227
81604685000553,0.16907673,-0.13701034,9.82976
81604704854378,0.12219011,-0.24397269,9.922709
81604724708703,0.12730803,-0.18658568,9.83125
81604744562509,0.18098898,-0.14220774,9.717591
81604764416333,0.1500908,-0.13260216,9.716992
81604784270157,0.11263262,-0.1737591,9.73588
81604804123981,0.13915317,-0.2057021,9.876412
81604823969698,0.10045112,-0.110928714,9.877039
81604843823394,0.12655704,-0.16295058,9.839271
81604863677090,0.12152205,-0.17093256,9.800622
81604883530786,0.17039697,-0.13461074,9.734009
81604903384482,0.17567356,-0.121217676,9.795837
81604923238495,0.14676714,-0.05253953,9.888074
81604943092063,0.14934224,-0.13546963,9.859974
81604962945759,0.08019586,-0.11811597,9.840113
81604982799327,0.13467003,-0.11677701,9.779171
81605002653023,0.1310624,-0.087519,9.759081
81605022508438,0.17048296,-0.021056077,9.884781
81605042362006,0.117493846,-0.061213948,9.916948
81605062215702,0.05885037,-0.09011127,9.832048
81605082069398,0.14207628,-0.1144105,9.740119
81605101923094,0.15598424,-0.09900279,9.848833
81605121777936,0.17096874,-0.08842455,9.741905
81605141631632,0.2182566,-0.13113554,9.801013
81605161485456,0.16607958,-0.038502872,9.83624
81605181339152,0.061509162,0.0021513195,9.839864
81605201192848,0.15379672,-0.032896496,9.883638
81605221040857,0.137214,-0.02302597,9.827655
81605240894425,0.17863709,-0.03610519,9.741149
81605260747993,0.114584364,-0.019708157,9.767178
81605280599303,0.15946619,-0.07133763,9.75991
81605300452744,0.16291337,-0.05667507,9.905227
81605320306341,0.10919781,-3.5790552E-4,9.908675
81605340159910,0.10990987,-0.10887768,9.809003
81605360013479,0.12482995,-0.07763312,9.80893
81605379867048,0.1449878,-0.06040042,9.753306
81605399720617,0.13172399,-0.043665987,9.725841
81605419575416,0.15071712,-0.014840182,9.758877
81605439428985,0.14296462,-0.0575146,9.789458
81605459282554,0.0967581,-0.06423808,9.963059
81605479136123,0.11585039,-0.0443184,9.896847
81605498989692,0.13419151,-0.05613447,9.844868
81605518840573,0.13571645,-0.019704187,9.797617
81605538694142,0.18765695,-0.09409652,9.709038
81605558547583,0.21785657,-0.06574231,9.787959
81605578401024,0.1777544,0.008198607,9.823765
81605598254465,0.1597278,-0.014408599,9.900563
81605618116938,0.10055264,-0.038362883,9.869018
81605637970507,0.18756358,-0.047548484,9.812421
81605657824204,0.17804737,-0.033014353,9.766142
81605677677773,0.16603857,0.013782012,9.739677
81605697531470,0.19787359,-0.053205054,9.65446
81605717385039,0.21107095,-0.04057918,9.900132
81605737244526,0.12708573,0.006890048,9.909256
81605757098328,0.1249778,-0.0061977557,9.9366
81605776952025,0.14917383,-0.0378328,9.832879
81605796805720,0.15390158,-0.07432346,9.617199
81605816659544,0.19641759,-0.022967273,9.616908
81605836521950,0.23243752,0.018820476,9.807022
81605856375902,0.14162852,0.030360572,9.955239
81605876229854,0.08921029,-0.012303782,9.868691
81605896083934,0.21164793,-0.09950408,9.842011
81605915937886,0.14653066,0.00648654,9.897512
81605935792210,0.18692169,0.036493126,9.734253
81605955646290,0.2136382,0.008757134,9.650238
81605975500242,0.23128264,-0.009488359,9.713153
81605995354322,0.13853514,-0.0030866212,9.82736
81606015208402,0.15577559,0.026296658,9.971881
81606035071948,0.10890589,-0.0061472533,9.84106
81606054926156,0.20928638,-0.08195687,9.789032
81606074780492,0.20667312,-0.062234268,9.742431
81606094634700,0.270621,-0.051813282,9.789067
81606114487433,0.15873517,-0.015124769,9.758588
81606134341770,0.19679458,-0.07506331,9.721938
81606154195977,0.19486378,-0.103172824,9.818998
81606174050185,0.13229945,-0.012970892,9.852942
81606193904522,0.09483328,-0.030256595,9.824483
81606213749452,0.19679596,-0.0376226,9.7707815
81606233603533,0.2088997,-0.03979168,9.775352
81606253457614,0.18324521,0.0045973845,9.900782
81606273311695,0.19626081,0.021461887,9.948375
81606293165648,0.21288529,-0.027932864,9.800552
81606313019729,0.18807314,-0.073850736,9.735264
81606332880214,0.14053498,-0.028599879,9.706919
81606352734423,0.21418102,-0.0484215,9.809989
81606372588632,0.22081311,-0.01641919,9.821421
81606392442841,0.21106432,-0.054438684,9.76392
81606412297108,0.161537,-0.086195074,9.875011
81606432151317,0.11875838,-0.08599504,9.8691635
81606452005526,0.2215855,-0.081927046,9.872384
81606471859607,0.1483006,-0.03981777,9.811578
81606491713816,0.18447515,-0.11367074,9.72589
81606511563033,0.1634396,-0.041206583,9.764543
81606531417114,0.15019992,-0.012025738,9.808443
81606551271323,0.11236674,-0.101589784,9.822203
81606571125404,0.11689769,-0.11413187,9.818055
81606590979485,0.14012298,-0.100446925,9.746714
81606610833566,0.07669864,-0.04615825,9.776037
81606630678857,0.087650515,-0.082780905,9.807472
81606650532810,0.16662374,-0.08845457,9.989763
81606670386763,0.10525919,0.006772141,9.951468
81606690240694,0.06416532,-0.09995097,9.700048
81606710086903,0.1273264,-0.1988313,9.74421
81606729940728,0.07215038,-0.16552268,9.69274
81606749794551,0.1364155,-0.059876334,9.632845
81606769648375,0.18503484,-0.05343902,9.739677
81606789502200,0.14981975,-0.113693,9.867578
81606809356023,0.13793549,-0.091452226,10.018828
81606829199330,0.079569526,0.005971605,10.010558
81606849052899,0.15033486,-0.033258136,9.861128
81606868906466,0.15540583,-0.12531252,9.703358
81606888760034,0.2028019,-0.0760509,9.673378
81606908613603,0.28185058,-0.061206833,9.72673
81606928466396,0.18251953,-0.003847325,9.8250265
81606948319836,0.15769546,-0.07189984,9.854085
81606968173277,0.08444733,-0.12271162,9.934828
81606988026716,0.12641574,-0.09892577,9.830546
81607007884569,0.16075085,-0.08732043,9.766464
81607027738010,0.15044849,-0.08077149,9.766127
81607047591577,0.25691724,-0.12487059,9.752172
81607067445017,0.14487697,-0.058750816,9.849977
81607087298586,0.054590758,-0.043325312,9.9326105
81607107152153,0.021380162,-0.09429505,9.892697
81607127001931,0.06068661,-0.06909029,9.794099
81607146855244,0.18434885,-0.069326706,9.693764
81607166708683,0.17689735,-0.044853687,9.699377
81607186561995,0.16896664,-0.017725658,9.778188
81607206415436,0.14068545,-0.06309253,9.851881
81607226277141,0.11646094,-0.06738957,9.99312
81607246130709,0.09017964,-0.09773764,9.937828
81607265984278,0.16434535,-0.0874919,9.836165
81607285837845,0.15133832,-0.044879153,9.72637
81607305694282,0.22150463,-0.07239315,9.668086
81607325547851,0.21867985,-0.020602884,9.724358
81607345401418,0.23141873,-0.0383692,9.838678
81607365255114,0.14386697,-0.0017099304,10.000316
81607385108683,0.061755136,0.039794955,9.950463
81607404962250,0.1130342,-0.021372225,9.833329
81607424818744,0.14875165,-0.031275947,9.721668
81607444672441,0.20819718,-0.034605183,9.573429
81607464526136,0.33950078,-0.017320761,9.805301
81607484379832,0.15288286,0.025897179,9.913984
81607504233529,0.09585511,0.0010960961,9.880644
81607524094500,0.089224376,0.020745227,9.904368
81607543948196,0.04322743,0.021889694,9.870205
81607563802021,0.063723974,0.02717521,9.739137
81607583655844,0.11778007,0.036199205,9.6487665
81607603508907,0.21398151,0.0039446573,9.710955
81607623362732,0.18638569,-0.026811741,9.799028
81607643216682,0.12883571,0.04523584,9.826967
81607663070506,0.10996873,0.0042830105,9.858748
81607682924331,0.005956747,0.034719486,9.852656
81607702778282,0.06679765,-0.032513782,9.6915865
81607722638293,0.21551378,-0.0086239055,9.821693
81607742492246,0.19920714,0.027756374,9.849304
81607762346651,0.20377094,-0.062760584,9.793635
81607782200603,0.20894237,-0.05948293,9.791098
81607802054684,0.14513749,-0.09139943,9.7682905
81607821899701,0.121222205,-0.06743277,9.792403
81607841753525,0.18314981,-0.06118541,9.739085
81607861607350,0.22622561,-0.0884906,9.785064
81607881461173,0.21099795,-0.024384616,9.84763
81607901314869,0.09788876,-0.01854313,9.81348
81607921168694,0.07024209,-0.007012449,9.856562
81607941030045,0.016576458,0.055395924,9.822711
81607960884125,0.045553192,0.01817378,9.785763
81607980738078,0.06562026,0.023232227,9.8
81608000592157,0.13879508,-0.014613502,9.714583
81608020459074,0.14846446,-0.02461943,9.739823
81608040313411,0.12377345,-0.030839086,9.771953
81608060167746,0.11667086,-0.05112822,9.819934
81608080022211,0.1643683,-0.091039695,9.861671
81608099876548,0.22110009,-0.12180005,9.8487835
81608119721651,0.2961474,-0.1860578,9.763693
81608139575857,0.34982404,-0.20617518,9.771616
81608159430066,0.3310594,-0.16510315,9.733935
81608179284273,0.34528852,-0.16440652,9.780426
81608199138481,0.26636788,-0.109176174,9.864348
81608218992690,0.26008093,-0.13178387,9.823352
81608238847860,0.23047104,-0.08716658,9.842475
81608258702068,0.20079675,-0.085928336,9.710828
81608278556277,0.2866346,-0.10415708,9.745828
81608298410486,0.35925582,-0.049793605,9.840888
81608318259103,0.33294657,0.031532824,9.981201
81608338113184,0.16901377,-0.03053575,9.880231
81608357967265,0.13999975,-0.08579331,9.680381
81608377821346,0.15781766,-0.009464896,9.768541
81608397675299,0.13934746,0.08225335,9.831452
81608417530080,0.12412838,0.06900766,9.7655115
81608437384033,0.24259502,-0.045530085,9.82668
81608457237986,0.16073309,-0.0394124,9.789716
81608477092067,0.1576317,0.013116117,9.783708
81608496946020,0.16275738,0.034684066,9.918071
81608516800101,0.10210778,-0.079496026,9.821824
81608536653754,0.17436516,-0.1806499,9.704029
81608556507707,0.28702492,-0.13037634,9.785625
81608576361788,0.28308153,-0.11250418,9.845576
81608596215741,0.19074035,-0.09449834,9.790029
81608616061458,0.17347391,-0.07660581,9.81121
81608635915283,0.05379619,-0.08284198,9.759272
81608655769108,0.0036409807,-0.06671922,9.818236
81608675622933,-0.0011547547,-0.047157176,9.798886
81608695476886,0.123000845,-0.022230506,9.741736
81608715330711,0.12754662,0.024044203,9.789761
81608735184003,0.08309024,-0.001275118,9.84538
81608755037828,0.049523745,0.065070294,9.95319
81608774891651,-0.048104167,0.10256319,9.896197
81608794745475,-0.10109025,0.07190091,9.750525
81608814599300,-0.03688835,0.0062985653,9.730468
81608834449740,0.03443609,-0.016196081,9.708649
81608854303564,0.19081545,0.009886573,9.726732
81608874157261,0.12838528,0.032443807,9.780384
81608894011084,0.11787115,-0.084478416,9.817227
81608913860879,0.12073091,-0.1564555,9.947997
81608933714576,0.1741775,-0.09968568,9.926288
81608953568143,0.26115623,-0.11299989,9.81242
81608973421839,0.26779687,-0.14859153,9.697414
81608993275536,0.27310616,-0.152169,9.615044
81609013129231,0.30348733,-0.09997747,9.78881
81609032980969,0.25027642,-0.04012846,10.001424
81609052834666,0.19095172,-0.07372334,9.936685
81609072688233,0.13104919,-0.09140424,9.887367
81609092541801,0.03404994,-0.017068528,9.727118
81609112395498,-0.011419475,-0.0054442603,9.541199
81609132253267,0.12058632,0.073925085,9.730209
81609152106963,0.17077117,0.013032918,9.860457
81609171960660,0.22300501,-0.006880801,9.85934
81609191814483,0.19994584,-0.033893492,9.8807745
81609211659414,0.09521904,0.009088859,9.808772
81609231512983,0.098307095,0.0065495567,9.834367
81609251366422,0.10311064,-0.024098868,9.821064
81609271219990,0.17666261,-0.041965272,9.8345995
81609291073431,0.21948192,-0.1237487,9.845397
81609310927000,0.21541506,-0.15207711,9.732496
81609330781129,0.19624881,-0.06663688,9.7560005
81609350634698,0.0345078,0.12828334,9.80193
81609370488139,-0.16783787,0.06713644,9.796973
81609390341708,0.032707952,-0.03216928,9.782151
81609410195277,0.13583955,-0.0040631355,9.776769
81609430047346,0.054050364,0.15741365,9.842538
81609449900787,0.09146891,0.13491912,9.824987
81609469754100,0.15225978,0.04530628,9.785434
81609489607541,0.08542176,-0.06571894,9.852889
81609509460982,0.112022355,0.04973762,9.786787
81609529314423,0.07650548,-0.06194703,9.850943
81609549180170,0.086823255,-0.03833046,9.728603
81609569033739,0.13803034,-0.016577208,9.789637
81609588887436,0.20313987,-0.15213425,9.859357
81609608741133,0.18640287,-0.10164329,9.836418
81609628598762,0.1660083,-0.13884722,9.957956
81609648452459,0.16493632,-0.30059278,9.879287
81609668306284,0.29343858,-0.2331718,9.804396
81609688160109,0.24883093,-0.20904627,9.734256
81609708013934,0.2548381,-0.14812194,9.692182
81609727864181,0.19505657,-0.14365813,9.824396
81609747717857,0.15368688,-0.14474358,9.814354
81609767571554,0.01852543,-0.073446564,9.796598
81609787426419,-0.012230193,-0.036599472,9.740275
81609807280115,0.021010837,-0.067615196,9.758723
81609827133812,-0.09075894,-0.10420431,9.781412
81609846990239,-0.0010041574,-0.0014954583,9.889978
81609866843935,0.31799862,0.08422751,9.838876
81609886697760,0.34943175,-0.030256841,9.902188
81609906551455,0.15903325,-0.019549968,9.861218
81609926406096,-0.021198435,-0.15384807,10.099421
81609946259921,0.2512929,-0.42237592,10.089057
81609966113744,0.49399617,-0.20405565,9.364442
81609985967440,0.3062957,0.13694578,9.251698
81610005821265,-0.0024447206,0.19852868,9.790604
81610025681598,-0.063497625,-0.047257405,9.958863
81610045535550,-0.10371918,-0.10137319,9.844766
81610065389503,-0.11560738,-0.06416606,9.845103
81610085243454,-0.12238547,0.10600237,9.84042
81610105097406,0.047677442,0.15948746,9.809956
81610124951487,0.242421,-0.015957713,9.680021
81610144805347,0.30032325,0.00688133,9.667563
81610164659427,0.08304895,0.0021721106,9.896235
81610184513380,-0.021291336,0.114479326,10.046059
81610204367459,0.02687352,0.17446974,9.855502
81610224203133,0.12771232,-0.007095746,9.724156
81610244056830,0.13928479,-0.18796442,9.760526
81610263910397,0.20336124,-0.23744096,9.806491
81610283764093,0.3214456,-0.15141767,9.758058
81610303617662,0.42162836,-0.033912517,9.784092
81610323458233,0.23985708,-0.12659186,9.694915
81610343311674,0.14574747,-0.23031078,9.884023
81610363165115,0.06444959,-0.13173541,9.926447
81610383018428,0.15309681,-0.039927006,9.781047
81610402871869,0.2942121,-0.096679755,9.755265
81610422725310,0.27754462,-0.1451667,9.770547
81610442566743,0.26967555,-0.080968276,9.817766
81610462419800,0.19251212,-0.036670838,9.904182
81610482272985,0.03497793,-0.016693596,9.866316
81610502126170,-0.016004205,-0.0021836215,9.774922
81610521970797,-0.06712872,0.063896075,9.746777
81610541823726,-0.0967606,0.123905584,9.722812
81610561676655,0.04035686,0.1124221,9.758602
81610581529584,0.17639981,-0.017930318,9.730242
81610601382513,0.21221066,-0.19065122,9.818098
81610621235314,0.23793179,-0.3072103,9.919995
81610641079681,0.27246597,-0.21287213,9.90002
81610660932354,0.2368722,-0.15992014,9.93349
81610680785027,0.15770452,-0.11998726,9.941565
81610700637700,0.09332138,-0.049382843,9.6835985
81610720490373,0.17288186,-0.012177888,9.415098
81610740358802,0.16505484,-0.20615646,9.906274
81610760211709,0.085623465,-0.16754161,9.847945
81610780064638,0.026326742,0.08271465,9.799935
81610799917565,0.03680842,0.11132211,9.907594
81610819774632,-0.014112967,0.05586029,9.71886
81610839627561,-0.01321497,-0.034756314,9.760227
81610859480488,-0.0069285794,-0.102938674,9.943731
81610879333416,0.18702954,-0.08682804,9.821621
81610899186345,0.25610676,-0.0123149315,9.847216
81610919039272,0.15651003,-0.011483971,9.73873
81610938902100,0.23087247,-0.19965804,9.737399
81610958755157,0.21496874,-0.36408392,9.984963
81610978608212,0.09916125,-0.24627692,10.033581
81610998461268,0.2972627,-0.11510125,9.787505
81611018314325,0.25161934,0.043144282,9.634426
81611038178511,0.15425482,-0.04750277,9.610866
81611058031823,0.26225823,-0.19881123,9.807584
81611077885008,0.21573946,-0.04250345,9.968575
81611097738319,-0.009567033,0.19833744,9.81063
81611117603249,-0.20835818,0.216457,9.74684
81611137456818,-0.2174208,0.10100758,9.747437
81611157310385,-0.107569076,0.115152895,9.74813
81611177163953,0.048846092,0.2139867,9.843738
81611197017522,0.08235379,0.09780071,9.744267
81611216871089,0.11195205,-0.19278839,9.8418665
81611236735860,0.10465849,-0.24285422,9.851062
81611256589685,0.13373819,-0.15798892,9.785998
81611276443510,0.14726111,-0.14197998,9.777218
81611296297335,0.059399225,-0.08793948,9.573838
81611316151160,0.008382803,-0.1382372,9.791616
81611336007573,0.0965053,-0.20910864,10.005868
81611355861526,0.050634872,-0.07731674,9.844295
81611375715479,0.050434526,0.108836696,9.78162
81611395569432,0.10651749,0.06478973,9.803366
81611415431681,0.118596084,-0.07161144,9.914289
81611435285890,0.04713038,-0.16839878,9.941332
81611455140099,0.20585619,-0.14495362,9.869881
81611474994180,0.36388114,-0.18768363,9.755089
81611494848389,0.38885558,-0.22638889,9.783737
81611514702598,0.3662087,-0.20613748,9.850459
81611534572733,0.3150365,-0.13357146,9.966672
81611554427326,0.27322295,-0.070083894,9.888678
81611574281919,0.20526394,-0.004535138,9.791811
81611594136384,0.022249464,0.06959989,9.721547
81611613990977,-0.06984424,0.1794819,9.713421
81611633851864,-0.0746676,0.30557922,9.753634
81611653706713,-0.043569926,0.28084216,9.730948
81611673561562,-0.078613944,0.2436011,9.785465
81611693418051,-0.06059575,0.11927039,9.868785
81611713273028,0.03493654,0.12019496,9.890712
81611733127877,0.08413007,0.07592852,9.7784395
81611752986382,0.116934605,-0.020903366,9.757318
81611772841356,0.19809225,-0.049928784,9.733261
81611792696461,0.31990498,0.008395754,9.886358
81611812551564,0.14472462,0.090991884,9.894166
81611832401952,0.10966648,-0.008428625,9.895225
81611852256929,0.13672568,-0.16959995,9.828645
81611872111904,0.21719101,-0.054665796,9.670149
81611891967008,0.21412502,0.016862364,9.673408
81611911821985,0.2562899,-0.080715224,9.670829
81611931668269,0.2153227,-0.11185359,9.753303
81611951522989,0.16208446,-0.07424993,9.8117695
81611971377838,0.10582963,0.051335674,9.950033
81611991232685,0.01470492,0.10375057,9.78904
81612011087405,0.033499476,0.061877675,9.82808
81612030942254,-0.036609914,0.03622624,9.9472885
81612050786552,0.017711334,-0.023194587,9.585249
81612070641144,0.17107873,-0.058116898,9.681742
81612090495609,0.29995352,-0.017813204,9.756807
81612110350200,0.189241,-0.055555657,9.793745
81612130199179,0.21819142,-0.047142804,9.947833
81612150053644,0.16566508,-0.04031547,9.962182
81612169907979,0.21937096,-0.11470101,9.876393
81612189762315,0.16329339,-0.093525015,9.733061
81612209616652,0.11995009,-0.0942435,9.644303
81612229468904,0.20583409,-0.12103315,9.677875
81612249323112,0.25858033,-0.06516369,9.710065
81612269177321,0.20409079,-0.005407502,9.791315
81612289031528,0.10838908,-0.02609579,9.89278
81612308885608,0.09374914,-0.024597941,9.88314
81612328739817,0.21883507,-0.041898545,9.826559
81612348590488,0.19433391,-0.022980921,9.79915
81612368444569,0.14861391,-0.011426087,9.712587
81612388298778,0.13191101,-0.03234354,9.745521
81612408152859,0.21023929,-0.007818905,9.789328
81612428000096,0.23030968,0.0072100107,9.898752
81612447854177,0.2021985,-0.0018732942,9.934983
81612467708128,0.21963114,-0.002365454,9.881493
81612487562080,0.119585074,-0.086153634,9.746615
81612507416033,0.10154394,-0.10670361,9.61881
81612527270112,0.12828308,-0.020512845,9.75695
81612547119572,0.070312455,0.0069292826,9.759775
81612566973525,0.1290017,-0.04814953,9.7972355
81612586827348,0.13732351,-0.026606971,9.904418
81612606681300,0.06185331,-0.027009612,9.988039
81612626535125,0.031757146,-0.011560762,9.923174
81612646376928,0.101900026,-0.050551895,9.73176
81612666230624,0.15007946,-0.1522638,9.593314
81612686084321,0.23985977,-0.12044382,9.626263
81612705937888,0.19749235,0.031432074,9.845487
81612725790030,0.112532414,0.05607483,9.908579
81612745643599,0.14759946,-0.030782681,9.939844
81612765497166,-0.027631242,-0.14624056,9.978771
81612785350734,0.007720228,-0.12222728,9.89997
81612805204431,0.050737888,-0.14504421,9.830324
81612825057998,0.27525842,-0.09024778,9.665694
81612844905526,0.28285542,-0.080653146,9.622742
81612864759095,0.17723244,-0.045778874,9.696018
81612884612534,0.06001352,-0.10421208,9.8968935
81612904465974,0.16810271,-0.109096445,9.841235
81612924319415,0.12610583,-0.08972808,9.911639
81612944166041,0.112650216,-0.0833065,9.832732
81612964019353,0.115550384,-0.10865257,9.867785
81612983872538,0.22635317,-0.0037307418,9.821006
81613003725849,0.24841058,0.06229739,9.76272
81613023579033,0.17415193,0.020879867,9.827389
81613043432346,0.12070228,-0.02643874,9.812703
81613063287151,0.049841657,0.0198157,9.832742
81613083140463,0.056840368,0.06812718,9.872692
81613102993648,0.04542327,0.10458047,9.886784
81613122846831,0.030185834,0.019070573,9.848448
81613142691159,0.08624391,-0.0881315,9.782371
81613162544216,0.14393947,-0.08642295,9.783377
81613182397399,0.12444538,-0.051639847,9.8185835
81613202250455,0.17003627,-0.06787111,9.9028425
81613222103512,0.21111964,-0.15810077,9.855945
81613241946232,0.2780083,-0.1658146,9.817529
81613261799032,0.26233524,-0.13240528,9.817378
81613281651833,0.15593602,-0.07083738,9.77228
81613301504760,0.09054666,0.0042873286,9.749504
81613321357560,0.069122426,0.0018763298,9.734622
81613341210489,-0.009237735,3.241601E-4,9.793196
81613361067229,-0.05531153,0.0040469617,9.940146
81613380920157,-0.017941618,0.06088665,9.854462
81613400773086,0.032084633,0.09363372,9.820441
81613420625885,0.0596718,0.06491263,9.804433
81613440489565,0.050728712,-0.010655092,9.751343
81613460342622,0.08297362,-0.022546595,9.752044
81613480195677,0.10540968,0.026225634,9.821992
81613500048733,0.038148187,0.010337592,9.858303
81613519901918,-0.060622133,-0.036552012,9.923806
81613539765688,-0.023737121,-0.043120716,9.878037
81613559618872,0.072668545,-0.07706344,9.735056
81613579472185,0.16438398,-0.07370584,9.538816
81613599325496,0.11490231,-0.02482575,9.688024
81613619178680,0.1022998,0.016440704,9.758582
81613639031993,0.091565974,0.012475865,9.899689
81613658895312,0.09762282,-0.06359562,9.907033
81613678748752,0.13823286,-0.040391378,9.863914
81613698602065,0.11108583,-0.0064556124,9.896113
81613718455504,0.12002937,0.059202418,9.818862
81613738325690,0.17619984,0.04450564,9.701553
81613758179515,0.23884042,0.066407606,9.674957
81613778035485,0.18605745,0.045170296,9.754507
81613797889309,0.16882321,0.061414372,9.882982
81613817743006,0.11928622,0.036344137,9.93721
81613837596829,0.10563747,0.03385132,9.906878
81613857461582,0.07270509,-0.0154002765,9.8375225
81613877315663,0.11093398,-0.012243737,9.71464
81613897169742,0.2337363,0.054378267,9.652914
81613917023822,0.21508306,0.08542325,9.673469
81613936878031,0.14136705,0.028620755,9.731157
81613956741996,0.10697301,-0.039841127,9.834455
81613976596460,0.104804136,0.031749394,9.899975
81613996450797,0.056698073,0.051950593,9.929735
81614016305132,0.05426175,0.058644228,9.906713
81614036164124,0.087818265,0.0070676706,9.813578
81614056018717,0.12917283,0.022318508,9.63867
81614075873180,0.1545843,0.1008206,9.6532135
81614095727772,0.1591066,0.1212259,9.73791
81614115582237,0.12202947,0.06740215,9.82414
81614135436828,0.093729794,0.02595694,9.861402
81614155255018,0.072602436,0.021229377,9.918986
81614175108843,0.069820985,0.07466936,9.876225
81614194962794,0.100254655,0.06577897,9.796123
81614214816746,0.14656918,0.04083989,9.718135
81614234670571,0.18789051,0.032289788,9.705554
81614254531917,0.16409837,0.04292176,9.690776
81614274385997,0.107765034,0.07370905,9.799221
81614294239950,-0.07434493,0.078616165,9.888005
81614314094029,-0.14271796,0.07023746,9.912126
81614333952309,-0.19517045,0.04717604,9.857256
81614353806518,-0.10694037,0.042938918,9.780513
81614373660725,-0.049670335,0.11483184,9.693807
81614393514805,-0.031617858,0.16123885,9.671684
81614413369014,-0.022899605,0.11978441,9.753891
81614433223221,-0.021692624,0.1081783,9.828942
81614453078211,0.03885145,0.106446706,9.912269
81614472932292,0.02500555,0.036738615,9.8941145
81614492786499,0.10916174,0.041929226,9.881313
81614512640707,0.20892218,0.03151664,9.778898
81614532494916,0.32388103,-0.044693995,9.683171
81614552356251,0.37612683,-0.04594003,9.680389
81614572210587,0.3555691,-0.018463809,9.722868
81614592064924,0.25735658,-0.015149005,9.809636
81614611919259,0.19980706,-0.08192926,9.923671
81614631774711,0.14226918,-0.15694769,9.868162
81614651629048,0.15436038,-0.05748369,9.826415
81614671483511,0.098531686,0.0067338734,9.80566
81614691337847,0.08578003,-0.008797751,9.779047
81614711192312,0.17566165,0.032027874,9.747816
81614731046775,0.12617543,0.0891091,9.747926
81614750893981,0.13542055,0.00712477,9.794281
81614770748190,0.16186608,-0.007720667,9.892729
81614790602397,0.17576338,0.09283029,9.895421
81614810456605,0.16997382,0.092593856,9.858757
81614830310686,0.15932323,-0.0095845,9.84019
81614850152697,0.18060505,-0.10855066,9.79179
81614870006521,0.2802566,-0.037525848,9.733029
81614889860346,0.23245469,0.020089636,9.741645
81614909714169,0.21141785,0.07299944,9.814787
81614929567865,0.09603109,-0.19286692,10.059982
81614949421690,0.18338078,0.058008403,9.522028
81614969272630,0.17028238,0.025040647,9.857729
81614989126326,0.045778036,-0.14838287,9.921954
81615008980023,-0.07559654,0.046783507,9.687433
81615028833718,-0.04208992,0.06206195,9.717643
81615048690583,-0.07806204,-0.08375625,9.87862
81615068544408,-0.09420524,-0.021836722,9.856259
81615088398103,-0.124270804,0.090737596,9.818472
81615108251799,-0.30425173,0.018326467,9.8360615
81615128105624,-0.47293776,-0.14397854,10.029628
81615147965864,-0.3916456,-0.08827118,9.948673
81615167819688,0.018844416,0.08833255,9.559579
81615187673641,0.26454726,0.014365198,9.826961
81615207527464,0.55875313,-0.07437273,9.922554
81615227381288,0.6896164,-0.039350078,9.811969
81615247235241,0.69799954,0.19022967,9.745245
81615267093350,0.66808724,0.1547682,9.82855
81615286947430,0.39229357,0.21302965,9.482164
81615306801383,-0.047016524,-0.22559942,9.863585
81615326655334,-0.24596468,-0.29246673,9.995114
81615346515620,-0.17336029,-0.056587853,9.745998
81615366369829,-0.0039806208,0.041311063,9.827486
81615386223908,0.07351851,-0.009380448,9.745178
81615406078116,0.19784322,0.10132724,9.811743
81615425932325,0.33113787,0.2115489,9.87107
81615445792492,0.41369623,0.16372119,9.872061
81615465646828,0.18980798,0.13334087,9.831471
81615485501165,-0.045883235,0.03439686,9.653418
81615505355500,-0.15082096,-0.21769342,9.778789
81615525209836,-0.43337274,-0.21673967,10.105952
81615545064301,-0.23278485,0.26335144,9.723724
81615564927017,0.090914376,0.1983956,9.834807
81615584781737,0.2587353,0.010967242,9.832433
81615604636330,0.44811183,0.119147375,9.763783
81615624490921,0.40356877,0.1219838,9.968769
81615644346049,0.2120732,-0.11286026,9.9898205
81615664200770,0.1897028,-0.117427416,9.660986
81615684055489,0.017745605,0.044168547,9.537151
81615703910337,-0.25240797,0.13410719,9.6891365
81615723765058,-0.06836553,0.10884762,9.841626
81615743600803,0.14445044,0.11723561,9.809428
81615763454883,0.19334564,0.08333928,9.721216
81615783308964,0.07796021,0.0055697276,10.021604
81615803164753,-0.19805643,-0.07678174,10.0551195
81615823018833,-0.25927782,0.006013654,9.765759
81615842872914,0.006843457,0.11914801,9.556399
81615862723543,0.25893354,-0.049214367,9.826627
81615882577623,0.23002577,-0.095417246,9.954824
81615902431704,0.2986238,-0.017185902,9.964004
81615922285783,0.43709558,0.06369395,9.96027
81615942137961,0.3472687,0.02540342,9.835364
81615961991914,0.15184203,0.07892639,9.708824
81615981845993,-0.24014665,0.02173694,9.616892
81616001699945,-0.17773248,0.14101294,9.534013
81616021554026,0.17673314,0.008988189,9.786184
81616041407977,0.4261003,0.05640554,9.897858
81616061261813,0.2654443,-0.097823955,9.81153
81616081115766,-0.06386527,-0.06839124,9.792317
81616100969845,-0.1172837,0.30127668,9.784709
81616120823797,-0.180483,0.10887321,9.950765
81616140677750,-0.2305505,-0.23603548,10.034278
81616160534907,-0.0717814,-0.14677648,9.7967205
81616180388987,0.08480759,0.03266536,9.651519
81616200243068,0.13000228,0.20901355,9.720534
81616220097275,0.10548933,0.1834882,9.760594
81616239953293,0.111402795,0.087925695,9.926299
81616259807374,0.03235533,-0.010869525,9.994127
81616279661581,-0.056846205,0.004380954,9.896592
81616299515661,-0.112545736,0.045995712,9.786911
81616319369870,-0.098688975,-0.04506709,9.585788
81616339223949,-0.058486514,-0.050038535,9.506614
81616359078485,0.19737263,-0.008815462,9.726371
81616378932694,0.42730024,-0.035751916,9.919271
81616398786773,0.3703643,-0.029660977,10.010616
81616418640981,0.2676431,-0.074308455,10.070533
81616438495190,0.14905651,-0.11453504,9.837731
81616458333576,0.19100598,-0.09829728,9.690332
81616478187400,0.23285821,-0.074086316,9.63311
81616498041225,0.37684005,-0.012002135,9.7968645
81616517894920,0.50980234,-0.0039492096,9.80174
81616537748207,0.41258126,-0.022945706,9.826411
81616557601904,0.31118912,0.018217802,9.847068
81616577455727,0.25895107,-0.06342461,9.922086
81616597309423,0.28136477,-0.07402423,9.903906
81616617163248,0.23264165,8.088824E-4,9.8625
81616637016943,0.30462423,-0.0976444,9.856475
81616656852932,0.38262582,0.114805676,9.823192
81616676706373,0.15049908,0.18159649,9.514711
81616696559684,-0.18268967,0.14697818,9.707446
81616716413124,-0.34278074,0.13826445,9.806766
81616736266437,-0.30289167,0.18596263,9.866208
81616756127135,-0.3815251,0.21357584,9.839068
81616775980703,-0.43837973,0.24782701,9.783181
81616795834272,-0.27516475,0.270403,9.702421
81616815687711,-0.08218687,0.22709648,9.715681
81616835540285,-0.037482794,0.11398544,9.592422
81616855393726,0.009268624,0.06800629,9.630016
81616875247165,-0.020841664,0.08861377,9.639774
81616895100605,-0.039951477,0.11238157,9.834678
81616914954046,-0.09830351,0.060937222,9.804954
81616934807485,-0.14565635,-0.0037385055,9.654584
81616954663174,-0.08984784,-0.0028719997,9.699253
81616974516615,0.022299826,-0.057462104,9.57151
81616994370182,0.20620607,-0.07847451,9.536226
81617014223622,0.33168703,-0.085719235,9.646553
81617034077063,0.38798493,0.0057927547,9.705827
81617053939401,0.34796342,-0.07018754,9.801147
81617073792969,0.29134226,-0.10687936,9.841538
81617093646666,0.25772694,-0.030207593,9.804114
81617113500361,0.13295156,0.013548694,9.769491
81617133356305,0.083897546,-0.017387528,9.73021
81617153210002,0.14306088,-0.047934197,9.688511
81617173063697,0.17637841,0.027776755,9.684597
81617192917393,0.14803524,0.0409455,9.6569
81617212771218,0.1713422,4.8732848E-4,9.686228
81617232624913,0.17384179,-0.039380744,9.669804
81617252481175,0.17092353,-0.021462021,9.74315
81617272334872,0.14648464,-0.057352245,9.761749
81617292188695,0.22321472,-0.0041129556,9.771835
81617312042391,0.15012045,0.018198827,9.697913
81617331896216,0.038665596,-0.0056591933,9.691075
81617351754653,0.014058508,-0.042123776,9.765341
81617371608477,0.03534012,-0.017658098,9.76064
81617391462430,-0.029076459,0.010433028,9.712261
81617411316253,0.03559913,-0.069487736,9.729678
81617431170205,0.18775731,-0.1390376,9.644319
81617451024030,0.3121602,-0.022995166,9.579411
81617470878694,0.3090411,0.022217426,9.630095
81617490732646,0.17920865,-0.036652874,9.69775
81617510586471,0.1166747,-0.023887476,9.7650175
81617530440294,-0.01695177,-0.0028164852,9.816484
81617550304037,-0.007393313,-0.008937391,9.732536
81617570158118,0.0010457889,-0.045667205,9.711603
81617590012197,0.041838683,0.010678259,9.677444
81617609866277,0.13998847,0.020954702,9.613758
81617629720230,0.24200049,0.0111193,9.620066
81617649574862,0.24515156,-0.08121787,9.709309
81617669428942,0.22887447,-0.03923342,9.785224
81617689283023,0.18207155,0.059139732,9.739465
81617709137230,0.036014516,-0.015189782,9.729868
81617728991310,-0.06443185,-0.038597044,9.71527
81617748845391,-0.042636774,-0.0058878567,9.573666
81617768702882,0.09511384,0.105406664,9.526599
81617788557090,0.0332602,0.05769674,9.590746
81617808411299,0.043576207,0.008962634,9.686768
81617828261755,0.114379436,0.09933085,9.718045
81617848117243,0.086320534,0.20061234,9.7602415
81617867971580,-0.034526512,0.1615657,9.744677
81617887825915,-0.001105632,0.12017247,9.742962
81617907680123,0.09685601,0.15289254,9.7110815
81617927534460,0.13073379,0.16533539,9.635007
81617947388777,0.117980234,0.13235292,9.525705
81617967243113,0.02916066,0.1164936,9.52929
81617987097578,-0.069681495,0.05156235,9.597988
81618006951913,0.1096935,0.095133185,9.800078
81618026806377,0.2767572,0.16051565,9.885769
81618046660842,0.42226294,0.17871922,9.865838
81618066511855,0.57711947,0.25536403,9.577965
81618086366191,0.3380197,0.24378312,9.595402
81618106220528,0.070647925,0.10826367,9.720162
81618126074735,0.078068756,0.034901798,9.69024
81618145931582,0.044480253,-9.386121E-4,9.625775
81618165786047,-0.10835918,-0.10116296,9.700996
81618185640382,-0.007951057,-0.20411475,9.741217
81618205494846,0.10293574,-0.25268078,9.626701
81618225349183,-0.10119642,-0.13316147,9.57921
81618245203646,-0.2498145,-0.029321713,9.575063
81618265042372,-0.32892898,-0.0306314,9.510811
81618284896325,-0.30280316,0.073907584,9.473955
81618304750276,-0.30787718,0.23046589,9.703448
81618324604228,-0.3742528,0.23991153,9.850086
81618344458309,-0.017608153,0.54851955,9.856019
81618364315850,0.2000815,0.71572053,9.646072
81618384169930,0.049272027,0.53945416,9.605081
81618404024011,-0.05699698,0.44774142,9.747294
81618423877962,-0.20410764,0.4084562,9.596563
81618443724447,-0.27771512,0.2752123,9.525953
81618463578272,-0.2708046,0.3874783,9.540604
81618483432223,-0.23591554,0.6847282,9.555007
81618503286047,-0.20273165,0.88461566,9.584661
81618523139872,-0.20991635,0.8057617,9.598208
81618542993823,-0.18858548,0.57496655,9.524595
81618562849896,-0.3325579,0.5200952,9.573411
81618582703849,-0.2690802,0.861815,9.574308
81618602557672,-0.22962949,0.6758636,9.428436
81618622411624,-0.42113277,-0.1267195,9.148465
81618642265448,-0.33542973,0.027885266,9.446486
81618662118717,0.13521641,0.29776716,9.545246
81618681972669,0.41294378,0.789526,9.849972
81618701826621,0.69761956,1.0917158,10.687558
81618721680445,0.6539445,1.516037,11.06407
81618741534397,0.2019933,1.8253251,11.0181
81618761384899,-0.7782126,2.23701,10.995275
81618781238723,-0.80430967,3.0838294,11.378945
81618801092547,-0.33384797,3.6214395,11.020125
81618820946371,0.478224,4.1562705,10.502293
81618840800195,0.16969599,3.768214,9.920787
81618860643924,-1.6626676,2.2099113,12.977319
81618880497492,-3.8043427,0.941825,15.189874
81618900351060,-3.2810247,2.1910625,12.1993
81618920204628,-1.6959624,2.658294,10.217263
81618940058196,0.5196039,1.0191926,10.1800375
81618959915946,-0.09558484,0.7160723,10.3373
81618979769642,0.29308984,1.8793049,11.539482
81618999623210,0.6781635,3.020092,10.842067
81619019476906,1.0140916,1.916882,11.004081
81619039330475,-0.50451386,-0.6905217,11.889048
81619059184138,-1.3718687,-2.5825052,11.194541
81619079037707,-2.9013166,-1.5221857,9.296247
81619098891400,-3.5676308,-0.39230496,7.6007695
81619118744969,0.15569,2.7417486,8.512578
81619138598536,0.9801287,0.6862275,9.379714
81619158456395,-0.11826061,-2.6003826,7.4048233
81619178310219,-0.5491075,-4.507155,5.8368707
81619198163915,0.0028807241,-2.985471,6.3850527
81619218017739,0.73356014,-0.24391617,6.654726
81619237871435,0.56605816,0.1658227,6.4136705
81619257730464,1.3193876,-0.12315693,6.9366207
81619277584289,1.1851512,-0.116951056,6.753157
81619297438114,0.46749148,0.31075355,6.301223
81619317291939,-0.10250206,1.2080715,6.1255655
81619337145764,-0.09902813,1.5716002,6.521889
81619356999589,-0.3162354,1.4682494,7.397805
81619376849328,-0.98746777,1.5945985,9.336867
81619396703025,-1.2724886,0.9283522,11.952717
81619416556850,-0.82059,1.169894,14.99837
81619436410675,-0.32468542,2.4154851,15.971061
81619456264372,0.051324848,3.7578423,13.183067
81619476120963,1.5115491,3.6131244,9.318858
81619495974788,2.2199643,2.3478832,9.215144
81619515828613,1.6474875,-2.7495596,11.620478
81619535682438,-0.77911055,-9.512468,12.548326
81619555536263,-0.69047964,-6.7740865,19.155596
81619575386576,-2.438575,-3.5684052,11.477528
81619595240273,-2.1191812,-4.866968,5.2319155
81619615094098,-2.3715682,-3.7250812,5.014111
81619634947795,-2.4034815,-3.8323588,6.1084967
81619654801492,-4.1167603,-8.451584,7.473194
81619674654999,-4.551964,-7.9902945,8.314545
81619694508696,-1.2762432,-3.4008465,9.402939
81619714362502,4.7164474,8.423225,14.650259
81619734216199,0.82387644,0.22826357,9.613466
81619754070024,-2.5948646,-5.307234,4.932377
81619773927879,0.114317626,-2.3140078,6.9851027
81619793781701,-1.2364175,-0.20479369,8.755631
81619813635525,-2.6359732,-0.45181447,9.470412
81619833486800,-2.790911,-0.2469413,9.476101
81619853340624,-1.46143,-0.710437,9.2002
81619873194500,-0.25799927,-0.8715447,9.060436
81619893048324,-0.018267587,-0.31536385,9.506427
81619912902148,-0.9348435,-0.48755535,9.94824
81619932755972,-1.9522295,-0.37248692,10.282354
81619952609668,-2.0092647,0.9208556,11.023842
81619972467387,-2.320194,1.8349751,11.594833
81619992321339,-2.7708657,1.2215593,11.325323
81620012175291,-3.1278143,0.5225171,11.020448
81620032029243,-3.3812368,0.6535565,10.913634
81620051883195,-4.019231,0.5538507,10.879307
81620071741499,-4.447665,-1.1671473,12.497938
81620091595579,-3.676473,-2.0611541,14.264898
81620111449531,-0.57576466,-0.12434333,12.078061
81620131303483,-0.21572115,0.2749258,10.134695
81620151157435,-2.911534,-2.783282,11.952242
81620171011076,-6.3545847,-7.009311,12.276637
81620190865157,-5.879312,-6.3632627,12.761677
81620210719236,-4.597556,-5.9292655,12.056153
81620230573188,-5.670842,-4.484104,9.835379
81620250427268,-4.8221684,0.9037717,9.601434
81620270287857,-2.1915233,-3.0239744,8.349114
81620290141937,1.0651251,-8.273539,5.7347307
81620309996145,3.0807204,9.0192375,4.817337
81620329850354,3.4070978,5.711903,5.423222
81620349704435,0.31701243,3.43058,7.100359
81620369560246,-3.233888,1.7176217,7.4253535
81620389414455,-4.5230546,0.40436673,6.761178
81620409268664,-3.5261772,0.23791105,6.9048157
81620429123001,-2.0596726,0.0960747,7.5583057
81620448977210,-1.904335,0.59300256,7.7654552
81620468817295,-1.5052116,0.43144768,7.941103
81620488671120,-0.3415951,-0.7639441,8.070721
81620508525073,0.30333441,-1.4913985,8.809518
81620528378898,1.4474448,-2.7503417,11.196038
81620548232851,4.54844,-4.858268,14.827416
81620568084440,7.349326,-2.0227952,14.02431
81620587938265,6.6347203,1.5640776,8.4784155
81620607792218,5.879723,1.7723445,7.5352516
81620627646043,4.363076,6.5352154,10.210615
81620647499868,1.7659173,10.270964,14.522697
81620667351889,-3.2594795,-1.9310881,19.993011
81620687205714,-3.4952302,-8.043455,8.874626
81620707059539,-0.04024097,9.039841,1.8428475
81620726913364,-0.13267957,7.2001743,5.919177
81620746767169,3.6374545,12.255299,10.268388
81620766616574,3.8901968,7.236682,11.3896475
81620786470270,-0.5883819,-1.3765724,11.882117
81620806323966,0.06159147,-3.4442294,11.281169
81620826177790,0.82517576,1.4441,7.259246
81620846031486,0.33615547,2.6824079,6.939411
81620865881173,0.41316783,1.79061,8.85512
81620885734869,0.7030346,0.09396881,10.001902
81620905588565,1.3115165,-0.4151539,9.185335
81620925442261,0.25210056,1.7709287,8.7528515
81620945295957,-0.5852516,2.693615,9.27945
81620965145609,-0.26579112,2.1521344,9.074999
81620984999177,0.5049638,1.1931973,9.475039
81621004852745,0.9151715,-0.07582134,9.94162
81621024706313,0.60092425,0.096499406,9.616238
81621044559881,0.073786385,1.7804724,9.10789
81621064415619,0.63585323,0.75349283,9.474411
81621084269187,0.7259612,1.2238059,10.117099
81621104122755,1.792864,1.9016793,11.721401
81621123976323,2.4946215,1.6900194,12.064515
81621143830020,2.9092813,1.6739703,11.663397
81621163682809,3.276404,2.7195916,11.919091
81621183536375,3.1893513,4.174513,12.283284
81621203389815,3.3737838,3.1900754,13.119013
81621223243383,3.1806228,3.2051015,12.517831
81621243096951,1.5184755,3.4170785,9.944052
81621262952731,-0.617491,0.9018048,9.375571
81621282806299,-1.2239845,-1.3419441,10.233835
81621302659867,-1.7367774,-0.15112065,11.894481
81621322513307,-2.2237825,0.98247474,11.179775
81621342366875,-1.8332424,-0.032098975,11.600186
81621362216320,-0.7057458,-0.7235199,12.708025
81621382069760,-2.0371542,-0.3162376,11.587063
81621401923200,-3.781698,-0.2839897,10.961207
81621421776640,-2.374904,-0.43443382,10.586227
81621441630080,-0.86952144,0.6050548,9.566626
81621461489054,-1.0801169,2.3899672,7.494718
81621481342494,-2.7834966,1.9128639,6.6986394
81621501196062,-2.3489044,1.2474389,6.181455
81621521049630,-1.622537,0.5414216,6.3142977
81621540903070,-2.0136347,-0.41584656,6.8938174
81621560761781,-1.6680481,-0.8499288,6.5650253
81621580615349,-2.187978,-2.430029,6.354937
81621600468917,-1.2503316,-3.498784,6.7070556
81621620322613,-0.47818208,-2.7866042,7.6603084
81621640176181,-0.309765,-1.7993977,9.016311
81621660035399,-0.24033989,-1.1434026,9.532114
81621679889223,-0.65791035,-0.060958523,8.716465
81621699743047,-0.5195673,0.45051935,8.3265705
81621719596743,-0.3781844,1.7057021,8.766286
81621739450567,-0.1420125,2.6696637,9.63734
81621759305610,1.5567079,2.274652,10.390698
81621779159434,3.490947,0.8792985,10.384946
81621799013258,3.486787,-0.13885541,9.96836
81621818866954,1.5609351,-1.1175408,10.226829
81621838720778,0.6023704,-1.54031,11.315349
81621858583655,-1.4693121,-0.50695205,12.239272
81621878437735,-3.8220303,0.8146188,12.981828
81621898291687,-3.7853894,-0.36618587,12.228676
81621918145639,-2.343973,-0.7396467,9.450327
81621937999719,-1.8496026,0.81892854,8.218536
81621957853927,-1.471689,1.1845827,9.268267
81621977708007,-1.2018067,0.4154676,11.80685
81621997562215,-1.8820325,2.1423218,12.026549
81622017416295,-1.5370086,2.916135,11.650388
81622037270375,0.43800715,0.27222884,11.127552
81622057124449,0.4249437,-0.3691201,10.001015
81622076978529,-0.867242,1.0524585,8.739468
81622096832609,-1.3422619,0.30555424,9.263398
81622116686689,-1.2705404,0.5366661,9.574216
81622136540769,-1.4928358,1.6823112,8.898895
81622156394849,-1.425686,1.1464275,9.094796
81622176251801,-0.8615057,0.07836459,9.848764
81622196106009,-0.31781092,-0.34012842,10.141774
81622215960089,0.073324785,-0.6080247,10.283029
81622235814169,0.5131102,-0.61612725,10.198635
81622255668377,0.61027503,0.15193272,10.017719
81622275512654,0.4913718,0.38075137,9.951413
81622295366606,0.09139906,0.6469799,10.063947
81622315220558,-0.26214665,0.8107228,10.09166
81622335074510,-0.4010433,0.7380761,9.804193
81622354928462,-0.35035905,0.67123634,9.894903
81622374789301,0.05723985,0.78598756,10.00037
81622394643381,-0.09994632,0.3078163,10.245717
81622414497461,-0.27954674,0.17832702,10.127532
81622434351541,-0.20467255,0.7149754,9.898773
81622454205621,-0.5318253,0.76869947,9.853347
81622474035965,-0.9278648,0.12368048,9.959813
81622493889533,-0.856653,-0.25323936,9.698679
81622513743229,-0.53739333,0.13142549,9.611269
81622533596797,-0.15066858,0.37755436,10.009532
81622553450365,0.15477946,0.79901767,10.044675
81622573301214,0.33805206,0.8128518,9.95994
81622593154782,0.12253234,0.18149944,9.77461
81622613008350,-0.24474221,-0.4483027,9.756214
81622632861790,-0.32162184,-0.2606268,9.933504
81622652715358,-0.2552316,-0.16924396,10.14009
81622672568282,-0.09741563,-0.46842477,10.313604
81622692421850,-0.13619459,-0.6007112,10.415343
81622712275290,-0.1033614,-0.6765498,10.495088
81622732128730,-0.05741779,-0.5869754,10.256936
81622751982298,-0.17909779,-0.26314637,9.941909
81622771832751,-0.007097706,-0.046573184,9.831538
81622791686191,0.1820412,0.35443577,9.784117
81622811539631,0.008818668,0.36183047,9.794613
81622831392943,-0.22020014,0.13526982,9.809217
81622851246383,-0.26692972,0.12300316,9.860027
81622871104746,-0.23401213,-0.013015824,9.873341
81622890958186,-0.2156768,-0.18598413,9.876855
81622910811754,-0.15687257,-0.14289153,9.932274
81622930665194,-0.04914978,-0.12326351,9.973317
81622950518762,0.013373371,-0.21696728,10.034445
81622970369250,0.078274176,-0.14444649,10.052683
81622990222562,0.08954957,-0.07466984,10.034768
81623010076002,0.08405564,-0.050257605,9.968381
81623029929314,0.07465808,-0.0764799,9.933982
81623049782754,0.06269089,-0.12136593,9.895092
81623069641295,0.012397773,-0.16209917,9.838619
81623089494735,0.0021551242,-0.18272027,9.900309
81623109348175,-0.037049964,-0.11530764,9.925168
81623129201615,-0.07196246,-0.076561406,10.045458
81623149055183,-0.101008594,-0.10829156,10.075127
81623168914681,-0.08354463,-0.16788271,9.956926
81623188768249,-0.04550276,-0.04346261,9.772465
81623208621817,-0.062131736,-0.025938923,9.725643
81623228475385,-0.072684176,-0.13340154,9.829918
81623248328953,-0.038312394,-0.19828953,9.9304695
81623268190230,0.0021240471,-0.16886711,9.975465
81623288043926,0.053495754,-0.11174324,10.035391
81623307897622,-0.019098394,-0.08013225,9.973989
81623327751446,0.10664636,-0.05623842,9.980019
81623347605142,0.14123213,-0.06056794,9.932782
81623367458051,-0.0045677084,-0.15311989,9.88556
81623387311747,0.036174316,-0.13585941,9.879114
81623407165571,0.09830095,-0.15559344,9.915988
81623427019267,0.13536847,-0.16255876,9.967213
81623446872963,0.16856503,-0.10216378,9.92472
81623466736233,0.19210994,-0.083437614,9.965223
81623486590185,0.11981263,-0.1238717,9.938002
81623506444137,0.089977495,-0.15018679,9.9018545
81623526298090,0.12471167,-0.011700127,9.90293
81623546152043,0.10631272,-0.0648339,9.941384
81623566009024,0.19800615,-0.1263443,9.950731
81623585862977,0.27182254,-0.08391652,9.956718
81623605717056,0.27816752,0.033846457,9.961262
81623625571008,0.22345673,0.07262824,9.9584675
81623645425088,0.24564485,0.029899316,9.915922
81623665282815,0.18315536,-0.045067836,9.921945
81623685137023,0.13956463,-0.039519936,9.951972
81623704991103,0.14800088,0.020548956,9.920464
81623724845311,0.095648654,-0.029130207,9.928811
81623744699391,0.07867878,0.046904955,9.842936
81623764561826,0.06377808,0.09994831,9.818031
81623784416290,0.07675854,0.038165104,9.826293
81623804270626,0.08165575,0.044853393,9.856243
81623824125090,-0.014775022,0.092586525,9.800871
81623843979554,-0.066696696,0.016824083,9.775189
81623863833707,-0.07176916,0.03509289,9.740356
81623883688043,-0.09537186,0.08800585,9.751505
81623903542379,-0.13559617,0.07544283,9.871574
81623923396843,-0.14974317,-0.028920785,9.889071
81623943251179,-0.0851436,0.11012133,9.891956
81623963110872,-0.16894376,0.05926096,9.826477
81623982965464,-0.13719717,-0.019643301,9.856059
81624002820184,-0.03565723,0.055853,9.845537
81624022674776,-0.05683305,-0.012417361,9.753905
81624042529496,-0.11965652,-0.0046556215,9.677406
81624062378302,-0.105363995,0.044793673,9.736626
81624082232766,-0.07157299,8.014428E-4,9.952734
81624102087230,0.015586415,-0.008879928,10.000941
81624121941566,-0.033956386,0.032470062,9.91626
81624141796030,-0.13778341,0.015165558,9.795889
81624161640826,-0.13795835,0.06671585,9.774441
81624181495163,-0.14971665,-0.07215911,9.76782
81624201349372,-0.07294595,-0.08707763,9.756402
81624221203578,-0.06577557,-0.03623804,9.721929
81624241057786,-0.037217848,0.04650773,9.87182
81624260911663,-0.029383363,0.036024515,9.943478
81624280765871,0.020962235,-0.016993662,9.83907
81624300620079,0.09738334,0.07079992,9.752354
81624320474287,0.04384528,-0.09410036,9.777147
81624340328496,0.11647972,-0.01810795,9.833137
81624360180119,0.14087032,-0.11828859,9.757564
81624380034328,0.17346427,-0.06485351,9.729734
81624399888409,0.10812976,-0.041192137,9.807682
81624419742614,0.14349243,0.007699129,9.933017
81624439596694,0.07336776,-0.025911339,9.909204
81624459445373,0.05153237,-0.079390414,9.820542
81624479299325,0.0030179746,-0.004300773,9.765643
81624499153405,0.034166384,-0.10798343,9.78027
81624519007485,0.18439661,-0.007943252,9.758101
81624538861565,0.21303894,-1.6084449E-4,9.7710705
81624558714016,0.15264991,-0.021691987,9.778749
81624578567968,0.12575409,-0.0304011,9.889164
81624598421920,0.09955327,-0.08662123,9.947462
81624618276000,0.13096654,-0.13049382,9.928679
81624638129952,0.12802199,-0.07151389,9.793416
81624657969805,0.13196775,-0.08322245,9.774996
81624677823501,0.09269321,-0.06328229,9.750869
81624697677197,0.044931315,-0.103124075,9.793704
81624717530893,0.050427943,-0.04742621,9.826016
81624737384589,0.12230459,-0.05288982,9.820422
81624757238497,0.09623293,0.02169,9.78635
81624777092193,0.03542204,0.0027129862,9.794314
81624796945889,0.03858161,-0.0242403,9.909328
81624816799585,0.05422488,-0.07503091,9.862554
81624836653153,0.064521275,-0.09072726,9.727521
81624856505154,0.016665211,-0.03550155,9.745129
81624876358850,0.105336815,-0.04127688,9.828006
81624896212418,0.13676289,0.07622303,9.81641
81624916066114,0.100083664,0.03743415,9.783722
81624935919682,0.05915306,0.065967426,9.810836
81624955770799,0.09596959,0.054029424,9.889546
81624975624367,0.0980454,-0.0025596402,9.847535
81624995477807,0.08221123,-0.038004372,9.745477
81625015331375,0.08543724,0.08744058,9.6755085
81625035184815,0.056691244,0.07005489,9.743275
81625055042969,0.09866174,0.049097214,9.933134
81625074896537,0.13704276,0.0053087994,9.934449
81625094750233,0.09060341,-0.0531272,9.778115
81625114603801,0.03183939,0.07035505,9.800429
81625134457369,0.03678211,0.031745814,9.830369
81625154314137,0.12447715,0.047307413,9.814426
81625174167833,0.12089439,-0.03482556,9.795397
81625194021401,0.14571519,-0.009421522,9.777483
81625213875097,0.0039408603,0.09332028,9.874445
81625233728793,-0.024856832,-0.024092916,9.909058
81625253587851,-0.025801267,-0.056180608,9.819754
81625273441675,-0.079264544,-0.17887937,9.779894
81625293295371,-0.053224396,-0.09381176,9.730324
81625313149067,-0.034010775,-0.004922476,9.853027
81625333002763,-0.052018195,0.00945999,9.843252
81625352856312,0.004630544,-0.0026300768,9.839593
81625372710008,0.058995437,-0.008135121,9.843696
81625392563704,0.077266574,0.08872972,9.842046
81625412417529,-0.009887818,0.16622327,9.754605
81625432271226,0.009544564,0.07082135,9.698313
81625452130181,-0.017294917,0.027647361,9.742956
81625471984134,0.0651061,0.0015349373,9.739233
81625491837959,0.04522456,0.013513984,9.771372
81625511691784,-0.0023384108,0.041522972,9.844129
81625531545737,0.042623308,0.06970678,10.028314
81625551403132,0.11698591,0.007167891,9.908082
81625571257085,0.096599594,0.06311874,9.851771
81625591111038,-0.020776508,-0.02499754,9.771669
81625610964991,0.0894175,-0.08492315,9.725101
81625630818944,0.08173057,-0.0143365795,9.676188
81625650672897,0.0946897,-0.041883796,9.737128
81625670526722,0.09809886,0.033946473,9.801462
81625690380803,0.16904141,0.07438085,9.950927
81625710234884,0.20086783,0.012377672,9.968559
81625730088837,0.23515388,0.036889948,9.893
81625749942918,0.21290013,0.089577764,9.790524
81625769791436,0.21258435,0.09995191,9.766038
81625789645260,0.15583915,0.13163307,9.647523
81625809499212,0.17061253,0.0859957,9.581462
81625829353036,0.18284383,0.03853819,9.691826
81625849206988,0.20363785,0.076925114,9.871201
81625869013497,0.23541695,0.08229778,9.971887
81625888866553,0.16428153,0.06259472,9.923051
81625908719481,0.10526206,0.0059719305,9.871719
81625928572409,0.10919365,0.022347137,9.751485
81625948425465,0.17929089,0.013481262,9.700495
81625968291612,0.16063415,0.06193488,9.662657
81625988144796,0.16987489,0.025404233,9.666658
81626007998108,0.074896224,0.11425721,9.860155
81626027851292,0.12667878,0.07668522,10.003095
81626047704476,0.13155814,0.12813674,9.974207
81626067570051,0.10356746,0.052926254,9.83102
81626087423363,0.11717392,0.036696754,9.743249
81626107276803,0.065556675,-0.07489356,9.673329
81626127130243,0.12431732,-0.052466802,9.73343
81626146983555,0.08202048,-0.040116224,9.673559
81626166844838,0.112373084,-0.06145458,9.79434
81626186698407,0.014190739,0.009579847,9.9876375
81626206552104,0.12708098,-0.02595159,10.035127
81626226405670,0.03638778,0.018839339,9.898006
81626246259238,0.05235583,-0.096442364,9.843044
81626266109861,0.067749366,-0.029114863,9.748374
81626285963301,0.07329105,-0.056027815,9.54719
81626305816741,-0.014381272,-0.069696754,9.551812
81626325670053,0.046680868,-0.063640825,9.708079
81626345523493,0.12499637,0.0817635,9.901835
81626365380450,0.14865401,0.11517614,9.957552
81626385233891,0.13148841,0.15521647,9.947077
81626405087332,0.09728772,0.12962173,9.861493
81626424940901,0.15147208,0.14361784,9.861795
81626444793452,0.15241413,0.09709592,9.739942
81626464646893,0.1974942,0.08363052,9.683058
81626484500334,0.039974786,0.16650523,9.697227
81626504353775,0.09055959,0.12978846,9.845231
81626524207216,0.033582233,0.114898995,9.798459
81626544068049,0.0668537,0.034427155,9.856884
81626563921618,0.018285358,0.07431391,9.90384
81626583775059,0.07787702,0.008974746,9.818199
81626603628628,-0.028086064,0.07896224,9.764345
81626623482197,0.10902819,-0.011425614,9.789935
81626643335766,0.048706252,0.031969905,9.788529
81626663192985,0.05752373,-0.028637871,9.79978
81626683046682,0.01434559,0.050826777,9.837506
81626702900251,0.043012127,0.03236407,9.804293
81626722753948,0.008903169,0.06568968,9.840263
81626742614977,0.06363916,0.0052934103,9.789133
81626762468802,0.06919427,0.015839031,9.766131
81626782322607,0.045171957,0.043119136,9.758268
81626802176431,0.07285978,0.080242224,9.862338
81626822030256,0.02696854,0.13342135,9.871561
81626841884079,0.05678706,0.018047819,9.855334
81626861742352,0.06811407,0.030408537,9.826816
81626881596305,0.056562055,0.07886191,9.793852
81626901450384,0.0509326,0.102194875,9.823855
81626921304336,0.07191274,0.10234898,9.7661495
81626941158289,0.082295254,0.09341909,9.701737
81626961017726,0.041240033,0.09792732,9.723072
81626980871806,-0.0068342057,0.11554386,9.857272
81627000726015,0.0060769324,0.067393705,9.927743
81627020580094,0.062928274,0.002489213,9.965361
81627040443506,0.10138541,0.012454023,9.830706
81627060297971,-0.053335708,-0.0032337096,9.750812
81627080152306,-0.04576512,-0.075625926,9.778076
81627100006770,0.020362686,0.0031703645,9.782159
81627119861107,0.07564722,-0.06598384,9.676495
81627139715570,0.046519898,0.02537687,9.837653
81627159576514,-0.052089438,-0.02462514,9.981343
81627179431107,0.029803194,0.044407684,9.961878
81627199285826,0.016830344,-0.063070394,9.834381
81627219140418,0.08162504,-0.05472969,9.788225
81627238995011,-0.021942753,0.0020685452,9.724829
81627258853611,-0.0027523125,-0.04360234,9.661606
81627278708459,-0.0023771871,0.016884435,9.780382
81627298563308,0.038346145,-0.009070464,9.768301
81627318418155,0.027185513,0.1020957,9.955808
81627338271186,0.0088448925,0.088189304,9.942123
81627358126163,0.047349755,0.17573476,9.86694
81627377981012,0.017992433,0.08054053,9.795531
81627397835861,0.065181,0.034448124,9.757331
81627417690838,0.012988708,0.028882068,9.710537
81627437545687,0.03931532,0.07679461,9.725491
81627457377368,0.012565471,0.059571978,9.758722
81627477231449,0.056716274,0.06722155,9.863639
81627497085402,0.071748644,0.07757433,9.948246
81627516939483,0.06329087,0.07768366,9.939769
81627536793436,3.593866E-4,0.04964127,9.835057
81627556650033,0.08263029,0.03390014,9.734501
81627576504114,0.03270944,0.015259332,9.630463
81627596358195,0.023409229,-0.0025111847,9.640866
81627616212404,0.038347937,0.048837796,9.793761
81627636071001,0.1514081,0.13148081,9.905325
81627655925210,0.10990699,0.1285018,9.948047
81627675779547,0.06350938,0.11512449,9.9068775
81627695633756,0.04555362,0.10961472,9.896301
81627715488093,0.119665205,0.019036183,9.746078
81627735342302,0.15221304,-0.016632264,9.683371
81627755196803,0.09256365,-0.010895335,9.654092
81627775051140,0.055257294,0.042852696,9.709061
81627794905475,0.04685402,0.026235528,9.910364
81627814759811,0.14904203,0.03622598,9.971783
81627834614020,0.13643852,0.086339794,9.943497
81627854461852,0.09732912,0.052298084,9.934866
81627874316060,0.03936094,0.061115734,9.843999
81627894170269,0.07879197,0.0040824614,9.682412
81627914024476,0.1560729,0.003970377,9.643068
81627933870591,0.06946883,-0.010098703,9.668512
81627953724672,-0.0012681212,0.0018714305,9.864563
81627973578751,0.08062529,0.09174249,9.981443
81627993432703,0.14683113,0.10361287,9.991979
81628013286784,0.19755219,0.09748711,9.800511
81628033140863,0.06501639,0.1531419,9.720563
81628052997985,0.028102355,0.05146319,9.709047
81628072852066,0.110481925,0.034950692,9.725532
81628092706145,0.17927098,0.013974243,9.749601
81628112560097,0.1416059,0.11595088,9.800883
81628132414178,0.055329826,0.16098776,9.947797
81628152263503,0.10574559,0.116687,9.950596
81628172117456,0.15120536,0.08773851,9.869496
81628191971409,0.11108179,0.06894972,9.783549
81628211825362,0.06372275,0.07873607,9.759805
81628231679439,0.04824696,0.013686906,9.7462015
81628251533392,0.07761364,0.02092653,9.662461
81628271390153,0.098774984,0.014794509,9.744411
81628291244233,0.07671699,0.079119116,9.831753
81628311098186,0.09193286,0.093540475,9.925354
81628330952137,0.06293304,0.10324528,9.937265
81628350808843,0.05515623,0.07781001,9.873656
81628370662924,0.063035876,0.061104137,9.76151
81628390516877,0.08711426,-0.0036853303,9.705849
81628410370958,0.08748615,-0.03481835,9.697213
81628430225039,0.103321105,0.036815707,9.741874
81628450074844,0.061965764,0.1297833,9.851968
81628469928797,0.027497662,0.08755754,9.943608
81628489782750,0.0317461,0.089611754,9.877926
81628509636703,0.11135672,0.050693836,9.844305
81628529490528,0.15834561,0.0239137,9.8239765
81628549344481,0.08549088,-0.006221338,9.674399
81628569196008,0.058571383,-0.018518303,9.681705
81628589049961,0.09852564,0.044889487,9.815523
81628608903786,0.18105254,0.07377899,9.864382
81628628757739,0.1264529,0.103310816,9.825969
81628648603500,0.06140563,0.059347574,9.851476
81628668457197,0.086642355,0.03822549,9.873581
81628688310894,0.16745926,0.05769726,9.815493
81628708164719,0.1620481,0.06829791,9.749801
81628728018416,0.10050592,0.08865567,9.726894
81628747870703,0.064903885,0.083386384,9.798832
81628767724399,0.06487849,0.073340796,9.845672
81628787578096,0.10024931,0.058921225,9.81747
81628807431791,0.08134961,0.032845736,9.779448
81628827285487,0.050538227,0.061067645,9.851679
81628847139184,0.023268744,0.07330849,9.841734
81628866987613,0.08358147,0.038951825,9.739497
81628886841181,0.089678995,0.01811574,9.683544
81628906694750,0.08769199,-1.6015793E-4,9.779437
81628926548445,0.053839263,0.044851024,9.926118
81628946396235,0.039577875,0.08343144,9.988274
81628966249676,0.056436315,-0.019422745,9.829908
81628986103115,0.02658496,-0.030189585,9.736423
81629005956555,0.031111725,-0.074183695,9.8018265
81629025809996,0.0774547,0.0011280247,9.743418
