UPTIMENANO,Ax,Ay,Az
351501660734907,0.34684697,0.9737415,8.205878
351501680589755,0.03276638,1.3108895,9.190218
351501700444604,-0.5656103,0.44352207,9.898872
351501720299451,-0.5509773,-1.3292013,9.954056
351501740165063,-0.1365433,-1.8059808,10.000269
351501760020168,-0.5479725,-1.8874817,10.07322
351501779875271,-0.6615599,-1.0552309,10.816527
351501799730375,-0.46255422,-0.8094664,10.575083
351501819585480,-0.30557653,-0.78625154,10.206809
351501839440583,-0.36090237,-0.7487971,10.576688
351501859300100,-0.20168607,-0.6549789,9.895297
351501879155205,-0.073136576,0.49636275,9.346266
351501899010436,-0.07919282,0.5255105,9.778256
351501918865668,-0.33494762,-0.06208163,10.690235
351501938720901,-0.25165477,-0.080152504,10.109905
351501958582087,0.3337135,-0.3114055,9.681952
351501978437447,0.00867567,-0.46261403,9.894798
351501998292680,-0.13201752,-0.53004134,8.871226
351502018151360,0.042463396,1.4790092,9.474596
351502038017295,-0.6664442,0.73504853,10.011004
351502057872912,-0.011688786,-1.1932534,9.390255
351502077728399,0.89011276,-1.5765779,8.941353
351502097584015,-0.43866536,-0.3974852,9.736876
351502117439504,-1.1703284,0.39852327,10.292951
351502137295119,-1.1059569,-0.400986,10.40967
351502157156769,0.0878548,-1.0744547,9.267863
351502177012514,0.8243756,-0.760552,9.322184
351502196868257,-0.55021936,-0.4605245,9.517867
351502216724001,0.63961476,-1.114604,8.5148325
351502236579746,-0.12855296,-1.9415587,9.573782
351502256438566,-1.2724814,-0.91418433,9.905778
351502276294310,1.2244902,0.8274346,10.000197
351502296150183,0.61876553,1.1625139,10.433489
351502316006054,0.36560225,-0.6923432,9.291923
351502335861926,0.8331044,-1.8868848,8.98429
351502355717799,-1.0172173,-0.9511931,10.290719
351502375572658,-3.1976855,0.39586216,11.450345
351502395428658,-0.535717,-0.95441914,9.826275
351502415284531,2.1300952,-0.76334083,8.943588
351502435140530,0.103503644,0.31674117,11.211293
351502455007696,-1.122247,-0.53818053,11.92335
351502474863953,-1.2498403,-0.45244458,10.525459
351502494720208,-1.0525179,0.20424283,9.567223
351502514576592,-1.2736005,0.42450804,9.996806
351502534432849,-0.7449695,0.6924717,10.131232
351502554288208,-0.038168907,-0.50653166,9.515475
351502574144464,-0.81376934,0.46790048,10.569689
351502594000849,-0.19171412,0.4389102,9.680468
351502613857232,1.868164,-0.96215975,7.606814
351502633713488,3.462267,-3.5058548,4.586305
351502653569873,1.3890688,-3.1959941,3.95494
351502673426341,0.63439834,-3.4688234,3.9192464
351502693282725,-0.72795045,-3.9262948,4.943979
351502713139110,-2.4397912,-5.2097864,7.2486405
351502732995493,-3.494433,-3.3149588,10.25381
351502752856116,-4.0559535,-0.723653,10.708703
351502772712629,-3.6601713,0.58640045,9.93069
351502792569268,-1.4728501,-0.6770067,10.4087925
351502812425908,-0.98004967,-1.7798799,10.28282
351502832282421,-0.51507735,-1.4980304,10.393879
351502852117747,0.11264058,-0.5742798,5.675052
351502871973491,4.9864507,11.21955,-2.331478
351502891829236,-0.62095237,4.42861,14.615411
351502911684979,-2.3696437,-3.6086748,14.741679
351502931540851,-2.9874647,-5.104903,8.167706
351502951396596,-8.819586,-7.8121586,10.627364
351502971251693,-9.298401,-2.8502662,10.667811
351502991107437,-3.7931223,3.8693879,10.85137
351503010963310,1.1875068,3.1879177,13.9450655
351503030819053,1.708928,2.4759274,16.579605
351503050673412,5.9461246,6.6916633,17.948296
351503070529029,2.479626,2.9549775,16.715149
351503090384772,-3.064509,2.3043559,7.3797984
351503110240516,-3.2282853,0.5505812,-5.30683
351503130096261,-8.181007,-3.7384079,-9.183305
351503149952004,-2.0585241,-0.22769108,21.712803
351503169799100,0.024076797,-2.934949,15.070632
351503189654717,-0.7998628,-3.7773902,4.356135
351503209510332,1.6876688,-0.5889058,6.677204
351503229365820,-1.6978365,-2.6499083,9.509047
351503249221437,-2.4605212,-3.774306,7.264426
351503269072895,-3.561083,-2.3946028,8.574733
351503288928383,-5.342488,-1.2916429,10.735854
351503308783872,-2.0546548,-2.7234435,6.5601873
351503328639359,-0.5507059,-4.2179255,9.155598
351503348495144,-1.8701549,-2.75665,11.584648
351503368350633,-3.5605173,-2.36123,11.932098
351503388206120,-1.7083123,2.0276997,11.887165
351503408061736,-1.5596404,2.073999,11.708563
351503427917225,-1.8800182,-2.4516664,13.140055
351503447772712,1.6412547,-2.5983772,15.149908
351503467631156,1.6054024,-0.19769642,15.871784
351503487486645,3.9404697,2.3647509,16.44912
351503507342132,4.854335,4.8183928,18.154566
351503527197748,6.0154495,1.2962391,12.702064
351503547053237,3.0135965,-4.3771625,8.55408
351503566907438,4.5787487,0.2183578,10.91956
351503586762926,6.9080667,-2.021599,10.712576
351503606618415,6.103688,-1.0539917,8.70768
351503626473902,2.6512282,2.0839913,6.8948236
351503646329676,0.9221235,3.8622181,7.4135857
351503666185165,1.4854498,1.8833245,5.1492395
351503686040652,1.6502457,2.437086,4.9669356
351503705896268,0.563136,1.8214694,5.866871
351503725751757,2.7641466,2.2156832,5.5627494
351503745607244,3.2716036,2.2333825,6.390343
351503765460032,3.7056723,2.811625,6.6831713
351503785315521,2.5367324,4.316271,9.160042
351503805171008,0.2880063,3.6553128,7.1946416
351503825026496,0.22002162,1.6929104,8.900417
351503844881985,2.02425,1.6929787,15.376005
351503864742181,0.6117244,0.6630146,16.602264
351503884597797,-4.5484576,-1.0294029,11.592042
351503904453286,-3.1907842,-4.664876,9.689782
351503924308901,2.4796274,-5.7011003,9.752339
351503944166541,0.6141423,-5.5549808,12.395237
351503964022030,-5.77941,-5.55943,16.499302
351503983877517,-3.5290496,-4.4908905,14.961405
351504003733005,1.9888154,-4.397595,10.646037
351504023588494,1.7135164,-0.42179668,11.31205
351504043449184,-1.8843526,-0.122227274,13.815624
351504063303618,-0.71766204,-6.982774,5.8417983
351504083159107,-0.4380884,1.8079345,2.280332
351504103014594,3.2030685,2.5853288,-1.8832734
351504122870210,1.775211,3.500849,-1.3835616
351504142725699,-1.2865474,2.91622,2.2989554
351504162581503,0.18228027,2.3382852,5.5648313
351504182436991,0.14281227,1.790414,7.024171
351504202292480,-1.968499,-0.44786364,7.6398664
351504222147967,-1.5613425,-2.0433133,9.349276
351504242003455,1.7723414,0.30526164,12.026208
351504261859072,0.8689381,2.178784,14.915831
351504281713718,-0.66405827,0.9023712,15.661078
351504301569334,-0.98200375,1.0215714,12.188165
351504321424823,0.64358276,0.057115175,8.008478
351504341280310,0.3339535,-0.49891162,7.6543612
351504361143344,-0.86076826,-1.1134733,7.9694877
351504380999089,-1.0402222,-0.77417314,7.852925
351504400854704,0.242508,-0.633274,7.377294
351504420710448,-0.4394316,-0.11330035,8.959183
351504440566193,-0.8346952,-0.44688717,10.459403
351504460427044,-0.39766297,-0.7715151,10.9192295
351504480282916,-0.27658242,-0.55012584,11.999504
351504500138789,1.1090792,-1.0817833,11.472864
351504519994660,0.5974044,-0.444464,11.33878
351504539850532,0.84208935,-0.70837724,10.720732
351504559706277,0.19180803,-0.873756,9.741657
351504579564647,-0.54457736,0.036949284,9.109782
351504599420519,-0.7604191,1.2826915,8.811384
351504619276520,-0.20616749,1.4129484,7.6571627
351504639132391,0.7604031,-1.6541448,6.3687677
351504658996856,-0.48945257,-1.5358279,7.8432074
351504678852985,-1.1816527,-1.41595,9.449564
351504698709112,-0.6738622,-0.028055007,9.458295
351504718565240,0.34170848,0.22774868,9.462892
351504738421369,0.3922189,-1.1415755,7.69053
351504758275566,-1.0193471,-1.0198439,7.6162252
351504778131566,-0.68227154,-0.18922873,8.441886
351504797987695,0.13216294,0.15576737,7.825173
351504817843694,0.18863569,-0.9022479,8.601719
351504837699822,-0.48886043,-2.000529,11.3559675
351504857555823,-1.80523,3.1313345,8.8084955
351504877408250,0.3027483,5.1185517,14.492814
351504897264250,2.1494553,0.44331804,21.294428
351504917120251,1.7369727,-3.9238646,12.424684
351504936976250,1.3686866,0.08520599,8.921648
351504956825812,-0.4214319,-2.0406866,10.47199
351504976681685,1.5124645,-0.4987656,9.218893
351504996537556,2.150247,0.5475205,4.317332
351505016393428,1.1462073,-0.08503984,2.9678683
351505036249301,1.3442054,1.141116,4.889312
351505056098115,-2.1058068,2.5181737,10.278927
351505075953859,-3.1436415,3.4477,12.533056
351505095809604,-2.0205371,3.3921561,10.692987
351505115665347,-0.32007894,2.46963,7.3336835
351505135521091,0.0417571,1.4693378,4.339936
351505155376836,-0.66359276,1.6031427,4.9723454
351505175225801,-3.3355129,-0.77428263,8.561289
351505195081417,-6.382296,-4.8928723,11.2412405
351505214937034,-4.538684,-3.709143,11.262936
351505234792649,0.23918267,-2.0231757,12.545363
351505254639334,6.589041,-1.6567985,12.316331
351505274494695,8.969796,-1.6339643,11.060008
351505294350182,3.1020415,1.8958789,8.443972
351505314205542,0.57309043,1.9326665,7.9606004
351505334060903,0.47415048,1.9614506,9.43079
351505353916390,-0.26455438,1.4278411,9.5826025
351505373769551,-0.86415625,0.6418116,9.049631
351505393624784,-0.91806453,0.43314105,9.085418
351505413480143,-1.0467318,0.027949834,8.911192
351505433335375,-1.0163788,-0.88497615,9.107798
351505453190736,-1.2659863,-1.1252289,8.966421
351505473047380,-1.1548191,-0.4062609,8.822472
351505492902740,-0.9820157,0.41589004,9.171016
351505512758101,-0.7884682,0.9975666,9.17994
351505532613460,-0.30708942,1.1489924,9.284379
351505552471032,0.29587573,0.78879184,9.514634
351505572326393,0.4968817,0.24912554,9.255426
351505592181754,0.28405115,-0.111076616,9.111044
351505612037115,0.03554048,-0.16522992,9.218162
351505631892604,-0.93642986,-0.15928814,9.326041
351505651747960,-0.73904246,-0.014781439,9.384403
351505671596902,-0.14970534,0.49107912,9.094712
351505691452135,0.18399729,0.5771164,9.081568
351505711307366,-0.43761587,0.12610605,9.035978
351505731162470,-0.8893959,-0.12450333,9.03904
351505751017703,-0.9003168,-0.012127348,9.103424
351505770870581,-0.6875188,0.010527038,9.1814
351505790725685,-0.5227793,-0.12030486,9.137995
351505810580790,-0.4741264,-0.15383907,9.1296
351505830436021,-0.47180155,0.0012335933,9.332452
351505850292272,-0.5648868,0.21692508,9.529526
351505870147377,-0.6007864,0.26454824,9.435906
351505890002480,-0.45992145,0.21782379,9.308134
351505909857457,-0.23099329,0.25152737,9.303695
351505929712562,-0.08940115,0.13876157,9.291239
351505949567667,0.02560059,-0.010628007,9.372554
351505969432996,0.17372365,0.16898698,9.475839
351505989288229,0.1930652,0.24195205,9.375916
351506009143588,0.053148743,0.04657878,9.258218
351506028999643,-0.09297954,-0.122551195,9.31006
351506048854876,-0.14188127,-0.13589019,9.356629
351506068714221,-0.054873023,-0.05948181,9.369346
351506088569581,-0.056401215,-0.041232314,9.384779
351506108424942,-0.10025976,-0.061939895,9.405228
351506128280173,-0.17115279,-0.060895406,9.397119
351506148135533,-0.25141808,-0.011054939,9.389514
351506167990894,-0.27360898,0.1273815,9.478714
351506187852720,-0.33171213,0.11421282,9.524108
351506207708208,-0.36264616,-0.1054848,9.428937
351506227563697,-0.32637405,-0.1564968,9.394564
351506247419186,-0.2692224,-0.09596516,9.489697
351506267277409,-0.20770921,-0.12569223,9.561679
351506287133026,-0.2383835,-0.0867523,9.572816
351506306988769,-0.283708,-0.04732512,9.5832405
351506326844385,-0.2314135,0.00755521,9.622323
351506346700002,-0.16255417,-0.10705402,9.511648
351506366560127,-0.17304724,-0.13754523,9.481182
351506386415999,-0.2415405,0.029858073,9.514703
351506406271744,-0.20756182,0.0057603335,9.491301
351506426127487,-0.19414909,-0.022818746,9.539493
351506445983360,-0.25842184,-0.09691899,9.654319
351506465839105,-0.36608806,-0.135233,9.631072
351506485705740,-0.45593405,-0.016379233,9.618617
351506505561869,-0.4386148,-0.004040928,9.688326
351506525417870,-0.36280796,-0.11130221,9.659842
351506545273999,-0.32192373,-0.13737021,9.571189
351506565133378,-0.28537193,-0.1171353,9.6116
351506584989635,-0.28345332,-0.11499987,9.724053
351506604845764,-0.30393285,-0.11441506,9.700979
351506624701893,-0.30956846,-0.07888447,9.657909
351506644558022,-0.2353086,-0.075117014,9.715895
351506664413199,-0.17193809,-0.07412191,9.75091
351506684269328,-0.17259756,-0.08097615,9.700857
351506704125457,-0.25185087,-0.046842407,9.672128
351506723981586,-0.2960471,-0.056046475,9.644747
351506743837715,-0.330087,-0.08798717,9.711685
351506763693844,-0.35305464,-0.06386203,9.795325
351506783545348,-0.3455291,-0.052810196,9.770951
351506803401476,-0.33077928,-0.046399307,9.7204895
351506823257477,-0.31729043,-0.0088668745,9.734999
351506843113604,-0.29299167,-0.020658763,9.782346
351506862951895,-0.25688475,0.030906592,9.803535
351506882807512,-0.25018886,0.008527573,9.819932
351506902663255,-0.32491595,-0.07697913,9.8456
351506922518871,-0.3639112,-0.07994469,9.855293
351506942374616,-0.3349129,-0.026214093,9.854514
351506962230231,-0.29845056,-0.009140254,9.825874
351506982086847,-0.3377435,-0.0024341093,9.780055
351507001942592,-0.35209382,-0.024483277,9.763231
351507021798335,-0.25596586,-0.045825843,9.746929
351507041653951,-0.12777813,-0.093149796,9.695124
351507061509696,-0.1381395,-0.084978744,9.722076
351507081360716,-0.19696288,-0.074746184,9.765513
351507101216332,-0.2533344,-0.044992056,9.786861
351507121071949,-0.3002565,0.038945504,9.799956
351507140927564,-0.3119246,0.06003982,9.827341
351507160788399,-0.33007208,0.040697057,9.850565
351507180644144,-0.39709324,0.020108962,9.8246565
351507200499759,-0.3887021,-0.011741247,9.808468
351507220355503,-0.35167658,-0.0073360805,9.801293
351507240211248,-0.33584335,-0.025617395,9.78111
351507260066991,-0.34273368,-0.023097618,9.816211
351507279919962,-0.32239637,0.029678024,9.805682
351507299775579,-0.2945184,-0.017987877,9.774786
351507319631196,-0.30539143,-0.07644212,9.758244
351507339486813,-0.29756966,-0.092107445,9.738413
351507359342302,-0.2644234,-0.10744553,9.760424
351507379194177,-0.27604288,-0.03961461,9.825192
351507399049666,-0.2938371,-0.009696581,9.822019
351507418905155,-0.30831802,-0.007071827,9.8104725
351507438760644,-0.2784541,-0.026701858,9.806808
351507458624467,-0.2720819,-0.03131555,9.81615
351507478479956,-0.3226716,-0.027291473,9.826859
351507498335573,-0.343735,-0.033139613,9.821146
351507518191190,-0.3299187,-0.05200742,9.748358
351507538046807,-0.28971592,-0.047986414,9.786783
351507557902424,-0.23863785,-0.06475778,9.801377
351507577759027,-0.25908294,-0.090516,9.808745
351507597614772,-0.2924971,-0.0015714718,9.809765
351507617470389,-0.24415231,-0.011465165,9.776194
351507637326006,-0.24928802,-0.046671305,9.793013
351507657181751,-0.286519,0.00317792,9.793908
351507677043622,-0.27271295,0.020068552,9.779936
351507696899495,-0.27414685,0.015327612,9.792083
351507716755240,-0.27848393,0.012724131,9.820777
351507736610964,-0.2909309,0.003718776,9.81875
351507756466836,-0.34041953,-0.0046391115,9.777624
351507776322581,-0.35510218,0.004315813,9.788451
351507796174662,-0.27255136,-0.07819279,9.789634
351507816030406,-0.21271023,-0.11579017,9.7951765
351507835886151,-0.24165815,-0.04686136,9.842814
351507855741894,-0.26459166,-0.06699949,9.857057
351507875595779,-0.26593965,-0.06459612,9.83662
351507895451396,-0.25042093,-0.04992008,9.82196
351507915307139,-0.2264113,-0.054187704,9.808118
351507935162755,-0.19946676,-0.09540331,9.768836
351507955018500,-0.24481086,-0.109664544,9.768086
351507974881181,-0.27529052,-0.076129355,9.787688
351507994736924,-0.24711546,-0.08442875,9.786684
351508014592669,-0.26472706,-0.07034992,9.77327
351508034448540,-0.2781739,-0.08366638,9.768318
351508054302651,-0.23013198,-0.11880044,9.807367
351508074158524,-0.21591951,-0.099284925,9.800431
351508094021089,-0.2325006,-0.11354075,9.806612
351508113877089,-0.27359205,-0.11449356,9.806009
351508133733090,-0.30733126,-0.13968939,9.779678
351508153589089,-0.30973446,-0.15108576,9.797997
351508173450362,-0.26596597,-0.16299045,9.807598
351508193306619,-0.20701618,-0.18105587,9.782791
351508213162746,-0.27727056,-0.1126543,9.767157
351508233019003,-0.3122089,-0.0750489,9.819937
351508252875132,-0.31840435,-0.0853186,9.790222
351508272724653,-0.36921972,-0.06671347,9.755392
351508292580782,-0.36253968,-0.07213228,9.796605
351508312436911,-0.28380668,-0.14158656,9.780835
351508332293040,-0.26887506,-0.10409986,9.772488
351508352149169,-0.26158702,-0.080013365,9.768627
351508372005298,-0.27054304,-0.15612967,9.7983465
351508391859713,-0.35996014,-0.093036614,9.788428
351508411715714,-0.35131308,-0.060953982,9.79542
351508431571843,-0.28362697,-0.088162854,9.821792
351508451427972,-0.27706838,-0.10544832,9.827363
351508471283303,-0.29154584,-0.11658882,9.807784
351508491139304,-0.31091473,-0.07507771,9.802882
351508510995305,-0.2805041,-0.06653507,9.784323
351508530851178,-0.27918616,-0.075066365,9.7841
351508550707179,-0.25577202,-0.08826982,9.784554
351508570563180,-0.22350205,-0.10010523,9.785005
351508590417163,-0.19140813,-0.06888193,9.783351
351508610273164,-0.2086109,-0.05809415,9.809272
351508630129037,-0.23793831,-0.07366672,9.820189
351508649985038,-0.2985401,-0.062904455,9.821962
351508669841039,-0.2717368,-0.06030108,9.829373
351508689692545,-0.19756632,-0.068227686,9.828174
351508709548290,-0.22600934,-0.030658513,9.814646
351508729404163,-0.2621254,-0.010964378,9.800683
351508749259908,-0.24294356,-0.019193372,9.760819
351508769111523,-0.24922046,-0.021287225,9.746576
351508788967268,-0.27745813,-0.055775028,9.789462
351508808823011,-0.282814,-0.09839608,9.829611
351508828678755,-0.3048084,-0.0414653,9.821506
351508848534500,-0.2700797,-0.040790204,9.840914
351508868390371,-0.23237532,-0.0718847,9.833458
351508888233340,-0.2506024,-0.07692987,9.775554
351508908088829,-0.2763125,-0.06827948,9.751759
351508927944316,-0.26602295,-0.060374524,9.7737665
351508947799804,-0.21319783,-0.093178876,9.778096
351508967655293,-0.25649664,-0.10306049,9.785723
351508987509593,-0.31377968,-0.06784279,9.849177
351509007365082,-0.29579347,-0.115227155,9.923313
351509027220443,-0.31218237,-0.08493793,9.920651
351509047075804,-0.30358928,-0.021591352,9.864505
351509066927029,-0.28250477,-0.021406418,9.8229885
351509086782390,-0.33280835,-0.05718223,9.742846
351509106637749,-0.35725564,-0.104309976,9.722893
351509126493109,-0.33074477,-0.110161014,9.709294
351509146348470,-0.2730412,-0.09621855,9.73053
351509166203829,-0.21600251,-0.13542402,9.788724
351509186055375,-0.2821075,-0.10090642,9.832745
351509205910608,-0.30919537,-0.078505486,9.809574
351509225765839,-0.30174848,-0.066372804,9.796901
351509245621071,-0.3277742,-0.042249057,9.821194
351509265476304,-0.30931354,-0.08190066,9.843466
351509285326994,-0.28680515,-0.09708779,9.820879
351509305182226,-0.25980148,-0.04753689,9.802706
351509325037331,-0.23012398,-0.07076146,9.775042
351509344892564,-0.21034665,-0.059812687,9.746013
351509364750255,-0.21795318,-0.035868224,9.732472
351509384605360,-0.20218652,-0.05611232,9.745854
351509404460465,-0.24675584,-0.033622652,9.74966
351509424315570,-0.26602554,-0.015060549,9.77001
351509444170675,-0.27944475,-0.010479925,9.801325
351509464025780,-0.28041908,2.7514037E-4,9.821315
351509483888085,-0.28316647,-0.006917239,9.837676
351509503743190,-0.27453288,-0.011487856,9.849737
351509523598423,-0.27360436,-0.020377176,9.834766
351509543453656,-0.2565449,-0.046397254,9.816025
351509563308889,-0.23229967,-0.057961658,9.817116
351509583169576,-0.2195529,-0.07471887,9.792607
351509603024937,-0.22718874,-0.020998053,9.78514
351509622880298,-0.24686691,-0.02172295,9.804657
351509642735659,-0.27832347,-0.048440598,9.80516
351509662590892,-0.32170936,-0.037866686,9.808833
351509682446253,-0.276995,-0.05199828,9.790496
351509702302426,-0.25072744,-0.0986758,9.763517
351509722157915,-0.26368493,-0.062718615,9.791174
351509742013276,-0.2683078,-0.044479396,9.798065
351509761868615,-0.25577125,-0.042036448,9.776701
351509781725664,-0.24520917,-0.0453951,9.791585
351509801581153,-0.25437123,-0.069558814,9.813084
351509821436640,-0.27601326,-0.083182655,9.828112
351509841292128,-0.30523896,-0.07270341,9.825684
351509861147489,-0.273397,-0.075667866,9.838955
351509881004933,-0.25625306,-0.064934805,9.848701
351509900860293,-0.25999114,-0.06833365,9.822483
351509920715782,-0.29046595,-0.054783728,9.817641
351509940571269,-0.3047586,-0.055227228,9.795996
351509960426629,-0.2855616,-0.107015006,9.751955
351509980282118,-0.28256014,-0.10620128,9.740391
351510000146465,-0.23138382,-0.104562715,9.7562685
351510020001951,-0.22707272,-0.09920523,9.760245
351510039857568,-0.25494915,-0.0774244,9.749582
351510059713183,-0.27724501,-0.06483381,9.764464
351510079566054,-0.26923642,-0.07757252,9.793081
351510099421799,-0.2776814,-0.092417285,9.792157
351510119277542,-0.30833462,-0.10459133,9.8406725
351510139133286,-0.31592762,-0.093462564,9.848167
351510158989031,-0.29031393,-0.12185335,9.854085
351510178844866,-0.32066482,-0.1082067,9.851216
351510198700610,-0.24680075,-0.16751955,9.844641
351510218556355,-0.2057523,-0.16713582,9.800399
351510238412228,-0.17182876,-0.18453358,9.7985325
351510258267973,-0.17028779,-0.2152198,9.792954
351510278123846,-0.17010552,-0.22661866,9.773446
351510297982589,-0.17761475,-0.19917901,9.749991
351510317838590,-0.1399907,-0.17744692,9.736466
351510337694463,-0.11409382,-0.20081212,9.764182
351510357550336,-0.16567345,-0.19103801,9.78357
351510377408713,-0.19290459,-0.16916089,9.822286
351510397264714,-0.14712003,-0.19687574,9.8033285
351510417120587,-0.17574234,-0.20121348,9.836764
351510436976588,-0.18035664,-0.17691913,9.907504
351510456832589,-0.14769486,-0.15805803,9.907373
351510476688590,-0.17736389,-0.14050923,9.853029
351510496546169,-0.1507794,-0.13873194,9.818719
351510516402170,-0.124499,-0.19281094,9.810868
351510536258171,-0.15727676,-0.22072725,9.7918825
351510556114172,-0.19807534,-0.1964104,9.77641
351510575970045,-0.17844355,-0.1641255,9.773902
351510595825832,-0.14192393,-0.16781773,9.765225
351510615681833,-0.14467831,-0.1763928,9.770505
351510635537962,-0.18204272,-0.18463616,9.776737
351510655393963,-0.19530909,-0.19096972,9.7606125
351510675245950,-0.14459261,-0.22253801,9.758393
351510695101823,-0.13840167,-0.23004575,9.797418
351510714957696,-0.11937976,-0.19377658,9.808287
351510734813697,-0.09557224,-0.20372286,9.802449
351510754669570,-0.17977044,-0.25436202,9.783134
351510774525438,-0.15358937,-0.27308092,9.788168
351510794377836,-0.13851823,-0.22712588,9.788077
351510814233709,-0.16734058,-0.22209673,9.799504
351510834089452,-0.18376178,-0.25392285,9.805528
351510853945324,-0.22080201,-0.30925867,9.817871
351510873801197,-0.2100751,-0.28226995,9.795667
351510893641995,-0.14521071,-0.24813294,9.794367
351510913497483,-0.15060186,-0.26452404,9.785058
351510933352844,-0.15648611,-0.26787397,9.780906
351510953208331,-0.19279866,-0.22292313,9.771519
351510973057964,-0.15046398,-0.24442121,9.743082
351510992913325,-0.13230382,-0.2288796,9.766839
351511012768686,-0.12165508,-0.20341408,9.798538
351511032623919,-0.12622951,-0.21657132,9.814987
351511052479280,-0.19842438,-0.21008804,9.792775
351511072334635,-0.23553064,-0.20359735,9.829096
351511092187278,-0.19780086,-0.20112124,9.859368
351511112042639,-0.15021314,-0.20518605,9.830895
351511131897997,-0.1698473,-0.16352196,9.829585
351511151753229,-0.17396146,-0.1312812,9.807039
351511171608590,-0.19171022,-0.1583437,9.788736
351511191458328,-0.22476867,-0.16504881,9.800246
351511211313560,-0.1836114,-0.14510687,9.801948
351511231168793,-0.1438969,-0.1585989,9.77546
351511251023896,-0.1662616,-0.16877158,9.803266
351511270879128,-0.20156056,-0.17329781,9.817466
351511290734361,-0.20044434,-0.16064425,9.800052
351511310580423,-0.15768476,-0.12455042,9.808008
351511330435400,-0.16455796,-0.12069099,9.83186
351511350290377,-0.18071935,-0.12366812,9.813013
351511370145354,-0.1875508,-0.11345926,9.827911
351511389997563,-0.18615358,-0.08751075,9.846963
351511409852412,-0.1847708,-0.12643759,9.831534
351511429707261,-0.20277508,-0.14263669,9.790486
351511449562110,-0.22799987,-0.11573077,9.7716465
351511469416959,-0.1687627,-0.11734276,9.769499
351511489280440,-0.13773502,-0.117914595,9.773723
351511509135417,-0.18755923,-0.09041765,9.791712
351511528990394,-0.21655262,-0.11150245,9.814426
351511548845371,-0.22021127,-0.15426466,9.80971
351511568700348,-0.20814803,-0.14446178,9.803905
351511588555325,-0.15197195,-0.14777696,9.828084
351511608418214,-0.17879598,-0.14170554,9.81817
351511628273447,-0.2638936,-0.11663773,9.778526
351511648128552,-0.24933979,-0.11145336,9.770097
351511667983785,-0.20203951,-0.16372283,9.799881
351511687841878,-0.155486,-0.1736154,9.868051
351511707697111,-0.17899576,-0.1964944,9.89913
351511727552216,-0.28022456,-0.14676377,9.879467
351511747407429,-0.27743766,-0.122880585,9.866303
351511767262534,-0.24589613,-0.13730004,9.836359
351511787120100,-0.21282311,-0.12184801,9.8060255
351511806975332,-0.1968802,-0.1632857,9.733514
351511826830437,-0.18427952,-0.21918277,9.727838
351511846685668,-0.18430124,-0.21150188,9.750244
351511866540900,-0.20462541,-0.16140376,9.810084
351511886396005,-0.19107807,-0.16908512,9.836617
351511906257795,-0.22389099,-0.14421624,9.838177
351511926113155,-0.25340003,-0.14844356,9.804132
351511945968516,-0.28012303,-0.16356169,9.758901
351511965823651,-0.25861847,-0.15286073,9.770435
351511985681208,-0.2141641,-0.17676961,9.764655
351512005536569,-0.23516473,-0.16167107,9.806644
351512025391930,-0.23414251,-0.10928188,9.829027
351512045247291,-0.15733044,-0.15165435,9.808091
351512065102780,-0.17517714,-0.15450558,9.8086605
351512084958141,-0.23270532,-0.12104698,9.825234
351512104816857,-0.20030731,-0.12685817,9.774633
351512124672346,-0.20337936,-0.11720918,9.748057
351512144527961,-0.23801778,-0.11265382,9.773301
351512164383449,-0.21869677,-0.13678567,9.779128
351512184239066,-0.21390934,-0.11677473,9.758222
351512204097206,-0.22532092,-0.0999268,9.774991
351512223952822,-0.19777624,-0.098802805,9.783435
351512243808439,-0.18518244,-0.12477022,9.7929535
351512263664182,-0.21566515,-0.10904484,9.804754
351512283522033,-0.17354909,-0.097332545,9.823188
351512303377778,-0.21081454,-0.087219134,9.820713
351512323233521,-0.2318241,-0.09684602,9.826302
351512343089266,-0.2011986,-0.11233767,9.821137
351512362945011,-0.17916504,-0.1355564,9.76598
351512382800756,-0.18823108,-0.13603656,9.761416
351512402662651,-0.20465851,-0.12412324,9.791542
351512422518524,-0.21649395,-0.12054511,9.779485
351512442374525,-0.18803829,-0.11690857,9.76405
351512462230398,-0.14673254,-0.1198204,9.777824
351512482086399,-0.20815746,-0.14310482,9.805518
351512501936258,-0.2912782,-0.15157774,9.805623
351512521792003,-0.2753357,-0.13508707,9.826265
351512541647876,-0.19564055,-0.1555938,9.856126
351512561503621,-0.15123391,-0.14944953,9.88667
351512581357418,-0.19842099,-0.1303789,9.85397
351512601213163,-0.24362348,-0.11763587,9.843131
351512621068908,-0.21753962,-0.13875356,9.831242
351512640924653,-0.17577942,-0.15251026,9.821371
351512660780398,-0.17028706,-0.11510168,9.81281
351512680636271,-0.1760098,-0.101358585,9.77874
351512700494344,-0.17278606,-0.11626165,9.76259
351512720350089,-0.16947158,-0.13039114,9.771318
351512740205834,-0.17805082,-0.11299857,9.791561
351512760061686,-0.17953473,-0.11712891,9.758492
351512779917431,-0.20877753,-0.077123515,9.777184
351512799771555,-0.2225185,-0.09037474,9.8144865
351512819627299,-0.20689663,-0.12434451,9.808518
351512839483044,-0.23347698,-0.086704426,9.822654
351512859338787,-0.25869066,-0.097778276,9.858306
351512879180952,-0.25432718,-0.15720391,9.88574
351512899036441,-0.2684456,-0.16909945,9.875989
351512918891800,-0.22178502,-0.17652762,9.867657
351512938747160,-0.19667372,-0.16431426,9.822446
351512958602521,-0.20198649,-0.1571515,9.76551
351512978458008,-0.16023523,-0.15641542,9.764014
351512998300849,-0.14298265,-0.14495008,9.741592
351513018155954,-0.122538194,-0.15473865,9.709601
351513038011057,-0.18783827,-0.15635021,9.720295
351513057866161,-0.22215758,-0.17956993,9.748691
351513077721266,-0.174697,-0.17576562,9.768841
351513097575126,-0.17538345,-0.14832294,9.810276
351513117430230,-0.19645031,-0.17811763,9.83954
351513137285335,-0.237717,-0.21240209,9.847906
351513157140440,-0.28067702,-0.2168238,9.8811655
351513176995545,-0.23260346,-0.17940114,9.887011
351513196850650,-0.117123686,-0.1630004,9.879337
351513216710711,-0.13792743,-0.13616377,9.853103
351513236565816,-0.19716339,-0.14934637,9.797602
351513256421049,-0.20678365,-0.1845805,9.769628
351513276276154,-0.19753379,-0.17221193,9.7438965
351513296127733,-0.12203022,-0.1726777,9.757886
351513315982838,-0.10749247,-0.16120523,9.755252
351513335837943,-0.18531133,-0.13997209,9.747068
351513355693048,-0.22905621,-0.15190783,9.736752
351513375548153,-0.21226728,-0.17620178,9.745378
351513395399058,-0.16895996,-0.1485281,9.778261
351513415254035,-0.15150987,-0.12154036,9.830949
351513435109012,-0.17098649,-0.13566573,9.847031
351513454963989,-0.21992972,-0.15777078,9.866071
351513474819094,-0.22767013,-0.16059007,9.893813
351513494674071,-0.16485213,-0.15149339,9.857678
351513514523394,-0.1445057,-0.15268561,9.81671
351513534378243,-0.15897946,-0.14915928,9.802279
351513554233220,-0.17366256,-0.14327864,9.788236
351513574088069,-0.15970455,-0.15231755,9.732283
351513593941351,-0.19798052,-0.1393531,9.690418
351513613796200,-0.16039798,-0.12836355,9.712199
351513633651049,-0.14489415,-0.14778145,9.7418585
351513653505898,-0.20643266,-0.1607517,9.717379
351513673360747,-0.27547172,-0.15576228,9.746289
351513693218100,-0.2754571,-0.16523229,9.818989
351513713072949,-0.21532632,-0.18097995,9.870658
351513732927798,-0.18149742,-0.12928982,9.881014
351513752782519,-0.16553468,-0.17274715,9.879611
351513772637368,-0.22237659,-0.20438711,9.8654
351513792492217,-0.2378655,-0.1782854,9.898708
351513812346264,-0.2064023,-0.15881081,9.853819
351513832201112,-0.1522647,-0.14791673,9.789841
351513852055833,-0.1799486,-0.175022,9.777325
351513871910680,-0.19871712,-0.17822622,9.738321
351513891770235,-0.16516736,-0.16284682,9.720328
351513911625084,-0.16755037,-0.16748098,9.719092
351513931479931,-0.19887887,-0.15028806,9.750011
351513951334779,-0.20422058,-0.12895793,9.774656
351513971189628,-0.20294695,-0.14083672,9.802702
351513991051418,-0.15800583,-0.1415269,9.8391485
351514010906394,-0.16694523,-0.13609584,9.855597
351514030761371,-0.21282059,-0.12671705,9.892217
351514050612605,-0.27367997,-0.13256519,9.901612
351514070467582,-0.2502805,-0.17141904,9.883003
351514090322559,-0.21561654,-0.14073128,9.852962
351514110183454,-0.13571067,-0.14032756,9.807717
351514130038556,-0.10769635,-0.13015223,9.7557335
351514149893661,-0.19165249,-0.12479693,9.736695
351514169748764,-0.23712257,-0.15723288,9.749224
351514189613439,-0.181746,-0.14295381,9.777743
351514209468800,-0.14369199,-0.12489972,9.785943
351514229324159,-0.15921855,-0.12477079,9.795564
351514249179519,-0.19740742,-0.14481197,9.824272
351514269034752,-0.24289554,-0.15463513,9.7936535
351514288890111,-0.2245202,-0.1489022,9.764245
351514308750748,-0.14646576,-0.14777151,9.812281
351514328606365,-0.11876839,-0.14655411,9.808131
351514348461852,-0.19439435,-0.11867719,9.78179
351514368317341,-0.21845046,-0.09147222,9.813208
351514388172830,-0.14787608,-0.16150518,9.841712
351514408031713,-0.2136087,-0.14384057,9.8951235
351514427887458,-0.24315558,-0.12773907,9.876632
351514447743075,-0.19129288,-0.15199403,9.866325
351514467598820,-0.24219742,-0.12780972,9.847121
351514487454643,-0.21713737,-0.13890994,9.791206
351514507310260,-0.1484261,-0.1516376,9.736713
351514527166005,-0.1704942,-0.1226094,9.697055
351514547021622,-0.16734159,-0.15595189,9.707344
351514566877367,-0.13953099,-0.1526038,9.740891
351514586733112,-0.15668906,-0.10058852,9.782581
351514606585705,-0.17498319,-0.112805896,9.846157
351514626441322,-0.22570598,-0.12610522,9.863201
351514646296939,-0.2799783,-0.14826086,9.845943
351514666152556,-0.26725498,-0.16170453,9.85144
351514686008045,-0.22329731,-0.15348352,9.866844
351514705866048,-0.18352751,-0.15960494,9.83705
351514725721793,-0.17566729,-0.13446732,9.830249
351514745577410,-0.17580697,-0.10960237,9.826687
351514765433009,-0.133259,-0.1320854,9.777588
351514785287743,-0.13763368,-0.12478747,9.760367
351514805143360,-0.18673019,-0.107323416,9.755228
351514824999103,-0.15829779,-0.12782699,9.75076
351514844854847,-0.18079823,-0.10930035,9.756656
351514864710592,-0.20073818,-0.11277869,9.769233
351514884566335,-0.2480106,-0.1312281,9.776415
351514904418776,-0.24907115,-0.107793406,9.769742
351514924274393,-0.2033925,-0.1416314,9.8044195
351514944130136,-0.18429336,-0.12797813,9.852434
351514963985752,-0.16822927,-0.12136591,9.8425255
351514983841497,-0.18370424,-0.10069086,9.859414
351515003681724,-0.16671316,-0.09574857,9.863837
351515023537085,-0.18450865,-0.14347783,9.823431
351515043392446,-0.25792414,-0.13632514,9.838086
351515063247803,-0.24751686,-0.12139547,9.844971
351515083103163,-0.16715954,-0.12689151,9.832097
351515102958524,-0.17026839,-0.13006756,9.808685
351515122805917,-0.19284685,-0.113895364,9.793519
351515142661149,-0.20242196,-0.12369579,9.774989
351515162516254,-0.23908918,-0.13191663,9.743504
351515182371357,-0.21461038,-0.12893553,9.748975
351515202222384,-0.15524124,-0.13231175,9.748984
351515222077489,-0.14300106,-0.1053684,9.755466
351515241932464,-0.17489278,-0.12656775,9.812101
351515261787440,-0.20632848,-0.1309654,9.849225
351515281642417,-0.20788455,-0.12796062,9.846826
351515301488102,-0.21016978,-0.12631418,9.864172
351515321342950,-0.17903805,-0.13393924,9.856144
351515341197671,-0.2020916,-0.13410296,9.836344
351515361052520,-0.21984859,-0.12487254,9.831449
351515380907369,-0.19052243,-0.122993946,9.808295
351515400762090,-0.15057823,-0.13120888,9.813133
351515420614127,-0.14221303,-0.11106256,9.805544
351515440468848,-0.16838963,-0.11565481,9.799268
351515460323441,-0.21418005,-0.11085475,9.772874
351515480178154,-0.17946264,-0.11772278,9.766603
351515500029394,-0.11953454,-0.1096349,9.804972
351515519883987,-0.13472986,-0.113288715,9.830925
351515539738578,-0.19666265,-0.13283373,9.844659
351515559593042,-0.2174346,-0.14677633,9.81599
351515579447635,-0.22188981,-0.13844329,9.838766
351515599304050,-0.16868795,-0.13550287,9.835157
351515619158514,-0.11159318,-0.11556152,9.811738
351515639013107,-0.13260753,-0.080896005,9.796682
351515658867698,-0.15534832,-0.12961076,9.765032
351515678722163,-0.17778435,-0.18430735,9.768143
351515698576756,-0.21379846,-0.16158992,9.76585
351515718442891,-0.12409912,-0.13336855,9.7823515
351515738297609,-0.114270896,-0.147438,9.801309
351515758152458,-0.16330959,-0.15275465,9.840941
351515778007177,-0.17549129,-0.15387055,9.828446
351515797865302,-0.15033314,-0.15303695,9.834992
351515817720279,-0.17638707,-0.13559751,9.868407
351515837575126,-0.16318929,-0.1128814,9.828277
351515857429974,-0.16290064,-0.12264538,9.793603
351515877284823,-0.07684271,-0.1990297,9.844224
351515897139670,-0.10040027,-0.17729954,9.794735
351515917003205,-0.14415072,-0.12636583,9.7293005
351515936858310,-0.14572948,-0.17307577,9.701762
351515956713285,-0.19867995,-0.28864995,9.748458
351515976568261,-0.21412,-0.34003302,9.782738
351515996423366,-0.19657828,-0.3084962,9.792004
351516016275813,-0.2024974,-0.24383777,9.8335905
351516036130789,-0.19657496,-0.23250964,9.842318
351516055985766,-0.19646049,-0.22420569,9.854045
351516075840741,-0.19659562,-0.22007695,9.830077
351516095703934,-0.10257163,-0.18740904,9.825446
351516115559039,-0.046656393,-0.17690901,9.798486
351516135414270,-0.020480387,-0.16419703,9.80169
351516155269374,-0.04818094,-0.14243919,9.861598
351516175124607,-0.15408042,-0.20159647,9.8315115
351516194980291,-0.14379726,-0.20799658,9.810733
351516214839652,-0.14962004,-0.15814592,9.823373
351516234694885,-0.061213456,-0.15013319,9.780312
351516254550246,-0.07589651,-0.16349007,9.797634
351516274405479,-0.10931293,-0.14950952,9.751611
351516294260712,-0.06419223,-0.166938,9.721783
351516314124123,-0.12819467,-0.17625417,9.748097
351516333979612,-0.13034877,-0.1520541,9.782814
351516353835229,-0.11544901,-0.12533149,9.793199
351516373690718,-0.10682834,-0.1522808,9.818139
351516393552729,-0.10472963,-0.17632772,9.85767
351516413408474,-0.13651153,-0.17950413,9.8551035
351516433264219,-0.13878195,-0.18152647,9.832082
351516453119836,-0.13271259,-0.19154519,9.843078
351516472975581,-0.11610333,-0.18498227,9.839368
351516492831326,-0.14228372,-0.16612522,9.825094
351516512691083,-0.10705878,-0.16979992,9.784567
351516532546956,-0.113649786,-0.1876632,9.769842
351516552402829,-0.11649278,-0.18109557,9.785743
351516572258702,-0.09028263,-0.1734869,9.795944
351516592114447,-0.122056395,-0.16550717,9.78841
351516611963154,-0.13705401,-0.1612144,9.7922535
351516631818899,-0.11873206,-0.19997379,9.801077
351516651674644,-0.13935088,-0.21486488,9.799933
351516671530238,-0.13028702,-0.22178297,9.820843
351516691385983,-0.16674305,-0.21391915,9.85752
351516711241600,-0.1536135,-0.20628606,9.843598
351516731099151,-0.12103701,-0.19290498,9.826034
351516750954896,-0.13179243,-0.16329798,9.826355
351516770810641,-0.117838345,-0.16783234,9.854335
351516790666380,-0.1525922,-0.18521523,9.813172
351516810520338,-0.14280188,-0.20312703,9.750821
351516830376083,-0.13214909,-0.17729011,9.757942
351516850231826,-0.086504884,-0.15427172,9.781041
351516870087570,-0.10720623,-0.14749232,9.813888
351516889943315,-0.15857384,-0.15323293,9.812688
351516909785316,-0.14820617,-0.17515773,9.821441
351516929640676,-0.13990098,-0.18830544,9.844573
351516949496165,-0.14311585,-0.1793414,9.86085
351516969351524,-0.1620137,-0.1692349,9.854631
351516989207012,-0.15653971,-0.15831827,9.826965
351517009062373,-0.16500644,-0.155899,9.75442
351517028909894,-0.115136065,-0.13861711,9.723716
351517048765126,-0.12874661,-0.14517392,9.77149
351517068620487,-0.118840456,-0.14982602,9.814139
351517088475718,-0.0998277,-0.13046384,9.819516
351517108323459,-0.12510407,-0.14295156,9.854431
351517128178564,-0.09624958,-0.16869129,9.883601
351517148033667,-0.08643428,-0.18567352,9.868744
351517167888643,-0.15329401,-0.15168653,9.809777
351517187743748,-0.1312739,-0.14268816,9.765723
351517207594012,-0.14664537,-0.11513393,9.773176
351517227448861,-0.10915033,-0.13878554,9.739699
351517247303710,-0.11171871,-0.17131332,9.761174
351517267158687,-0.13055107,-0.10323456,9.805412
351517287013536,-0.14741634,-0.09798023,9.817766
351517306868513,-0.19904757,-0.105584815,9.818769
351517326725250,-0.23710035,-0.112026155,9.812742
351517346580227,-0.20280012,-0.11654098,9.811341
351517366435204,-0.17220277,-0.12683518,9.8157015
351517386290181,-0.18347704,-0.11387106,9.825442
351517406143614,-0.1804094,-0.114532255,9.783939
351517425998463,-0.15702663,-0.116065815,9.763579
351517445853312,-0.163813,-0.11645359,9.811597
351517465708289,-0.14090525,-0.13024242,9.868239
351517485563138,-0.17112266,-0.13702686,9.83405
351517505417987,-0.23149124,-0.08967874,9.824826
351517525270940,-0.2014067,-0.10315546,9.818694
351517545125789,-0.22447696,-0.13851495,9.781341
351517564980638,-0.2279658,-0.13107096,9.749729
351517584835487,-0.17892584,-0.14889812,9.771329
351517604690336,-0.16481552,-0.1299144,9.789485
351517624542089,-0.16393012,-0.14144492,9.770521
351517644396810,-0.14374526,-0.14320995,9.766789
351517664251531,-0.18171154,-0.11519892,9.803343
351517684106230,-0.20251513,-0.09436755,9.798231
351517703971191,-0.21250851,-0.10724079,9.811715
351517723826040,-0.23812075,-0.08947811,9.833089
351517743681017,-0.21849746,-0.10682123,9.830223
351517763535862,-0.21052352,-0.12841506,9.819345
351517783390839,-0.18602374,-0.12983437,9.819557
351517803245686,-0.16850922,-0.118210435,9.794516
351517823100950,-0.19979239,-0.11237688,9.773513
351517842955927,-0.24388362,-0.09186638,9.788988
351517862810774,-0.15193966,-0.095562994,9.795462
351517882665622,-0.14031702,-0.12607291,9.793587
351517902520599,-0.18093467,-0.09329089,9.797002
351517922379829,-0.17792587,-0.075317554,9.814775
351517942234805,-0.18781348,-0.102010675,9.818701
351517962089782,-0.21364082,-0.11725384,9.823612
351517981944759,-0.19725338,-0.14145604,9.822993
351518001803228,-0.1653789,-0.1300025,9.811257
351518021658333,-0.119363524,-0.10955469,9.803695
351518041513438,-0.14367697,-0.10431694,9.817064
351518061368538,-0.17614204,-0.10049314,9.808869
351518081223643,-0.17451632,-0.1278749,9.782652
351518101078746,-0.17488812,-0.11432311,9.792122
351518120942012,-0.12446399,-0.095432185,9.804495
351518140797373,-0.14659622,-0.123194315,9.820424
351518160652732,-0.181378,-0.13284543,9.822712
351518180507964,-0.15930198,-0.1471631,9.806284
351518200363325,-0.1829612,-0.15619336,9.844993
351518220219178,-0.19946167,-0.16272403,9.858162
351518240074538,-0.20652153,-0.14148453,9.8310795
351518259929899,-0.18304273,-0.112246454,9.820675
351518279785186,-0.15643637,-0.15924878,9.809032
351518299641611,-0.0869246,-0.18702565,9.809905
351518319497100,-0.1133148,-0.1799504,9.790618
351518339352461,-0.12441026,-0.17042871,9.741784
351518359207950,-0.13295406,-0.19027308,9.751249
351518379063311,-0.15326487,-0.18165429,9.75038
351518398918800,-0.12247431,-0.15587729,9.735254
351518418781883,-0.13714595,-0.171693,9.76945
351518438637500,-0.17117244,-0.18481961,9.794239
351518458493245,-0.2027231,-0.18889165,9.831155
351518478348862,-0.2085956,-0.18390621,9.865997
351518498204479,-0.14972876,-0.16596533,9.862817
351518518054428,-0.097689964,-0.15657409,9.881602
351518537909917,-0.14274117,-0.20370893,9.873015
351518557765534,-0.17938368,-0.17775978,9.811929
351518577621023,-0.13800788,-0.16341728,9.825411
351518597476512,-0.1445626,-0.14970869,9.837325
351518617332001,-0.093235575,-0.14364982,9.813337
351518637181174,-0.06623304,-0.17431277,9.77585
351518657036535,-0.09703469,-0.17137855,9.77238
351518676891896,-0.12071244,-0.17559381,9.795497
351518696747257,-0.12648296,-0.1766443,9.774755
351518716609506,-0.13889143,-0.15611361,9.779932
351518736464995,-0.12468975,-0.13940178,9.785368
351518756320464,-0.12211467,-0.13767494,9.825863
351518776175952,-0.113078654,-0.14466622,9.855219
351518796031441,-0.14036727,-0.16119353,9.838191
351518815882619,-0.15710294,-0.15541328,9.842846
351518835737979,-0.15799361,-0.19634867,9.829541
351518855593468,-0.15008081,-0.21050921,9.822713
351518875448827,-0.18607987,-0.20921515,9.825763
351518895304187,-0.17598015,-0.18540497,9.807457
351518915159676,-0.10053488,-0.13907269,9.761237
351518935011927,-0.034364577,-0.12779835,9.746327
351518954867287,-0.068819694,-0.14431845,9.737679
351518974722648,-0.123087116,-0.15347247,9.744857
351518994578007,-0.1441206,-0.17311372,9.7851305
351519014417522,-0.14307915,-0.13841029,9.802339
351519034272499,-0.14338842,-0.090913154,9.799229
351519054127602,-0.12213415,-0.09293218,9.797878
351519073982578,-0.14392132,-0.13382031,9.823751
351519093837683,-0.18570326,-0.14269026,9.830064
351519113684757,-0.17221645,-0.14846101,9.804382
351519133539605,-0.11253158,-0.15225008,9.788829
351519153394454,-0.11419382,-0.118067,9.84941
351519173249301,-0.14688946,-0.11636706,9.893697
351519193104021,-0.16234039,-0.134523,9.845573
351519212958870,-0.18216984,-0.12198082,9.827172
351519232810798,-0.1342982,-0.1132315,9.820233
351519252665518,-0.10865244,-0.13436298,9.793733
351519272520111,-0.1699201,-0.116607904,9.783962
351519292374830,-0.15215434,-0.11887969,9.7646055
351519312232956,-0.14993753,-0.10939781,9.754707
351519332087805,-0.16903862,-0.09429459,9.78371
351519351942526,-0.14001897,-0.12692182,9.824956
351519371797375,-0.14937538,-0.11981206,9.819639
351519391652224,-0.178774,-0.13218863,9.7998
351519411500923,-0.21705765,-0.13398598,9.859384
351519431355644,-0.18272886,-0.1318952,9.870818
351519451210237,-0.14624193,-0.13455705,9.82246
351519471064958,-0.12339468,-0.08419071,9.783785
351519490919551,-0.11947973,-0.11431134,9.776535
351519510774144,-0.15612456,-0.15459327,9.742919
351519530626085,-0.20572843,-0.15079618,9.744662
351519550480678,-0.2186418,-0.13682055,9.75479
351519570335271,-0.15225698,-0.161632,9.789283
351519590189864,-0.16187455,-0.15173775,9.796783
351519610044627,-0.17142038,-0.11729598,9.818644
351519629899092,-0.15721594,-0.120372236,9.847798
351519649753685,-0.19273873,-0.15383223,9.818093
351519669608150,-0.19819763,-0.1313908,9.811315
351519689462615,-0.12809217,-0.09203889,9.798822
351519709317208,-0.09147109,-0.099386066,9.764464
351519729180515,-0.12940295,-0.117851794,9.791425
351519749035236,-0.19627869,-0.14609547,9.85841
351519768889808,-0.18232712,-0.14595155,9.912818
351519788744528,-0.14213975,-0.12060441,9.902635
351519808599249,-0.092350826,-0.0953117,9.874063
351519828456950,-0.118804365,-0.107589535,9.857723
351519848311670,-0.23191921,-0.1204059,9.809091
351519868166519,-0.1696667,-0.11223213,9.761869
351519888021238,-0.061270814,-0.10771152,9.731511
351519907878927,-0.0103151025,-0.109653145,9.764417
351519927733648,-0.10074594,-0.14203568,9.770046
351519947588367,-0.1981181,-0.13760926,9.791442
351519967443215,-0.16212517,-0.09923093,9.80024
351519987297936,-0.09458171,-0.098298505,9.831697
351520007152783,-0.13069679,-0.1268546,9.860229
351520027015531,-0.1680202,-0.1515475,9.856788
351520046870508,-0.16617459,-0.16816534,9.809414
351520066725483,-0.11936355,-0.18790904,9.805378
351520086580459,-0.11576372,-0.15232985,9.817625
351520106435436,-0.064029425,-0.112312905,9.816455
351520126290410,-0.02637783,-0.09530269,9.8124695
351520146145386,-0.07814924,-0.13093802,9.79457
351520166000363,-0.16122665,-0.1880622,9.812315
351520185855338,-0.17885013,-0.20089768,9.827213
351520205715936,-0.16593039,-0.16574031,9.807045
351520225571041,-0.13270158,-0.15229285,9.799865
351520245426144,-0.12906446,-0.15049058,9.785944
351520265281248,-0.1244225,-0.15129279,9.768958
351520285136225,-0.13335143,-0.14039055,9.747754
351520304991328,-0.1182086,-0.14407367,9.787778
351520324851996,-0.09260461,-0.14809506,9.802453
351520344707357,-0.1080206,-0.1582083,9.817926
351520364562716,-0.09336929,-0.12822081,9.852998
351520384417948,-0.10454705,-0.13203664,9.853059
351520404273309,-0.15001617,-0.16507779,9.837308
351520424134739,-0.15741451,-0.15998818,9.807925
351520443990227,-0.13773277,-0.14911799,9.775536
351520463845716,-0.07861141,-0.16048592,9.77636
351520483701203,-0.114728525,-0.1445849,9.80117
351520503553296,-0.1411376,-0.11298544,9.810696
351520523408913,-0.12873195,-0.1324069,9.796244
351520543264400,-0.1399996,-0.1265502,9.797843
351520563119888,-0.10100546,-0.11978981,9.812136
351520582975377,-0.08978175,-0.122010805,9.78368
351520602830864,-0.14371023,-0.1421506,9.771062
351520622679123,-0.1779112,-0.13813214,9.79112
351520642534356,-0.14602773,-0.14344457,9.824637
351520662389715,-0.13531622,-0.1347976,9.820258
351520682244947,-0.0995311,-0.12387418,9.842549
351520702100180,-0.14057687,-0.13600364,9.836378
351520721961805,-0.15063715,-0.14596789,9.842329
351520741817165,-0.1489142,-0.12507741,9.8167925
351520761672654,-0.12652272,-0.12213585,9.801072
351520781525298,-0.12544008,-0.11503315,9.811973
351520801380658,-0.116326876,-0.11129665,9.804048
351520821236019,-0.1396728,-0.12256386,9.808093
351520841086606,-0.11932168,-0.094164334,9.767055
351520860941966,-0.111074254,-0.12613294,9.774277
351520880797199,-0.17940468,-0.17602718,9.817985
351520900652558,-0.16256835,-0.1497605,9.798516
351520920506669,-0.13801104,-0.11888139,9.796027
351520940362030,-0.121621326,-0.12974235,9.825997
351520960217261,-0.15161784,-0.14415896,9.828282
351520980072621,-0.16635777,-0.13683645,9.807689
351520999927982,-0.18761276,-0.14794639,9.826958
351521019775547,-0.16223395,-0.17478588,9.82059
351521039630651,-0.16073059,-0.16806838,9.819824
351521059485884,-0.17685954,-0.15530784,9.8225155
351521079340987,-0.100498885,-0.15885277,9.776204
351521099196091,-0.098220125,-0.15767182,9.774328
351521119051196,-0.12956586,-0.11968349,9.777821
351521138899290,-0.124623016,-0.12746668,9.801585
351521158754266,-0.1407944,-0.15465927,9.790994
351521178609115,-0.10996728,-0.12491859,9.845878
351521198464090,-0.044854324,-0.08745834,9.869744
351521218317501,-0.07454602,-0.11596068,9.869697
351521238172350,-0.16760862,-0.15979388,9.843439
351521258027325,-0.15136652,-0.18253753,9.811156
351521277882173,-0.08838273,-0.15087539,9.809017
351521297737022,-0.091882795,-0.13185011,9.780601
351521317591526,-0.07355256,-0.14476481,9.742947
351521337446374,-0.0886845,-0.13899697,9.727012
351521357301351,-0.08483421,-0.13842496,9.732555
351521377156198,-0.07127409,-0.1666218,9.752608
351521397011046,-0.12064542,-0.13525902,9.770887
351521416865895,-0.15118337,-0.12623893,9.815965
351521436720492,-0.124306805,-0.14841153,9.836822
351521456575340,-0.14800332,-0.15016773,9.860701
351521476430189,-0.15239802,-0.13534677,9.932526
351521496285164,-0.08702888,-0.13604951,9.903632
351521516135794,-0.09490845,-0.16026987,9.880138
351521535990643,-0.13139287,-0.15238628,9.832532
351521555845362,-0.10514942,-0.15467341,9.781233
351521575700082,-0.12120598,-0.1683143,9.781104
351521595554803,-0.14132915,-0.15128042,9.737018
351521615413027,-0.11399129,-0.14380734,9.737915
351521635267875,-0.10663695,-0.13590533,9.733398
351521655122724,-0.14450449,-0.16063595,9.710253
351521674977443,-0.18945354,-0.16142523,9.710353
351521694832291,-0.1500854,-0.14528358,9.769317
351521714687140,-0.09468751,-0.15810755,9.837704
351521734543139,-0.13529584,-0.14098433,9.876452
351521754397859,-0.17796701,-0.09440952,9.887568
351521774252708,-0.13878666,-0.09680829,9.889036
351521794107555,-0.1286579,-0.12416644,9.856821
351521813961915,-0.13993998,-0.12300275,9.828164
351521833816764,-0.124110594,-0.09135128,9.7946615
351521853671611,-0.14804359,-0.10115751,9.771259
351521873526459,-0.13658324,-0.11008645,9.769345
351521893381308,-0.10550028,-0.09070928,9.768544
351521913236155,-0.095724285,-0.090283036,9.743408
351521933093484,-0.143272,-0.061935414,9.728386
351521952948333,-0.19089995,-0.039916705,9.766556
351521972803180,-0.16674589,-0.054349307,9.791183
351521992658028,-0.16544695,-0.069675244,9.8115835
351522012512877,-0.14897752,-0.07227799,9.851698
351522032372003,-0.111549534,-0.078892305,9.8932
351522052226979,-0.1250846,-0.06256272,9.890369
351522072081956,-0.15827732,-0.052727375,9.889768
351522091936931,-0.18805522,-0.052812897,9.893656
351522111796204,-0.19461413,-0.08654219,9.863107
351522131651309,-0.13508981,-0.10544034,9.79884
351522151506284,-0.144957,-0.07838763,9.788283
351522171361260,-0.13424993,-0.070578806,9.793923
351522191216365,-0.16285554,-0.07699864,9.759787
351522211071340,-0.17255175,-0.051335864,9.723923
351522230933667,-0.1308163,-0.076159224,9.689969
351522250788772,-0.12530355,-0.119702555,9.729842
351522270644003,-0.16242437,-0.11281477,9.792147
351522290499107,-0.24167235,-0.057029072,9.844233
351522310354340,-0.2546791,-0.059548657,9.870729
351522330214216,-0.22641009,-0.0862723,9.900977
351522350069576,-0.17778529,-0.09919658,9.883041
351522369924937,-0.14682145,-0.10087878,9.850083
351522389780296,-0.17006052,-0.07235265,9.823834
351522409633060,-0.15221857,-0.0887823,9.758811
351522429488293,-0.12150715,-0.0784631,9.712493
351522449343652,-0.118993126,-0.041000202,9.78408
351522469199012,-0.13447253,-0.058641836,9.89931
351522489054245,-0.14098054,-0.07840454,9.875659
351522508909604,-0.21107326,-0.027133988,9.817258
351522528768213,-0.2154092,-0.008999801,9.828587
351522548623574,-0.18182169,-0.07616787,9.768481
351522568479061,-0.21470597,-0.047961265,9.76221
351522588334421,-0.14592992,-0.01804167,9.842572
351522608189910,-0.040285062,-0.0606804,9.855979
351522628046055,-0.11871661,-0.059354674,9.833364
351522647901543,-0.16475968,-0.031365223,9.816291
351522667757032,-0.13829392,-0.014625394,9.816762
351522687612391,-0.18761133,-0.030146208,9.808802
351522707466928,-0.16942233,-0.03607947,9.822188
351522727322289,-0.15806787,-0.03719588,9.827159
351522747177776,-0.14693725,-0.033901032,9.81731
351522767033136,-0.13070092,-0.031528283,9.796301
351522786888625,-0.17961538,-0.021357482,9.763828
351522806743200,-0.1648119,-0.032436777,9.74105
351522826598036,-0.10495992,-0.09323554,9.746151
351522846453525,-0.1659938,-0.03751082,9.828953
351522866308884,-0.17037278,-0.023286559,9.851192
351522886164372,-0.17372715,-0.030241713,9.849414
351522906019733,-0.20497343,-0.01641495,9.811134
351522925870618,-0.16756304,-0.049274895,9.797463
351522945725978,-0.16625592,-0.05120688,9.795144
351522965581339,-0.20089932,-0.024494814,9.796616
351522985436698,-0.19028096,-0.027997117,9.808212
351523005292058,-0.1687751,-0.032772113,9.820103
351523025147291,-0.1628111,-0.06317691,9.836283
351523044992215,-0.16052738,-0.052068774,9.822655
351523064847319,-0.19033377,-0.020008348,9.7931185
351523084702424,-0.21911229,-0.026584432,9.790633
351523104557655,-0.21053554,-0.028098099,9.794854
351523124403671,-0.1819312,4.3214211E-4,9.778722
351523144258648,-0.16074586,0.0029897222,9.786525
351523164113623,-0.16608614,-0.0063900235,9.796677
351523183968471,-0.18943077,-0.024285238,9.792217
351523203823448,-0.15973566,-0.034946293,9.793836
351523223679977,-0.13485749,-0.02239143,9.820209
351523243534825,-0.17923595,-0.010188678,9.837311
351523263389802,-0.20995916,0.009599997,9.8483305
351523283244777,-0.20603906,0.0017943492,9.841237
351523303099625,-0.14241274,-0.028034477,9.832747
351523322954602,-0.14891224,-0.025143702,9.818952
351523342806182,-0.1881269,0.0057623372,9.828013
351523362661030,-0.21658131,0.017331267,9.843571
351523382515879,-0.21022964,0.0048890435,9.834617
351523402370726,-0.13579942,-0.031003403,9.843438
351523422224358,-0.13296792,-0.015830545,9.802803
351523442079207,-0.17273435,0.018575702,9.765167
351523461933926,-0.18068616,-0.0021132822,9.74443
351523481788646,-0.18381111,-0.0052469727,9.750675
351523501643495,-0.11091732,-0.024842024,9.775069
351523521490303,-0.13674831,-0.018926073,9.813079
351523541344767,-0.17987248,0.0025228232,9.840158
351523561199360,-0.21560527,0.0077091437,9.861135
351523581053951,-0.19775802,-0.019644925,9.857288
351523600908543,-0.16152433,-0.024733031,9.856166
351523620763136,-0.16921078,0.016496712,9.831468
351523640619019,-0.16268443,0.008810977,9.810021
351523660473483,-0.16469103,-0.028592482,9.8076105
351523680328076,-0.1799531,-0.030124191,9.784025
351523700182667,-0.16124383,-0.01405709,9.754398
351523720045957,-0.12607545,-0.03476316,9.749288
351523739900678,-0.16243052,-0.031175647,9.735666
351523759755525,-0.16751851,-0.004905012,9.7452135
351523779610245,-0.16183634,-0.0016380363,9.771281
351523799464966,-0.16232328,-0.018971838,9.794939
351523819312127,-0.16071826,-0.015915874,9.837273
351523839166719,-0.16813144,0.013914578,9.868816
351523859021312,-0.17782263,-0.006023492,9.902461
351523878875903,-0.20542628,-0.01866819,9.9072695
351523898730623,-0.1899912,-0.01739305,9.916084
351523918585216,-0.15141596,-0.0038379752,9.8990555
351523938440642,-0.15172563,-0.002700044,9.8348465
351523958295362,-0.18648593,0.0049505886,9.781937
351523978149955,-0.17703763,-0.0032730042,9.756631
351523998004546,-0.12021719,-0.06770374,9.7072735
351524017863935,-0.08327457,-0.07768678,9.682849
351524037718656,-0.099646576,-0.0051575955,9.72503
351524057573247,-0.14876221,-0.012492557,9.766608
351524077427967,-0.18952607,-0.01378648,9.78378
351524097282688,-0.19036339,0.019600304,9.842179
351524117137279,-0.16434205,-0.002752527,9.872222
351524136993846,-0.22149298,0.0035255325,9.874064
351524156848567,-0.24484362,0.003152266,9.893062
351524176703288,-0.20572832,-0.013310547,9.913944
351524196558006,-0.13509102,-0.027812494,9.868535
351524216412727,-0.11805376,-0.0256768,9.793803
351524236272889,-0.14740041,0.03596401,9.809517
351524256127737,-0.14148308,-0.008689563,9.800738
351524275982714,-0.16287032,-0.020926787,9.757818
351524295837561,-0.1522394,0.0024835898,9.732253
351524315693756,-0.1205241,-0.03176846,9.700808
351524335548733,-0.17553143,-0.040573005,9.724026
351524355403708,-0.2362811,-0.01971603,9.723878
351524375258556,-0.2057463,-0.015684724,9.755638
351524395113533,-0.16688582,-0.040119983,9.78756
351524414968510,-0.14604,-0.033116553,9.839961
351524434827964,-0.1808184,-0.018882485,9.845218
351524454682941,-0.20701331,-0.019534387,9.843902
351524474538044,-0.24270585,-0.017743273,9.853599
351524494393148,-0.20474988,-0.05477593,9.820767
351524514248125,-0.15964714,-0.0485075,9.792479
351524534108361,-0.168252,-0.019003686,9.823301
351524553963593,-0.18229514,-0.0055020526,9.819258
351524573818698,-0.20031965,0.008389274,9.806201
351524593673929,-0.16597721,-6.498357E-4,9.793074
351524613532185,-0.1608706,-1.7741988E-4,9.809887
351524633387418,-0.13724363,-0.007790304,9.7950115
351524653242649,-0.103549495,-0.031162107,9.779818
351524673097881,-0.17166544,-0.012124238,9.784588
351524692953114,-0.17966877,-0.016790025,9.779774
351524712808347,-0.16901873,-0.018700458,9.774643
351524732663452,-0.13102898,-0.018222516,9.788476
351524752518557,-0.10802954,-0.046313956,9.847782
351524772373785,-0.15018189,-0.031110073,9.8518915
351524792229017,-0.15186295,0.0032363108,9.84325
351524812084122,-0.14303578,-0.0060973438,9.886375
351524831939201,-0.14956921,-0.024219126,9.891929
351524851794561,-0.15284413,-0.05090237,9.842102
351524871649922,-0.15687679,-0.03130836,9.788858
351524891505153,-0.15696089,0.0017855988,9.759289
351524911353534,-0.13248576,-0.0058502173,9.781885
351524931208767,-0.16452749,-0.016176319,9.765923
351524951063998,-0.1632863,-0.032993004,9.755636
351524970919102,-0.1374374,-0.099634506,9.744475
351524990774335,-0.15982334,-0.078843616,9.768815
351525010629438,-0.16945137,-0.038002443,9.789766
351525030483073,-0.1558433,-0.06817926,9.7952385
351525050338306,-0.27733314,-0.028153332,9.823331
351525070193537,-0.22966462,-0.036947064,9.849456
351525090048770,-0.15374134,-0.05744095,9.798096
351525109903875,-0.13224842,-0.041290585,9.701017
351525129751878,-0.14937115,-0.04907198,9.725829
351525149606980,-0.25511852,-0.032031946,9.911179
351525169461957,-0.2574331,-0.079142936,9.974641
351525189316932,-0.122082844,-0.069137104,9.9632225
351525209172036,-0.07911814,0.021836514,9.9598255
351525229027013,-0.060506586,-0.020708311,9.897139
351525248876880,-0.15988098,-0.057763714,9.747642
351525268731856,-0.26779577,-0.0064991363,9.658774
351525288586833,-0.16642937,-0.042082492,9.726726
351525308441680,-0.048782356,-0.14538436,9.782909
351525328302039,-0.032571938,-0.13959911,9.824278
351525348157144,-0.10279272,-0.06067905,9.778361
351525368012249,-0.1656907,-0.032961886,9.765161
351525387867354,-0.18411335,-0.088507555,9.791934
351525407722459,-0.13698368,-0.12935291,9.809683
351525427571346,-0.08786408,-0.093809314,9.8353815
351525447426195,-0.016362913,-0.047986124,9.859884
351525467281044,-0.020934269,-0.03441192,9.895828
351525487135893,-0.11661241,-0.04161664,9.885105
351525506990742,-0.1768302,-0.030920472,9.857287
351525526845591,-0.15070702,-0.06459548,9.797685
351525546697684,-0.11370272,-0.083336085,9.78234
351525566552405,-0.114180915,-0.085645616,9.796716
351525586407254,-0.10698408,-0.064524956,9.786782
351525606261975,-0.11090953,-0.02355378,9.772885
351525626118172,-0.090993024,-0.024812775,9.722272
351525645972893,-0.07246129,-0.06604959,9.724243
351525665827742,-0.11180424,-0.07795861,9.748953
351525685682591,-0.105991624,-0.043603003,9.807732
351525705537440,-0.11618195,-0.038872853,9.883165
351525725398975,-0.1573422,-0.060888276,9.940504
351525745253952,-0.2336488,-0.056421407,9.98018
351525765108801,-0.23968624,-0.084745795,9.959468
351525784963758,-0.19932303,-0.0826555,9.921609
351525804818606,-0.19269265,-0.06885043,9.848654
351525824673583,-0.18512058,-0.04124214,9.738428
351525844531807,-0.11330405,-0.0504563,9.658857
351525864386783,-0.09136102,-0.04880435,9.635833
351525884241760,-0.07996307,-0.07653151,9.630852
351525904096735,-0.060776792,-0.09096522,9.631066
351525923949951,-0.1447673,-0.084826425,9.6899395
351525943804928,-0.15088348,-0.08789845,9.782259
351525963659775,-0.16257861,-0.07939252,9.882777
351525983514752,-0.22661915,-0.08806737,9.923273
351526003369601,-0.23338643,-0.07403946,9.954104
351526023224578,-0.21127664,-0.074313596,9.96578
351526043076217,-0.19776754,-0.06738593,9.972128
351526062931066,-0.14493312,-0.0666011,9.928145
351526082785913,-0.1332279,-0.09688664,9.850176
351526102640761,-0.100614406,-0.09417645,9.799557
351526122495610,-0.06413585,-0.067834035,9.771621
351526142354882,-0.04110767,-0.06117792,9.736654
351526162209730,-0.083079375,-0.07348309,9.716179
351526182064707,-0.13817164,-0.059689697,9.744889
351526201919682,-0.11346076,-0.06472081,9.783562
351526221786916,-0.10203199,-0.059515163,9.787472
351526241642149,-0.15311497,-0.037414722,9.819329
351526261497510,-0.17784683,-0.014366279,9.866854
351526281352743,-0.13079059,-0.05690516,9.858383
351526301207976,-0.11784108,-0.052521273,9.856841
351526321063209,-0.11122434,-0.02708108,9.847101
351526340921392,-0.052566156,-0.06436088,9.831979
351526360776753,-0.081511594,-0.059758525,9.843772
351526380632114,-0.13895746,-0.035789248,9.834961
351526400487475,-0.111765526,-0.05619834,9.800713
351526420342836,-0.13560103,-0.079488,9.787293
351526440200507,-0.14436352,-0.041883197,9.798292
351526460055996,-0.08171349,-0.067359924,9.768417
351526479911485,-0.115638286,-0.08578547,9.7584915
351526499766974,-0.13129847,-0.09801319,9.733581
351526519621049,-0.087554485,-0.08869739,9.751707
351526539476538,-0.105198726,-0.048987124,9.783374
351526559331899,-0.11810827,-0.034662608,9.804953
351526579187388,-0.15768734,-0.07641819,9.837436
351526599042749,-0.18324034,-0.086253695,9.862701
351526618898238,-0.17316067,-0.09063825,9.871642
351526638756183,-0.15736045,-0.07652731,9.884488
351526658611672,-0.1745085,-0.08976343,9.866535
351526678467161,-0.19188198,-0.09908961,9.839205
351526698322627,-0.14563927,-0.06483187,9.81223
351526718178116,-0.08238641,-0.05249772,9.781006
351526738034041,-0.13508825,-0.02141877,9.775436
351526757889528,-0.16395873,-0.036170352,9.757236
351526777745145,-0.14911218,-0.057034064,9.750594
351526797600632,-0.13127737,-0.0421019,9.780868
351526817456120,-0.13430057,-0.043053653,9.806788
351526837311609,-0.17042804,-0.049568586,9.820136
351526857162675,-0.16449,-0.03887361,9.832575
351526877018035,-0.14707008,-0.03279203,9.866474
351526896873396,-0.16669561,-0.043347914,9.9052725
351526916728627,-0.19755398,-0.042638253,9.878632
351526936580696,-0.18652697,-0.044461597,9.828819
351526956436057,-0.15850495,-0.03400229,9.846261
351526976291416,-0.11764982,-0.055958953,9.8299
351526996146648,-0.16510667,-0.0439862,9.783584
351527016002009,-0.18492715,0.0032176427,9.750478
351527035849597,-0.13985464,-0.031090388,9.708711
351527055704829,-0.12973079,-0.076886825,9.699887
351527075559934,-0.15077278,-0.06129426,9.744142
351527095415037,-0.13659462,-0.050185923,9.74618
351527115270269,-0.15268221,-0.051352642,9.747585
351527135125374,-0.1460925,-0.032542232,9.81094
351527154972250,-0.12921764,-0.0374417,9.821239
351527174827226,-0.18060714,-0.04063613,9.819696
351527194682203,-0.22424844,-0.051664863,9.848413
351527214537050,-0.15184854,-0.09777661,9.842591
351527234388339,-0.11597185,-0.08796845,9.857525
351527254243188,-0.10921292,-0.062611885,9.83299
351527274098037,-0.10520617,-0.057039317,9.827227
351527293952886,-0.18610334,-0.036374975,9.810868
351527313807735,-0.17556177,-0.05324689,9.775997
351527333656236,-0.112722866,-0.05693767,9.766347
351527353511085,-0.09901053,-0.044483937,9.775981
351527373365806,-0.10479399,-0.079747476,9.754777
351527393220527,-0.1498095,-0.05566607,9.768667
351527413075248,-0.15538813,-0.043533582,9.801412
351527432929969,-0.14132231,-0.055087987,9.824906
351527452780850,-0.16814174,-0.066214874,9.857219
351527472635571,-0.19901778,-0.073391825,9.849711
351527492490164,-0.16043967,-0.09415819,9.894285
351527512344885,-0.15166406,-0.08706192,9.877384
351527532198684,-0.13257955,-0.05938859,9.865653
351527552053277,-0.10580017,-0.049156666,9.870277
351527571907870,-0.12596509,-0.03729131,9.877687
351527591762463,-0.11762212,-0.05072867,9.80578
351527611617056,-0.15389718,-0.031032551,9.79861
351527631471649,-0.14196397,-0.03759803,9.884184
351527651321426,-0.086828165,-0.077421986,9.875049
351527671175891,-0.11490945,-0.06383556,9.873638
351527691030228,-0.12031344,-0.026375657,9.915072
351527710884671,-0.108265474,-0.07655907,9.938907
351527730739136,-0.17001884,-0.08382345,9.964587
351527750602469,-0.20127375,-0.07423791,10.001589
351527770456932,-0.19494414,-0.08298776,10.041137
351527790311525,-0.1822326,-0.08399559,9.952145
351527810165988,-0.13157526,-0.081369065,9.90675
351527830024580,-0.12818496,-0.0750744,9.913421
351527849879173,-0.12740606,-0.09331583,10.014691
351527869733892,-0.13301393,-0.09904588,10.126169
351527889588484,-0.10027747,-0.023471551,10.141338
351527909443077,-0.08759277,0.020321239,10.088398
351527929297796,-0.13635531,0.004301375,10.073128
351527949154717,-0.20877607,-0.058008723,10.015655
351527969009438,-0.20345612,-0.07667158,9.974846
351527988864159,-0.12845689,-0.07818156,10.018484
351528008718749,-0.10331514,-0.0619826,10.058413
351528028573470,-0.18880202,-0.03847328,10.109028
351528048420730,-0.25529447,-0.03653175,10.099579
351528068275194,-0.21563171,-0.076616436,10.067146
351528088129787,-0.16082893,-0.11500147,10.116841
351528107984250,-0.12888347,-0.12151176,10.154252
351528127844505,-0.15211108,-0.084384166,10.186068
351528147699226,-0.19172755,-0.008732363,10.245589
351528167553817,-0.15233144,0.061847094,10.293481
351528187408409,-0.13323264,0.09022371,10.2867985
351528207263130,-0.09035766,0.1414606,10.193829
351528227117721,-0.08986454,0.07434493,10.246193
351528246985010,-0.10389792,0.024453744,10.2227745
351528266839859,-0.15888435,0.027111439,10.212706
351528286694834,-0.12902494,0.005536002,10.247169
351528306549810,-0.123283125,-0.07844919,10.281697
351528326404659,-0.16514678,-0.087037824,10.24115
351528346263407,-0.19898787,-0.040432714,10.240931
351528366118511,-0.21685703,-0.040649273,10.283974
351528385973488,-0.21842033,-0.0822119,10.279544
351528405828591,-0.19822754,-0.089181125,10.350694
351528425685866,-0.20697762,-0.020258594,10.441341
351528445540971,-0.16906393,-0.038050584,10.416892
351528465396202,-0.22669,-0.03808619,10.432428
351528485251306,-0.21040618,-0.02224456,10.416047
351528505106411,-0.09785123,0.002293688,10.485563
351528524961642,-0.081117846,0.13106193,10.4520855
351528544817051,-0.087756954,0.08266115,10.346952
351528564672284,-0.13980158,0.015494722,10.345597
351528584527515,-0.18086748,0.005892604,10.282604
351528604382619,-0.06492372,-0.042867046,10.394051
351528624237852,-0.092382096,-0.029808488,10.338817
351528644092126,-0.18339229,-0.014310023,10.337808
351528663947358,-0.2601152,-0.052742112,10.415869
351528683802591,-0.27064955,-0.050844364,10.443073
351528703657696,-0.22471818,-0.039970007,10.339072
351528723518207,-0.19436282,-0.01812952,10.37313
351528743373440,-0.2251656,-0.033536017,10.317156
351528763228797,-0.19417895,-0.12348051,10.379939
351528783084029,-0.1445763,-0.081767455,10.522036
351528802939390,-0.17196912,0.06359924,10.426767
351528822794621,-0.15919437,0.005118518,10.443221
351528842646476,-0.17012139,-0.016693464,10.409486
351528862501709,-0.12898858,-0.019577798,10.39737
351528882356940,-0.072405405,-0.021553885,10.418883
351528902212172,-0.10936344,0.043397065,10.384751
351528922067533,-0.13456316,0.041624177,10.341128
351528941915627,-0.13318758,-0.06358921,10.3319235
351528961770732,-0.12838383,-0.10758461,10.370057
351528981625837,-0.17238724,-0.05760155,10.417472
351529001480942,-0.16150126,5.95341E-5,10.414333
351529021336047,-0.12374647,0.011220076,10.37748
351529041191024,-0.11198257,0.05337967,10.377707
351529061037583,-0.09135305,0.018598745,10.385972
351529080892554,-0.17372291,-0.033979658,10.439977
351529100747403,-0.22684608,-0.009922572,10.455147
351529120602250,-0.17412922,-0.02525618,10.46353
351529140454670,-0.16199714,-0.06682088,10.473856
351529160309519,-0.18771684,-0.122459434,10.448735
351529180164366,-0.21561351,-0.057828326,10.447554
351529200019214,-0.14594239,-0.024607627,10.390619
351529219874063,-0.10483863,0.025323583,10.406292
351529239727643,-0.089787446,0.030249009,10.413643
351529259582363,-0.054732267,-0.02120962,10.389552
351529279437084,-0.12282847,-0.019559167,10.337293
351529299291933,-0.12665763,-0.05200594,10.344442
351529319146654,-0.11892051,-0.12020782,10.413758
351529339001375,-0.17507046,-0.124757074,10.467352
351529358856648,-0.19975999,-0.12489534,10.394916
351529378711497,-0.19982933,-0.011996239,10.573533
351529398566346,-0.03419755,0.26806596,10.655994
351529418421067,0.24793153,-0.11096329,10.19803
351529438275922,-0.24837334,-0.19716622,10.302422
351529458130771,-0.3793279,-0.029763166,10.676796
351529477985492,0.057306193,2.4604003E-4,10.160164
351529497840341,-0.0825261,-0.55268764,10.343896
351529517695190,-0.76696306,0.0011872847,10.79421
351529537550233,-0.0637948,0.074318446,10.105718
351529557405082,0.19309187,-0.58578426,10.168769
351529577259931,-0.63525504,0.21067874,10.990759
351529597114652,-0.095886104,0.09772531,10.074403
351529616969501,0.32334602,-0.40558553,10.351142
351529636824350,-0.19492577,0.04039429,10.623788
351529656672329,-0.3167033,0.16382122,10.536219
351529676526794,-0.25223103,0.20433246,10.4200115
351529696381387,-0.3686472,0.17557724,10.075444
351529716235980,-0.47921386,0.17264079,10.082331
351529736099090,-0.110489085,-0.23453322,10.032181
351529755953811,-0.37928408,-0.059689853,10.40676
351529775808530,-0.41763708,0.32793835,10.620253
351529795663250,-0.028397556,0.08274016,10.474959
351529815517971,-0.032750938,-0.18068475,10.690154
351529835372690,-0.04923764,-0.07745025,10.556692
351529855231079,-0.009535197,-0.13687448,10.268244
351529875085928,-0.28747866,-0.1752026,10.459474
351529894940775,-0.2924564,-0.0055945986,10.44928
351529914795623,-0.09502707,0.057783775,10.527647
351529934650600,-0.10890087,-0.114213474,10.483673
351529954512579,0.06870277,-0.23868962,10.028097
351529974367556,-0.22091044,-0.50626874,10.283091
351529994222661,-0.32547525,-0.19882303,10.641131
351530014077638,-0.057143044,-0.08959005,10.40897
351530033933669,-0.066341124,-0.30019012,10.171366
351530053788646,-0.09268053,-0.23268966,10.460941
351530073643751,-0.101066545,0.16089094,10.683968
351530093498721,-0.0037442036,0.017054401,10.072999
351530113353698,-0.38413957,-0.2937242,9.941555
351530133208801,-0.38485697,-0.25830942,10.003529
351530153062424,-0.21444233,-0.271199,10.153154
351530172917401,-0.16531183,-0.04947725,10.679698
351530192772376,0.066936895,0.0966505,10.701114
351530212627480,0.14036404,0.19039969,10.722912
351530232482457,-0.23701827,0.1440275,10.238271
351530252332093,-0.68165946,-0.39617497,9.569093
351530272186941,-1.3591897,-1.029405,9.760235
351530292041918,-1.0290686,-0.457683,10.328648
351530311896765,0.056481615,0.30894756,10.506007
351530331761743,0.6843676,0.94809777,10.303236
351530351616848,0.77888626,0.98821783,10.522912
351530371472081,0.94982445,0.984953,10.371625
351530391327314,0.80534863,0.5354422,10.056524
351530411182547,0.5716024,-0.0365979,9.613896
351530431037652,0.4502248,0.25920498,10.451772
351530450898237,0.8886371,0.99437827,10.894677
351530470753470,0.67612535,-0.16780424,9.614976
351530490608831,0.8091881,-0.028092638,9.801133
351530510464192,0.13139756,-0.6943127,9.921696
351530530319425,-0.5750459,-0.615699,10.282425
351530550169424,-0.6310435,-0.016658353,10.646993
351530570024657,-0.22364932,0.5027666,9.748202
351530589879890,0.7975857,0.75138545,9.965672
351530609735123,0.50481457,0.20354518,10.330347
351530629593628,-0.0459768,-0.650057,10.237001
351530649448861,-0.06913816,-0.9051908,9.993773
351530669304222,-0.30774033,-0.34090292,9.936273
351530689159455,-0.6785654,0.066012695,10.094595
351530709014688,-0.4351453,0.35759777,10.222295
351530728869921,-0.2624571,0.01752061,10.224673
351530748712014,-0.69690293,0.12525941,10.621915
351530768566991,-1.5614958,0.6850456,11.179015
351530788421947,-2.2052763,0.4188536,11.92716
351530808276923,-1.7094735,0.22491464,10.216268
351530828132028,1.877959,-7.315716,1.013126
351530847985309,0.93816996,-4.6766663,7.5645943
351530867840285,-0.23387735,5.0510345,12.257706
351530887695262,4.631064,5.057308,14.232011
351530907549996,3.1304433,3.1058807,13.90994
351530927404972,0.48084626,1.8634502,10.571138
351530947259949,0.8910126,0.58103114,8.256008
351530967108683,1.1809105,-0.36685225,7.929335
351530986963532,2.4714506,-0.09276289,10.333068
351531006818381,3.0438895,0.41167876,9.634227
351531026673230,3.959502,0.64179695,9.96506
351531046522853,0.023067776,0.7808713,11.431297
351531066377574,-4.1453524,0.42987728,10.311775
351531086232293,-5.42203,-1.1846832,8.820856
351531106087013,-2.7173266,-1.3590196,8.724445
351531125941734,-1.7547692,-0.52839565,8.319352
351531145798538,-1.7426934,-1.460324,8.311943
351531165653258,-0.8818061,-1.8318241,9.251228
351531185507979,-0.07506174,-1.199413,7.8563895
351531205362698,-1.380204,-2.3607984,6.1215024
351531225217418,-1.2737333,-2.3637407,8.263799
351531245072139,0.06640155,-0.37488994,11.284154
351531264917490,2.9624953,6.0932984,15.006749
351531284771954,3.418556,6.1721764,13.830555
351531304626419,1.8317362,1.011391,11.153725
351531324480882,6.625122,4.6608024,7.2715797
351531344342813,4.343419,0.73897564,4.8169637
351531364197406,6.612428,3.4047568,4.225545
351531384051999,1.4406377,5.0012784,14.620191
351531403906720,3.7358532,-4.1774993,3.923143
351531423761313,5.3277907,0.686254,8.916185
351531443622346,4.417071,7.7846227,14.103216
351531463477067,5.274106,7.3736897,9.840693
351531483331788,7.881774,6.159941,9.845665
351531503186509,7.2776833,3.9927297,11.336395
351531523041230,6.262244,1.6715182,11.848104
351531542895951,5.898926,-0.6121062,13.056048
351531562754670,4.9961753,1.4133859,12.84611
351531582609519,4.5764976,3.3823965,14.616416
351531602464368,6.127588,4.266393,13.863322
351531622319217,4.2851076,1.711923,10.166633
351531642176272,3.6971047,1.3709104,8.548579
351531662031249,2.3471303,2.2862794,6.720752
351531681886098,-1.2796749,2.4611695,9.114252
351531701741075,0.24579544,6.8397264,11.958898
351531721595924,3.7142024,2.0338645,9.230016
351531741450773,-2.7606792,3.7576451,7.6809874
351531761259328,-4.810744,5.7644734,7.560007
351531781113281,2.3575091,-2.5474663,9.147059
351531800967360,-2.7896562,-2.8069806,10.286189
351531820821312,-4.8475657,-3.0253682,8.502201
351531840675265,-4.3633385,-1.9486471,9.060701
351531860533739,-3.3244026,-3.3069205,9.538382
351531880387691,-2.079393,-3.5970407,9.354209
351531900241644,-2.8840363,-2.9697452,10.026532
351531920095723,-4.314832,-2.4570322,9.8236265
351531939966280,-3.9964883,-1.6687685,9.676603
351531959820617,-3.052045,-0.8619881,9.586383
351531979674952,-1.506903,-1.69259,8.550184
351531999529288,-1.0962777,-2.0808613,7.7934294
351532019383625,-1.3875159,-1.4062777,7.864479
351532039237832,0.16120023,-1.4624854,8.172033
351532059101409,0.85214615,-0.71632004,7.9973903
351532078956002,-0.31293955,-0.5782612,7.2042155
351532098810465,-1.2363558,-0.59394306,6.804406
351532118665057,-1.2172055,-4.9955425,13.974367
351532138519522,-9.262237,-3.546854E-4,10.948076
351532158378941,0.8926659,0.7964686,5.410365
351532178233533,2.7503006,-2.1542027,7.7723603
351532198088126,0.75455916,1.0881367,8.404603
351532217942717,-0.34864736,3.6156912,10.078471
351532237810252,0.13901642,2.134766,11.571217
351532257665229,2.675493,0.017649818,11.862119
351532277520206,-0.031227969,-2.5267003,8.149003
351532297375183,0.96181446,-6.2526827,5.807731
351532317230160,1.2918016,-7.252544,5.4656115
351532337085137,-0.5649036,-2.8222787,6.9990087
351532356946188,-0.16053933,0.9464932,10.05581
351532376801165,-0.29531464,0.4576269,10.643388
351532396656142,-0.59461576,0.9288291,10.878214
351532416511247,-0.3442698,2.0063426,11.5628
351532436366224,-0.2839049,-0.76995605,8.798358
351532456229659,-0.8384707,-2.5620792,6.269451
351532476084892,0.10985466,-2.0884042,7.225976
351532495940125,1.0162967,0.32443142,9.185489
351532515795230,-0.88781464,1.6431952,9.851486
351532535650715,-2.795385,3.5380912,10.169675
351532555505948,-2.876583,3.8945968,10.802445
351532575361181,-2.1112044,2.5100884,10.491361
351532595216414,-1.4084675,3.3870382,12.144985
351532615071647,0.16293699,3.4792702,13.067788
351532634926880,-0.636719,2.3297353,10.871462
351532654785903,-4.9940205,2.0486822,7.680855
351532674641264,-1.2442298,-0.089748785,8.87372
351532694496476,1.2172015,-2.0332623,7.7729583
351532714351837,1.0978299,-1.1782048,9.564847
351532734207070,-1.3083861,0.5444174,11.305253
351532754056531,-1.6695619,-0.7007003,9.276373
351532773911760,0.0064047067,-1.8703471,8.929332
351532793767121,0.43346962,-0.9845944,8.812929
351532813622352,-0.30332202,0.53967,8.67975
351532833477584,-1.3929466,1.0030456,9.723293
351532853332945,-0.58288234,-0.15065205,9.005323
351532873192748,0.7508456,-0.125489,8.461154
351532893045045,-0.043899607,0.43547654,8.97222
351532912900278,-0.9782173,1.9145191,10.890514
351532932755637,0.5466723,2.0182204,9.655116
351532952610644,1.6054015,0.4829701,9.032873
351532972466005,0.0706368,-1.2684237,10.664372
351532992321492,1.5076178,-2.500323,9.387838
351533012176852,1.8538862,-0.7180784,10.389437
351533032032213,-0.17717062,1.0916222,11.509246
351533051887092,-0.6502893,-0.43807912,8.80062
351533071742580,-0.033132445,-0.26834267,7.9783363
351533091598197,0.4053998,0.16145526,8.708164
351533111453684,0.61259717,0.10393135,8.421797
351533131309172,1.6356225,0.50205064,7.9061584
351533151164789,2.245468,1.1419046,8.125335
351533171016400,0.5986077,1.1635755,9.562678
351533190871888,-0.6527859,0.66647124,10.211032
351533210727377,-4.0323896,-0.0986444,10.829328
351533230582992,-5.6754766,0.08518133,11.598329
351533250435032,-0.72870165,2.2229674,13.040851
351533270290521,3.0910804,2.0243983,12.799281
351533290146136,0.4910254,-0.669687,10.376381
351533310001624,-0.75754315,-1.4265687,9.208055
351533329857241,0.14369363,-0.967528,8.975517
351533349687402,-0.005682436,0.08975111,9.170584
351533369541994,-0.7979351,0.516865,9.615322
351533389396587,-0.89989847,-0.08520801,9.811464
351533409251306,-0.4013051,-0.7515689,10.5046625
351533429105898,-0.434116,0.07261079,10.573157
351533448960619,-0.1273576,0.1569045,8.443741
351533468816568,0.27439973,-0.11110521,9.365639
351533488671160,-0.28545967,0.2827441,9.549778
351533508525753,-0.8593106,-0.2249804,9.103356
351533528380344,-0.44583067,-0.75626636,9.931074
351533548232589,-0.75394815,-0.06438278,11.405142
351533568087182,-1.5115526,0.63710845,11.975859
351533587941773,-1.3275218,-0.03859788,11.058678
351533607796365,-0.48882115,-0.5148668,9.670845
351533627650958,-0.01720873,-0.3387167,9.3164425
351533647505549,-0.084252276,-0.09049326,9.671532
351533667364586,-0.2708237,-0.15978383,9.616127
351533687219307,-0.31050378,-0.2862927,9.449774
351533707073898,-0.31396106,-0.24674734,9.472407
351533726928490,-0.4373118,-0.466666,9.434914
351533746783211,-0.322369,-0.5375207,9.274063
351533766633993,-0.3780256,-0.43432847,9.2605915
351533786488457,-0.5161869,-0.3224845,9.548663
351533806342922,-0.6366158,-0.29510197,9.744145
351533826197513,-0.6494824,-0.3029954,9.663532
351533846050216,-0.49909386,-0.39281544,9.528167
351533865904681,-0.42691308,-0.32057852,9.906679
351533885759144,-0.58592236,-0.21314612,10.063639
351533905613608,-0.6895883,-0.40041918,9.776961
351533925468201,-0.46756113,-0.4134136,9.511001
351533945322664,-0.42448395,-0.29812315,9.660614
351533965178818,-0.5604632,-0.20223211,10.040299
351533985033283,-0.6942034,-0.3403264,10.117359
351534004887874,-0.51873183,-0.35221463,9.833589
351534024742338,-0.33396056,-0.32016218,9.670956
351534044596931,-0.3104026,-0.34594658,9.707541
351534064452833,-0.44382656,-0.33466434,9.832208
351534084307425,-0.47212872,-0.35798958,9.791512
351534104162018,-0.33991385,-0.2765351,9.799022
351534124016737,-0.4144705,-0.19296096,9.921525
351534143876291,-0.48355,-0.19071913,9.950983
351534163730884,-0.41758952,-0.27977562,9.637027
351534183585603,-0.45563188,-0.33395028,9.645869
351534203440323,-0.025528569,-0.22219312,9.031059
351534223295044,0.037437864,0.08336534,9.542153
351534243149635,-0.6061381,-0.18211305,9.949456
351534263006068,-0.6338389,-0.4889452,9.874801
351534282860917,-0.6069209,-0.59499717,9.788649
351534302715636,-0.3366558,-0.35255483,9.593659
