UPTIMENANO,Ax,Ay,Az
670394737365,-1.1855347,9.754914999999999,-1.1136841999999998
670414594133,-1.2525953,9.644744000000001,-1.0562036
670434446906,-1.346001,9.604028999999999,-0.97237796
670454303674,-1.3507911,9.560919,-0.82388675
670474160442,-1.2358301999999999,9.558523,-0.8143066999999999
670494006403,-1.1352394,9.635164,-0.87897223
670513863043,-1.0274634,9.659114,-0.91729254
670533719555,-0.97956306,9.72857,-0.91250247
670553576195,-0.94603276,9.7740755,-0.8143066999999999
670573432707,-0.98195803,9.704619000000001,-0.82388675
670593289347,-1.0106983,9.491463000000001,-0.8310718
670613147418,-1.094524,9.608819,-0.9388476999999998
670633003930,-1.2070899,9.637559,-0.8598120000000001
670652860570,-1.2358301999999999,9.68067,-0.8310718
670672717210,-1.2741505,9.812395,-0.7664063
670692573722,-1.1975098,9.6615095,-0.7879615
670712424370,-1.0777588,9.580078,-0.852627
670732280754,-0.9963281999999999,9.635164,-0.8430469
670752137138,-0.8286768,9.599238,-0.81191164
670771993522,-0.6658155,9.72378,-0.7424561
670791849906,-0.62749517,9.901011,-0.7185059
670811703382,-0.7185059,9.721385,-0.76401126
670831559638,-0.8909473,9.551338000000001,-0.8478370000000001
670851416022,-1.0274634,9.424402,-0.8047266
670871272406,-1.0226734,9.594449000000001,-0.73048097
670891128790,-1.099314,9.848321,-0.76161623
670910991158,-1.1424243,9.836346,-0.8933423
670930847670,-1.1400293,9.70941,-0.94603276
670950704054,-1.1232642,9.5489435,-0.85741705
670970560438,-1.1088941,9.599238,-0.80233157
670990416822,-1.1136841999999998,9.627979,-0.7711963000000001
671010273937,-1.1208692,9.508227999999999,-0.8095166
671030130449,-1.1783496,9.64714,-0.8310718
671049986833,-1.2070899,9.704619000000001,-0.7089258
671069843217,-1.1567944,9.659114,-0.7783814
671089699601,-1.1543995,9.673484,-0.85023195
671109562531,-1.0777588,9.671089,-0.7759864000000001
671129419171,-1.0083033000000001,9.524992999999998,-0.7544312
671149275683,-1.0298585,9.630374,-0.7807764
671169132323,-1.0849438999999999,9.580078,-0.7568262
671188988835,-1.1280543,9.659114,-0.8143066999999999
671208849979,-1.1328443000000001,9.671089,-0.79993653
671228706619,-1.1663746000000002,9.654325,-0.80712163
671248563131,-1.1951148999999999,9.702225,-0.81909674
671268419771,-1.1855347,9.687855,-0.852627
671288276411,-1.1807446000000001,9.625584,-0.9029224
671308128917,-1.219065,9.697434,-0.8382569
671327985429,-1.223855,9.740545,-0.7951465
671347842069,-1.1711646,9.649534,-0.8861573
671367698581,-1.2118799999999998,9.651928999999999,-0.99393314
671387555221,-1.1711646,9.649534,-0.9148975
671407421613,-1.0609937,9.532178,-0.8430469
671427278381,-1.0777588,9.604028999999999,-0.87178713
671447135149,-1.0777588,9.639954,-0.8981324
671466991917,-1.0729688,9.635164,-0.9196875
671486848685,-1.1112891000000003,9.795630000000001,-0.89573735
671506706915,-1.1735597,9.623189,-0.87418216
671526563811,-1.2310401000000002,9.623189,-0.86939216
671546420579,-1.2022998,9.687855,-0.84065187
671566277347,-1.1687696,9.592053,-0.855022
671586134243,-1.2286451,9.695039999999999,-0.9244776
671605992929,-1.2286451,9.73815,-0.8382569
671625849825,-1.1496094,9.697434,-0.9244776
671645706721,-1.1136841999999998,9.486672,-0.84544194
671665563617,-1.101709,9.402847,-0.8885523000000001
671685420513,-1.1496094,9.584868,-0.89573735
671705283795,-1.1304493,9.685459,-0.88376224
671725140819,-1.1304493,9.778865,-0.8933423
671744997971,-1.1232642,9.807606,-0.92926764
671764854995,-1.1064991000000002,9.5489435,-0.9388476999999998
671784712147,-1.1304493,9.479486999999999,-0.93405765
671804564964,-1.089734,9.601633999999999,-0.82388675
671824421988,-1.0801538,9.683064,-0.8382569
671844279012,-1.0633887,9.73815,-0.86220706
671864136036,-1.0801538,9.637559,-0.91729254
671883993060,-1.1496094,9.666299,-0.94603276
671903852222,-1.1543995,9.630374,-0.8885523000000001
671923709374,-1.0777588,9.637559,-0.91250247
671943566398,-1.0777588,9.5633135,-0.9580079
671963423422,-1.1472143999999997,9.601633999999999,-0.99393314
671983280574,-1.219065,9.685459,-0.9029224
672003140048,-1.2022998,9.800421,-0.8478370000000001
672022997200,-1.1160791,9.70941,-0.90771246
672042854352,-1.096919,9.616004,-0.9699829
672062711504,-1.1256591999999999,9.596844,-1.0178833
672082568656,-1.1496094,9.659114,-0.99393314
672102419055,-1.1304493,9.565708,-0.9364527
672122276079,-1.1687696,9.592053,-0.95561284
672142132975,-1.1951148999999999,9.659114,-0.95561284
672161989999,-1.1208692,9.716595,-1.0322535
672181846895,-1.0418334999999999,9.833950999999999,-1.0801538
672201699694,-0.9484278,9.5489435,-0.9867481
672221556590,-1.0370435,9.448353,-1.0442286
672241413614,-1.223855,9.659114,-0.98435307
672261270510,-1.1855347,9.6686945,-0.87178713
672281127406,-1.1591895,9.75252,-0.8885523000000001
672300977676,-1.1232642,9.75731,-0.93405765
672320834444,-1.0825489,9.659114,-1.0083033000000001
672340691212,-1.0226734,9.639954,-0.9412427
672360547980,-0.96040285,9.505833,-0.8646021
672380404620,-1.0442286,9.510622999999999,-0.91250247
672400254311,-1.1687696,9.70941,-0.91729254
672420110823,-1.1112891000000003,9.807606,-0.8047266
672439959190,-1.0849438999999999,9.78605,-0.90771246
672459815830,-1.0825489,9.589659,-0.99393314
672479672342,-1.0322535,9.529783,-1.0154883
672499517064,-0.97237796,9.616004,-0.87178713
672519373448,-1.0011181999999998,9.673484,-0.79754156
672539229704,-1.0418334999999999,9.702225,-0.83586186
672559086088,-1.0178833,9.733359,-0.86939216
672578942472,-0.974773,9.673484,-0.91010743
672598795107,-0.95561284,9.592053,-0.852627
672618651363,-1.0059083,9.627979,-0.855022
672638507619,-1.0130934,9.663903999999999,-0.8143066999999999
672658363747,-1.0059083,9.702225,-0.86220706
672678220003,-0.97237796,9.687855,-0.8430469
672698076845,-0.9484278,9.685459,-0.9268726
672717933101,-0.9867481,9.635164,-0.8382569
672737789357,-0.9987232,9.649534,-0.84065187
672757645485,-0.96040285,9.604028999999999,-0.7448511
672777501741,-1.0035132,9.7142,-0.9053174
672797360636,-1.096919,9.685459,-0.84065187
672817216892,-1.1567944,9.721385,-0.8262818000000001
672837073148,-1.2454101999999998,9.72857,-0.8143066999999999
672856929404,-1.1687696,9.560919,-0.89573735
672876785660,-1.1639795,9.666299,-1.0729688
672896639415,-1.2046948999999998,9.632769,-0.9963281999999999
672916495415,-1.1639795,9.616004,-0.92208254
672936351543,-1.1999048,9.659114,-0.8646021
672956207671,-1.1448194,9.608819,-0.99393314
672976063799,-1.1687696,9.637559,-1.1088941
672995928399,-1.1639795,9.704619000000001,-0.974773
673015784655,-1.0322535,9.479486999999999,-0.8861573
673035641039,-1.0035132,9.496253,-0.9915381
673055497295,-1.096919,9.7142,-0.9963281999999999
673075353679,-1.089734,9.718989,-0.90771246
673095214463,-1.094524,9.867481,-0.91729254
673115070847,-1.101709,9.704619000000001,-0.9364527
673134927231,-1.089734,9.632769,-0.9915381
673154783615,-1.1160791,9.558523,-0.9053174
673174639999,-1.1064991000000002,9.515413,-0.9268726
673194497655,-1.1448194,9.618399,-0.8646021
673214354040,-1.101709,9.695039999999999,-0.87178713
673234210423,-1.0633887,9.848321,-0.974773
673254066807,-1.0154883,9.750125,-0.92926764
673273923192,-0.9580079,9.592053,-0.91250247
673293784737,-1.0106983,9.515413,-0.8909473
673313641249,-1.0106983,9.582474000000001,-0.8310718
673333497890,-1.0490186000000001,9.740545,-0.80233157
673353354401,-0.9627979,9.716595,-0.7807764
673373215856,-0.9029224,9.654325,-0.9029224
673393072497,-0.974773,9.6615095,-0.90052736
673412929136,-0.9388476999999998,9.632769,-0.852627
673432785776,-0.9388476999999998,9.639954,-0.8334668
673452642417,-0.9508228000000001,9.697434,-0.8430469
673472498928,-1.0609937,9.6758795,-0.9053174
673492360302,-1.1088941,9.795630000000001,-0.852627
673512217071,-0.99393314,9.604028999999999,-0.8334668
673532073838,-0.98914313,9.527389,-0.87418216
673551930606,-1.0705738,9.534574000000001,-0.9244776
673571787375,-1.0705738,9.575289,-0.8861573
673591649577,-1.1041040000000002,9.759705,-0.9029224
673611506473,-1.0538087,9.6686945,-0.84065187
673631363370,-1.0777588,9.72378,-0.9436377
673651220393,-1.0490186000000001,9.726174,-0.89573735
673671077289,-0.9915381,9.642349000000001,-0.90771246
673690934186,-1.1136841999999998,9.687855,-0.9196875
673710801558,-1.1424243,9.551338000000001,-0.8382569
673730658710,-1.1472143999999997,9.532178,-0.93405765
673750515863,-1.1328443000000001,9.639954,-0.8933423
673770373014,-1.0035132,9.627979,-0.97956306
673790225221,-1.0346485,9.793235000000001,-0.98195803
673810082374,-1.0346485,9.879456,-0.89573735
673829939525,-1.0130934,9.589659,-0.8669971
673849796549,-1.0609937,9.524992999999998,-0.93405765
673869653702,-1.1280543,9.639954,-0.93405765
673889511864,-1.089734,9.70941,-0.8646021
673909369016,-1.0370435,9.73815,-0.88376224
673929226169,-1.0083033000000001,9.683064,-0.91250247
673949083448,-1.0514137,9.651928999999999,-1.0083033000000001
673968940600,-1.0562036,9.637559,-0.96758795
673988797753,-1.0442286,9.639954,-0.9244776
674008660822,-1.0705738,9.577683,-0.84544194
674028518230,-1.1232642,9.635164,-0.90052736
674048375511,-1.1064991000000002,9.82437,-0.97237796
674068232918,-1.0394385,9.718989,-0.9244776
674088078238,-1.0298585,9.608819,-0.90771246
674107935263,-1.0633887,9.457932000000001,-0.88376224
674127792286,-1.1064991000000002,9.596844,-0.9651929
674147649310,-1.1280543,9.867481,-0.90052736
674167506335,-0.974773,9.704619000000001,-0.7807764
674187356982,-1.0130934,9.64714,-0.8669971
674207213878,-1.0490186000000001,9.572892999999999,-0.8598120000000001
674227070775,-1.0298585,9.666299,-1.0130934
674246927670,-1.0322535,9.666299,-0.87178713
674266784566,-0.9508228000000001,9.687855,-0.8286768
674286641463,-0.97956306,9.596844,-0.8598120000000001
674306487782,-0.98435307,9.656719,-0.9148975
674326344422,-0.9436377,9.659114,-0.87418216
674346201191,-0.9268726,9.726174,-0.8598120000000001
674366057830,-0.91729254,9.613608000000001,-0.8286768
674385906813,-0.98435307,9.608819,-0.90052736
674405763326,-1.0130934,9.70941,-0.9029224
674425619837,-0.9651929,9.742939999999999,-0.8262818000000001
674445472394,-0.9699829,9.826766000000001,-0.8669971
674465328907,-0.9651929,9.6758795,-0.85023195
674485183857,-1.0083033000000001,9.5561285,-0.9627979
674505040369,-1.0298585,9.620794,-0.90771246
674524896754,-1.0059083,9.606423,-0.86220706
674544753137,-1.0178833,9.625584,-0.8861573
674564609649,-1.0274634,9.702225,-0.8909473
674584466034,-1.0106983,9.742939999999999,-0.9268726
674604320661,-0.9915381,9.78605,-0.95561284
674624177045,-1.0154883,9.711803999999999,-0.92926764
674644033430,-1.0585986,9.5633135,-0.90771246
674663889813,-1.0514137,9.474698,-0.87418216
674683745191,-1.0873389,9.697434,-0.8885523000000001
674703601576,-1.0442286,9.77168,-0.8143066999999999
674723457831,-0.9412427,9.7740755,-0.8885523000000001
674743314215,-0.9268726,9.685459,-0.99393314
674763170472,-0.9436377,9.616004,-0.9484278
674783026855,-1.0322535,9.659114,-0.86939216
674802879471,-1.0490186000000001,9.613608000000001,-0.8095166
674822735728,-1.0681788,9.587264,-0.87178713
674842591983,-1.1304493,9.716595,-0.91010743
674862448239,-1.0250684,9.745335,-0.89573735
674882304368,-0.9532178,9.77647,-0.9268726
674902156667,-0.9532178,9.690249,-0.855022
674922012795,-0.98435307,9.462723,-0.8765772
674941868924,-1.1184741000000002,9.558523,-0.8646021
674961725051,-1.1807446000000001,9.778865,-0.8262818000000001
674981587725,-1.1160791,9.702225,-0.83586186
675001443854,-1.0250684,9.707015,-0.9412427
675021300109,-0.97956306,9.558523,-0.9364527
675041156365,-1.0178833,9.666299,-0.98435307
675061012622,-1.0035132,9.608819,-0.8095166
675080868749,-0.9029224,9.678274,-0.8167017
675100706774,-0.93405765,9.75731,-0.7376661
675120562647,-0.9268726,9.651928999999999,-0.82388675
675140418518,-0.97237796,9.666299,-0.96758795
675160274262,-0.8813671999999999,9.637559,-0.8813671999999999
675180130135,-0.86220706,9.539363,-0.76880133
675199989182,-0.9867481,9.580078,-0.76401126
675219845054,-1.0274634,9.630374,-0.8765772
675239700927,-1.0609937,9.7142,-0.96758795
675259556798,-1.0729688,9.908196,-0.85023195
675279416852,-1.0106983,9.77647,-0.7951465
675299272853,-0.97956306,9.671089,-0.9699829
675319128852,-1.099314,9.565708,-1.0226734
675338984852,-1.2046948999999998,9.575289,-0.9867481
675358840853,-1.2621753,9.592053,-0.855022
675378696852,-1.1735597,9.575289,-0.7951465
675398554455,-1.1088941,9.637559,-0.98435307
675418410328,-1.0418334999999999,9.637559,-1.1160791
675438266327,-1.0298585,9.754914999999999,-1.0274634
675458122327,-1.0274634,9.627979,-0.9388476999999998
675477978328,-1.1041040000000002,9.601633999999999,-1.0250684
675497838836,-1.1903248,9.678274,-0.9627979
675517694964,-1.1567944,9.606423,-0.9196875
675537550965,-1.1567944,9.730965,-0.9268726
675557407092,-1.0322535,9.630374,-0.97237796
675577272442,-0.98914313,9.505833,-1.0825489
675597128827,-1.094524,9.613608000000001,-1.0083033000000001
675616985210,-1.089734,9.656719,-0.9580079
675636841466,-1.099314,9.759705,-0.97956306
675656697851,-1.1280543,9.769285,-0.9484278
675676554234,-1.0777588,9.6686945,-0.98914313
675696419622,-1.0609937,9.750125,-1.0346485
675716276135,-1.0490186000000001,9.544153,-0.98914313
675736132646,-1.1088941,9.400452,-1.0106983
675755989158,-1.1663746000000002,9.64714,-0.9699829
675775845671,-1.0873389,9.718989,-1.0011181999999998
675795697152,-1.0106983,9.793235000000001,-1.0705738
675815553664,-1.1041040000000002,9.750125,-1.0346485
675835410049,-1.1088941,9.639954,-0.9867481
675855266560,-1.0083033000000001,9.649534,-1.0274634
675875123072,-0.97237796,9.613608000000001,-1.0466236
675894979457,-1.096919,9.620794,-1.0514137
675914835096,-1.1496094,9.589659,-0.8909473
675934691608,-1.0466236,9.654325,-0.97956306
675954547993,-0.98914313,9.601633999999999,-0.96758795
675974404376,-0.9388476999999998,9.577683,-1.0705738
675994269208,-0.99393314,9.616004,-1.0250684
676014125721,-0.9963281999999999,9.73815,-0.9532178
676033982360,-1.0442286,9.75252,-0.8861573
676053838872,-1.0777588,9.726174,-0.98195803
676073695385,-1.0729688,9.673484,-0.9508228000000001
676093551481,-1.0873389,9.642349000000001,-0.9867481
676113407993,-1.0514137,9.560919,-0.9436377
676133264634,-1.1088941,9.584868,-0.9963281999999999
676153121273,-1.1256591999999999,9.565708,-1.0083033000000001
676172977785,-1.0538087,9.639954,-0.977168
676192834426,-1.0705738,9.78605,-0.97956306
676212686157,-1.0562036,9.651928999999999,-0.96758795
676232542669,-1.0514137,9.671089,-0.98195803
676252399310,-1.1088941,9.721385,-0.9532178
676272255821,-1.1304493,9.508227999999999,-0.97237796
676292109324,-1.2046948999999998,9.572892999999999,-0.98435307
676311965837,-1.2118799999999998,9.642349000000001,-0.95561284
676331822348,-1.1400293,9.666299,-0.9867481
676351678860,-1.096919,9.814791,-0.97237796
676371535373,-1.0633887,9.683064,-0.93405765
676391389865,-1.1184741000000002,9.64714,-0.977168
676411246377,-1.1448194,9.539363,-0.90052736
676431102890,-1.0729688,9.513017999999999,-0.9651929
676450951535,-1.1280543,9.697434,-0.91010743
676470808047,-1.1184741000000002,9.764495,-0.9029224
676490664560,-1.1352394,9.82437,-0.97956306
676510524661,-1.0633887,9.70941,-0.9627979
676530381173,-0.98914313,9.481883,-0.93405765
676550237814,-1.089734,9.474698,-0.9963281999999999
676570094325,-1.2022998,9.601633999999999,-0.95561284
676589947607,-1.214275,9.733359,-0.87418216
676609804248,-1.1112891000000003,9.711803999999999,-0.81191164
676629660759,-1.1208692,9.718989,-0.99393314
676649517399,-1.094524,9.644744000000001,-1.0035132
676669373912,-1.0562036,9.659114,-0.93405765
676689222877,-1.0801538,9.616004,-0.9148975
676709079133,-1.219065,9.639954,-0.92208254
676728935390,-1.2406201000000001,9.654325,-0.8669971
676748791645,-1.2022998,9.671089,-0.91729254
676768647901,-1.1088941,9.649534,-0.9532178
676788504158,-1.099314,9.659114,-1.1064991000000002
676808357457,-1.1184741000000002,9.580078,-0.8933423
676828213713,-1.1496094,9.5633135,-0.95561284
676848069970,-1.2334352,9.623189,-0.9412427
676867926097,-1.1496094,9.642349000000001,-0.9436377
676887783005,-1.1304493,9.754914999999999,-0.9508228000000001
676907639134,-1.099314,9.716595,-0.8861573
676927495389,-1.0729688,9.726174,-0.9316626
676947351517,-1.0873389,9.666299,-0.9627979
676967207646,-1.0346485,9.572892999999999,-0.89573735
676987063901,-1.094524,9.592053,-0.8095166
677006926947,-1.1687696,9.721385,-0.8430469
677026783332,-1.1376343,9.632769,-0.8885523000000001
677046639587,-1.1783496,9.77168,-0.94603276
677066495843,-1.1112891000000003,9.632769,-0.8861573
677086352100,-1.0490186000000001,9.510622999999999,-0.90771246
677106204795,-1.0801538,9.611214,-0.8885523000000001
677126061051,-1.1041040000000002,9.659114,-0.9029224
677145917180,-1.089734,9.697434,-0.9244776
677165773435,-1.1208692,9.683064,-0.90771246
677185632458,-1.1711646,9.606423,-0.98914313
677205488843,-1.2022998,9.6686945,-0.95561284
677225345098,-1.1280543,9.599238,-0.9029224
677245201354,-1.094524,9.616004,-0.96758795
677265057611,-1.096919,9.683064,-0.9029224
677284913866,-1.0873389,9.711803999999999,-0.9580079
677304767896,-1.1256591999999999,9.764495,-0.95561284
677324624281,-1.0849438999999999,9.630374,-0.90052736
677344480536,-1.0657837,9.536968,-0.89573735
677364336792,-1.0873389,9.453142,-0.8598120000000001
677384193177,-1.1855347,9.707015,-0.9412427
677404051385,-1.1807446000000001,9.865086,-0.8646021
677423907641,-1.0562036,9.70941,-0.87178713
677443763898,-1.1208692,9.616004,-0.9388476999999998
677463620153,-1.1256591999999999,9.553733,-0.9053174
677483482322,-1.1232642,9.630374,-0.91729254
677503338707,-1.101709,9.671089,-0.8262818000000001
677523195090,-1.1567944,9.596844,-0.8598120000000001
677543051474,-1.22625,9.673484,-0.9364527
677562907987,-1.1256591999999999,9.635164,-0.9196875
677582764370,-1.0825489,9.623189,-0.974773
677602627032,-1.1376343,9.627979,-0.87178713
677622483673,-1.1136841999999998,9.515413,-0.80712163
677642340312,-1.1807446000000001,9.596844,-0.9029224
677662196824,-1.2502003000000002,9.687855,-0.8885523000000001
677682053465,-1.22625,9.733359,-0.8813671999999999
677701912743,-1.2478052,9.821976,-0.79035646
677721769383,-1.1663746000000002,9.589659,-0.8262818000000001
677741626152,-1.1975098,9.568104,-0.9699829
677761482791,-1.2597803,9.651928999999999,-0.8430469
677781331489,-1.2358301999999999,9.589659,-0.84065187
677801188002,-1.3052857,9.659114,-0.852627
677821044513,-1.3052857,9.699829,-0.8382569
677840901025,-1.3196558,9.721385,-0.9627979
677860757538,-1.2861254999999998,9.78605,-0.91729254
677880614049,-1.2358301999999999,9.6686945,-0.9412427
677900469609,-1.2597803,9.453142,-0.8598120000000001
677920326122,-1.3555812,9.515413,-0.8047266
677940182633,-1.2813355,9.666299,-0.7448511
677960039017,-1.0322535,9.75252,-0.7592211999999999
677979895530,-0.87178713,9.7740755,-0.83586186
677999754326,-0.90771246,9.726174,-0.91250247
678019610838,-0.9699829,9.606423,-0.79754156
678039467351,-1.0035132,9.639954,-0.728086
678059323862,-1.0442286,9.656719,-0.7424561
678079180734,-1.1496094,9.565708,-0.76161623
678099037247,-1.2693603999999998,9.735755000000001,-0.732876
678118893886,-1.2118799999999998,9.766891000000001,-0.7568262
678138750398,-1.1208692,9.635164,-0.8167017
678158607039,-1.099314,9.508227999999999,-0.80712163
678178463550,-1.1328443000000001,9.546548,-0.86220706
678198309584,-1.2693603999999998,9.778865,-0.7807764
678218165841,-1.2669654,9.77647,-0.732876
678238022096,-1.2669654,9.6615095,-0.7664063
678257878480,-1.2933106,9.613608000000001,-0.7951465
678277734737,-1.1831397,9.524992999999998,-0.7879615
678297585146,-1.1855347,9.613608000000001,-0.80712163
678317441402,-1.1951148999999999,9.671089,-0.8310718
678337297531,-1.22146,9.618399,-0.81191164
678357153786,-1.2525953,9.697434,-0.7759864000000001
678377010042,-1.1831397,9.64714,-0.7664063
678396866171,-1.1448194,9.754914999999999,-0.8334668
678416723962,-1.099314,9.718989,-0.7568262
678436580090,-1.0633887,9.577683,-0.7041358
678456436347,-1.1208692,9.553733,-0.74006104
678476286976,-1.219065,9.589659,-0.7783814
678496144086,-1.2717555,9.6686945,-0.7041358
678516000215,-1.1304493,9.778865,-0.66342044
678535856470,-0.974773,9.716595,-0.7041358
678555712598,-0.98435307,9.75252,-0.8047266
678575568855,-1.0394385,9.659114,-0.7664063
678595426791,-1.0514137,9.541758999999999,-0.6777906
678615283047,-1.089734,9.620794,-0.6514453
678635139304,-1.1160791,9.616004,-0.72569096
678654995559,-1.1424243,9.651928999999999,-0.7831714
678674851815,-1.1112891000000003,9.735755000000001,-0.7568262
678694708072,-1.0274634,9.718989,-0.7664063
678714558823,-1.0466236,9.642349000000001,-0.7424561
678734414951,-1.1136841999999998,9.707015,-0.70174074
678754271080,-1.1088941,9.673484,-0.75203615
678774127207,-1.0849438999999999,9.616004,-0.7496411000000001
678793977520,-1.1591895,9.759705,-0.74006104
678813833649,-1.1711646,9.6615095,-0.7041358
678833689648,-1.089734,9.560919,-0.77359134
678853545648,-1.1208692,9.637559,-0.8167017
678873401649,-1.1280543,9.613608000000001,-0.7831714
678893257648,-1.1256591999999999,9.673484,-0.77359134
678913112490,-1.1400293,9.745335,-0.7424561
678932968491,-1.1304493,9.70941,-0.8047266
678952824362,-1.1424243,9.72378,-0.7927515
678972680234,-1.0585986,9.539363,-0.732876
678992536107,-1.094524,9.568104,-0.8598120000000001
679012393331,-1.2022998,9.77647,-0.8262818000000001
679032249203,-1.1711646,9.793235000000001,-0.75203615
679052105204,-1.0753639,9.759705,-0.76880133
679071961075,-1.0681788,9.611214,-0.8430469
679091816080,-1.1448194,9.510622999999999,-0.8598120000000001
679111672081,-1.1759547,9.632769,-0.7783814
679131527952,-1.0873389,9.587264,-0.7711963000000001
679151383952,-1.1208692,9.673484,-0.84544194
679171239825,-1.1759547,9.6686945,-0.81191164
679191095824,-1.1591895,9.656719,-0.8430469
679210957224,-1.1543995,9.742939999999999,-0.80233157
679230813225,-1.0705738,9.589659,-0.79035646
679250669352,-1.089734,9.534574000000001,-0.87418216
679270525352,-1.1855347,9.733359,-0.8167017
679290381353,-1.1879296999999998,9.7740755,-0.77359134
679310235554,-1.1304493,9.72378,-0.7664063
679330091554,-1.0801538,9.639954,-0.8334668
679349947555,-1.1112891000000003,9.594449000000001,-0.95561284
679369803682,-1.1711646,9.541758999999999,-0.88376224
679389658688,-1.1663746000000002,9.592053,-0.7927515
679409514689,-1.2070899,9.618399,-0.76161623
679429370688,-1.1687696,9.575289,-0.8334668
679449226560,-1.1496094,9.666299,-0.9436377
679469082561,-1.089734,9.742939999999999,-0.9316626
679488938560,-1.0154883,9.814791,-0.8669971
679508801277,-1.0083033000000001,9.711803999999999,-0.81191164
679528657406,-1.099314,9.498648,-0.87178713
679548513533,-1.3292358999999998,9.632769,-0.974773
679568369661,-1.3507911,9.558523,-0.83586186
679588225662,-1.3244458000000001,9.584868,-0.86939216
679608090237,-1.3388159,9.778865,-0.94603276
679627946621,-1.2286451,9.671089,-0.98914313
679647802878,-1.1831397,9.6686945,-0.9867481
679667659261,-1.1687696,9.589659,-0.9484278
679687519881,-1.22146,9.510622999999999,-1.0083033000000001
679707376394,-1.2765454,9.795630000000001,-0.95561284
679727232777,-1.1855347,9.72378,-0.87897223
679747089161,-1.1807446000000001,9.611214,-0.977168
679766945674,-1.1687696,9.639954,-0.9532178
679786802057,-1.0466236,9.515413,-0.9532178
679806652815,-1.0250684,9.596844,-0.9987232
679826509200,-1.0921290000000001,9.716595,-0.91250247
679846365455,-1.1064991000000002,9.711803999999999,-0.9029224
679866221839,-1.099314,9.77168,-0.92208254
679886078096,-1.1041040000000002,9.618399,-1.0202783000000002
679905934070,-1.101709,9.534574000000001,-1.094524
679925790326,-1.1088941,9.522598,-0.91729254
679945646583,-1.0562036,9.654325,-0.9268726
679965502838,-0.99393314,9.656719,-0.8885523000000001
679985359094,-1.0035132,9.666299,-0.9963281999999999
680005215351,-1.0729688,9.656719,-1.0106983
680025074881,-0.9436377,9.623189,-0.88376224
680044931265,-0.81909674,9.316627,-0.87897223
680064787650,-1.0921290000000001,9.996812,-1.0921290000000001
680084644033,-1.1256591999999999,9.924961,-0.79035646
680104507305,-0.98914313,9.608819,-0.8646021
680124363818,-1.1088941,9.654325,-0.9508228000000001
680144220329,-1.214275,9.704619000000001,-1.1472143999999997
680164076969,-1.1328443000000001,9.608819,-0.8765772
680183933482,-1.0442286,9.570497999999999,-0.97956306
680203789118,-1.1831397,9.683064,-1.0250684
680223645630,-1.1831397,9.608819,-0.99393314
680243502271,-1.0705738,9.687855,-1.0202783000000002
680263358782,-1.0585986,9.754914999999999,-1.0466236
680283215422,-1.0801538,9.575289,-0.9915381
680303071935,-1.1663746000000002,9.666299,-1.0178833
680322920716,-1.1639795,9.553733,-0.9699829
680342777228,-1.1591895,9.503438000000001,-0.9915381
680362633613,-1.1831397,9.683064,-1.0250684
680382489996,-1.1041040000000002,9.663903999999999,-1.0657837
680402342389,-1.1376343,9.7812605,-1.0322535
680422198646,-1.1232642,9.766891000000001,-0.9651929
680442055029,-1.1304493,9.5633135,-1.0346485
680461911285,-1.1903248,9.594449000000001,-0.95561284
680481767542,-1.1639795,9.501043,-0.9532178
680501624180,-1.214275,9.637559,-1.0178833
680521480564,-1.1400293,9.733359,-0.91729254
680541336949,-1.089734,9.75731,-1.0083033000000001
680561193332,-1.1496094,9.769285,-0.98435307
680581049588,-1.0729688,9.596844,-0.9532178
680600905973,-1.1232642,9.529783,-0.9699829
680620757955,-1.1903248,9.587264,-0.91250247
680640614211,-1.1927198,9.618399,-0.9508228000000001
680660470468,-1.1400293,9.695039999999999,-0.9627979
680680326723,-1.0729688,9.733359,-0.96758795
680700183380,-1.0490186000000001,9.6686945,-0.9316626
680720039509,-1.089734,9.601633999999999,-0.9915381
680739895764,-1.1184741000000002,9.580078,-0.9364527
680759752020,-1.1136841999999998,9.699829,-0.8813671999999999
680779608149,-1.1136841999999998,9.611214,-0.8310718
680799459918,-1.1208692,9.637559,-0.9699829
680819316046,-1.0873389,9.625584,-0.93405765
680839172175,-1.0346485,9.685459,-0.9053174
680859028302,-1.0298585,9.618399,-0.85741705
680878884430,-1.0753639,9.551338000000001,-0.93405765
680898740559,-1.1975098,9.721385,-0.93405765
680918592809,-1.1711646,9.718989,-0.88376224
680938448809,-1.1112891000000003,9.7740755,-0.8885523000000001
680958304810,-1.089734,9.721385,-0.9484278
680978160809,-1.0609937,9.671089,-1.0083033000000001
680998017619,-1.1112891000000003,9.64714,-0.9580079
681017873620,-1.0705738,9.558523,-0.90771246
681037729619,-1.1328443000000001,9.520203,-0.9412427
681057585491,-1.1663746000000002,9.697434,-0.89573735
681077441492,-1.0873389,9.7621,-0.9508228000000001
681097297491,-0.9963281999999999,9.687855,-1.0250684
681117158989,-1.0681788,9.75731,-1.0849438999999999
681137015118,-1.1160791,9.565708,-0.94603276
681156871245,-1.096919,9.536968,-0.9436377
681176727245,-1.1160791,9.623189,-0.974773
681196583374,-1.1424243,9.654325,-0.94603276
681216445102,-1.1543995,9.692644,-0.9196875
681236301358,-1.0849438999999999,9.651928999999999,-0.9627979
681256157615,-1.0490186000000001,9.707015,-0.97956306
681276013742,-1.0250684,9.685459,-0.92926764
681295865108,-1.0753639,9.64714,-0.974773
681315721237,-1.1711646,9.575289,-0.88376224
681335577364,-1.1831397,9.627979,-0.91729254
681355433620,-1.1424243,9.671089,-0.9412427
681375289749,-1.1064991000000002,9.654325,-0.91729254
681395145876,-1.1376343,9.625584,-0.9029224
681415003668,-1.0849438999999999,9.5633135,-0.89573735
681434859797,-1.0035132,9.649534,-0.9484278
681454716052,-1.0274634,9.78605,-0.94603276
681474572180,-1.0250684,9.7142,-0.85023195
681494428309,-1.0106983,9.651928999999999,-0.82388675
681514292898,-0.9196875,9.690249,-0.8909473
681534149282,-0.9196875,9.587264,-0.9029224
681554005539,-0.91250247,9.671089,-0.8981324
681573861922,-0.94603276,9.707015,-0.8669971
681593703385,-0.97956306,9.618399,-0.9053174
681613559386,-1.0609937,9.627979,-0.98435307
681633415513,-1.0681788,9.627979,-0.9699829
681653271513,-1.0777588,9.75252,-0.9987232
681673127514,-1.0873389,9.601633999999999,-0.9388476999999998
681692983641,-1.1567944,9.618399,-0.9580079
681712844517,-1.1759547,9.72378,-0.8669971
681732700646,-1.0370435,9.656719,-0.9699829
681752556901,-1.0154883,9.656719,-0.94603276
681772413029,-1.0370435,9.644744000000001,-0.94603276
681792269286,-1.0442286,9.671089,-0.91729254
681812125681,-1.0202783000000002,9.611214,-0.90052736
681831981809,-1.0873389,9.604028999999999,-0.96758795
681851838066,-1.1328443000000001,9.718989,-0.87418216
681871694321,-1.0585986,9.7142,-0.8310718
681891550449,-1.0633887,9.637559,-0.95561284
681911406706,-1.1472143999999997,9.671089,-1.0154883
681931270171,-1.1136841999999998,9.618399,-0.8861573
681951126555,-1.0562036,9.541758999999999,-0.8981324
681970982812,-1.1424243,9.580078,-0.95561284
681990839067,-1.1927198,9.630374,-0.9508228000000001
682010704661,-1.1041040000000002,9.807606,-0.8813671999999999
682030561174,-1.0130934,9.649534,-0.8669971
682050417685,-1.0250684,9.730965,-1.0035132
682070274197,-1.0873389,9.64714,-0.9244776
682090130710,-1.0801538,9.570497999999999,-0.8669971
682109987093,-1.1112891000000003,9.558523,-0.8669971
682129842532,-1.1232642,9.584868,-0.90052736
682149699045,-1.1136841999999998,9.726174,-0.9244776
682169555556,-1.0585986,9.711803999999999,-0.9316626
682189412068,-1.0250684,9.730965,-0.92926764
682209268581,-1.0921290000000001,9.6758795,-0.8286768
682229120257,-1.099314,9.489068,-0.87897223
682248976641,-1.1615845,9.596844,-0.96040285
682268833026,-1.1615845,9.75252,-0.8813671999999999
682288689409,-1.1184741000000002,9.800421,-0.87418216
682308539692,-1.0777588,9.70941,-0.87178713
682328396077,-1.0729688,9.539363,-1.0226734
682348252332,-1.1448194,9.589659,-1.0298585
682368108716,-1.1927198,9.671089,-0.852627
682387964973,-1.1711646,9.515413,-0.7759864000000001
682407821356,-1.2118799999999998,9.683064,-0.92208254
682427667847,-1.1663746000000002,9.70941,-0.8478370000000001
682447523976,-1.0801538,9.726174,-0.91729254
682467380103,-1.096919,9.683064,-0.8765772
682487236103,-1.1136841999999998,9.570497999999999,-0.9484278
682507092232,-1.1520045,9.594449000000001,-0.84065187
682526951738,-1.1280543,9.594449000000001,-0.8310718
682546807866,-1.1496094,9.637559,-0.8598120000000001
682566663995,-1.1759547,9.707015,-0.852627
682586520122,-1.1160791,9.702225,-0.87418216
682606374527,-1.1088941,9.6758795,-0.87178713
682626230528,-1.1064991000000002,9.663903999999999,-0.8981324
682646086655,-1.1615845,9.721385,-0.9029224
682665942655,-1.1783496,9.687855,-0.83586186
682685798784,-1.214275,9.671089,-0.8214916999999999
682705654911,-1.214275,9.718989,-0.8765772
682725516134,-1.1759547,9.616004,-0.8430469
682745372263,-1.1400293,9.630374,-0.8478370000000001
682765228518,-1.094524,9.551338000000001,-0.8143066999999999
682785084646,-1.0657837,9.570497999999999,-0.8813671999999999
682804940903,-1.1687696,9.766891000000001,-0.8382569
682824792684,-1.1232642,9.716595,-0.7711963000000001
682844648812,-1.1424243,9.663903999999999,-0.8646021
682864505069,-1.1879296999999998,9.855506,-0.8765772
682884361196,-1.1663746000000002,9.632769,-0.8646021
682904212552,-1.2454101999999998,9.5489435,-0.9029224
682924068553,-1.2813355,9.539363,-0.8861573
682943924552,-1.2454101999999998,9.592053,-0.7807764
682963780552,-1.1711646,9.68067,-0.7041358
682983636553,-1.1064991000000002,9.613608000000001,-0.88376224
683003492424,-1.2070899,9.73815,-0.92926764
683023356488,-1.1400293,9.654325,-0.7113208000000001
683043212617,-1.0418334999999999,9.541758999999999,-0.75203615
683063068744,-1.094524,9.759705,-0.852627
683082924872,-1.0777588,9.783655,-0.8095166
683102781001,-1.0514137,9.733359,-0.7424561
683122639048,-1.0585986,9.663903999999999,-0.73048097
683142495304,-1.0178833,9.587264,-0.8143066999999999
683162351561,-1.0729688,9.601633999999999,-0.8262818000000001
683182207816,-1.0921290000000001,9.654325,-0.76401126
683202064072,-1.1041040000000002,9.635164,-0.7448511
683221920329,-1.0633887,9.685459,-0.76401126
683241768045,-1.0083033000000001,9.635164,-0.82388675
683261623917,-0.9580079,9.730965,-0.84544194
683281479918,-0.81909674,9.683064,-0.74006104
683301335917,-0.8143066999999999,9.632769,-0.8214916999999999
683321190614,-1.0035132,9.6758795,-0.7544312
683341046487,-1.0083033000000001,9.613608000000001,-0.7544312
683360902358,-1.0035132,9.635164,-0.78556645
683380758230,-0.9987232,9.690249,-0.80712163
683400614231,-1.0322535,9.718989,-0.84065187
683420472964,-1.0418334999999999,9.7142,-0.8334668
683440328964,-1.0538087,9.692644,-0.9196875
683460184837,-1.1232642,9.584868,-0.85023195
683480040708,-1.1208692,9.630374,-0.81191164
683499896708,-1.1352394,9.74773,-0.81909674
683519752581,-1.099314,9.711803999999999,-0.8262818000000001
683539618102,-1.0106983,9.611214,-0.8095166
683559474230,-0.99393314,9.75252,-0.8478370000000001
683579330359,-0.9364527,9.505833,-0.8646021
683599186614,-0.98435307,9.6615095,-0.82388675
683619047686,-0.98914313,9.726174,-0.7831714
683638904071,-0.87897223,9.718989,-0.7759864000000001
683658760454,-0.8310718,9.754914999999999,-0.7927515
683678616710,-0.8885523000000001,9.718989,-0.8765772
683698473095,-0.98914313,9.649534,-0.8646021
683718311978,-0.9867481,9.623189,-0.7783814
683738168106,-1.0059083,9.601633999999999,-0.7879615
683758024107,-1.0370435,9.72378,-0.8310718
683777880234,-1.0609937,9.733359,-0.84544194
683797736234,-1.0514137,9.70941,-0.8430469
683817592363,-1.0394385,9.77647,-0.7592211999999999
683837446235,-0.9987232,9.627979,-0.76880133
683857302235,-1.0418334999999999,9.572892999999999,-0.9053174
683877158236,-1.1376343,9.673484,-0.7664063
683897014235,-1.1064991000000002,9.793235000000001,-0.68737066
683916875915,-1.0035132,9.807606,-0.7592211999999999
683936731916,-0.9412427,9.666299,-0.8646021
683956588043,-1.0418334999999999,9.659114,-0.85023195
683976444043,-1.0154883,9.627979,-0.7951465
683996300172,-0.9580079,9.644744000000001,-0.7951465
684016156299,-1.0442286,9.632769,-0.7879615
684036021686,-1.0609937,9.651928999999999,-0.7376661
684055877815,-1.0681788,9.702225,-0.72569096
684075734070,-1.0154883,9.635164,-0.8286768
684095590198,-1.0346485,9.594449000000001,-0.8598120000000001
684115446455,-1.0514137,9.460327000000001,-0.7592211999999999
684135306562,-1.0490186000000001,9.422008,-0.7232959
684155162946,-1.0657837,9.524992999999998,-0.728086
684175019203,-1.1184741000000002,9.477093,-0.7232959
684194875458,-1.0657837,9.524992999999998,-0.76401126
684214724369,-1.1041040000000002,9.596844,-0.7089258
684234580498,-1.1064991000000002,9.520203,-0.69216067
684254436625,-1.0298585,9.419611999999999,-0.8214916999999999
684274292753,-1.1041040000000002,9.426797,-0.977168
684294148882,-1.2022998,9.390872,-0.85741705
684314005137,-1.1855347,9.493857,-0.6514453
684333853079,-1.0178833,9.539363,-0.8047266
684353709208,-0.9987232,9.735755000000001,-0.99393314
684373565207,-1.1088941,9.671089,-0.84065187
684393421207,-1.1136841999999998,9.407638,-0.7232959
684413277336,-1.0729688,9.532178,-0.76880133
684433132067,-1.0035132,9.572892999999999,-0.7783814
684452988067,-1.0226734,9.524992999999998,-0.8095166
684472844068,-1.0633887,9.481883,-0.7496411000000001
684492700067,-0.98914313,9.438772,-0.76161623
684512555779,-0.8813671999999999,9.560919,-0.8669971
684532411652,-0.9388476999999998,9.589659,-0.87897223
684552266655,-1.0657837,9.577683,-0.78556645
684572122655,-1.0370435,9.534574000000001,-0.76880133
684591978528,-1.0394385,9.472302,-0.9148975
684611834399,-1.0921290000000001,9.582474000000001,-0.85023195
684631693465,-1.0202783000000002,9.560919,-0.728086
684651549466,-0.98435307,9.422008,-0.86939216
684671405593,-1.0921290000000001,9.496253,-0.9484278
684691261593,-1.0466236,9.584868,-0.7232959
684711117594,-0.9963281999999999,9.654325,-0.75203615
684730970560,-1.0777588,9.594449000000001,-0.89573735
684750826560,-1.1088941,9.429193,-0.90052736
684770682561,-1.0777588,9.398057000000001,-0.89573735
684790538432,-1.0873389,9.364527,-0.96040285
684810388192,-1.1088941,9.479486999999999,-0.90771246
684830244065,-1.1304493,9.481883,-0.80712163
684850099808,-1.1256591999999999,9.474698,-0.87897223
684869955680,-1.1448194,9.601633999999999,-0.86220706
684889811553,-1.1328443000000001,9.527389,-0.79754156
684909667296,-1.0442286,9.474698,-0.74724615
684929520529,-1.0825489,9.493857,-0.7592211999999999
684949376402,-1.1208692,9.522598,-0.76880133
684969232145,-1.099314,9.534574000000001,-0.73048097
684989087889,-1.089734,9.558523,-0.6849755999999999
685008943634,-1.0921290000000001,9.584868,-0.6514453
685028806618,-1.0777588,9.5489435,-0.6562354
685048662618,-1.0466236,9.462723,-0.6346801999999999
685068518491,-1.0705738,9.5489435,-0.6322852
685088374362,-1.1160791,9.503438000000001,-0.6394701999999999
685108230362,-1.1256591999999999,9.457932000000001,-0.63707525
685128086235,-1.1615845,9.594449000000001,-0.57959473
685147950554,-1.1376343,9.513017999999999,-0.5963599
685167806682,-1.0705738,9.431587,-0.6849755999999999
685187662811,-1.1400293,9.544153,-0.6825806
685207518938,-1.1400293,9.4435625,-0.66342044
685227381344,-1.1088941,9.362132,-0.66342044
685247237601,-1.1855347,9.520203,-0.6514453
685267093856,-1.1903248,9.546548,-0.57959473
685286950112,-1.1903248,9.546548,-0.51492923
685306806369,-1.2286451,9.592053,-0.45026368
685326654225,-1.1520045,9.460327000000001,-0.38080812
685346510225,-1.0059083,9.448353,-0.39996827
685366366098,-0.98435307,9.649534,-0.24908204
685386222097,-1.0178833,9.783655,0.028740235
685406078097,-1.0106983,9.901011,0.21555176
685425933970,-0.9364527,10.020762,0.4766089
685445793035,-0.9268726,9.877061,0.68976563
685465648907,-0.91729254,9.707015,0.77359134
685485504908,-1.22625,10.018367,1.0011181999999998
685505360907,-1.7699194999999999,10.593172000000001,1.705254
685525221816,-1.8034497,11.1248665,2.1579127000000002
685545077945,-0.9532178,11.876903,2.565066
685564934072,0.42391850000000003,11.795472,1.1232642
685584790200,1.583108,10.166859,-3.9014869
685604646328,0.47181886,10.023157000000001,-3.1255007000000004
685624502456,-0.13891114,10.051897,0.13891114
685644361070,0.46463382,9.292676,0.51732427
685664217454,0.45984375,8.648416000000001,1.5471827
685684073710,-0.19639161,9.177715,3.3147073
685703929966,-0.39278322,9.927357,3.0296998
685723786350,-0.098195806,9.163345,2.4692652
685743648410,-0.122146,7.661668,3.412903
685763504922,-0.51732427,7.1084185,4.849914599999999
685783361434,-0.48139894,7.2233789999999996,4.837939700000001
685803217818,-0.11017089999999999,7.048543,4.9552955999999995
685823074330,-0.07185059,6.935977,5.724097
685842923339,-0.100590825,7.194639,6.3779373
685862779595,0.19160157,7.5203614000000005,7.4269557
685882635979,0.79035646,7.1060232999999995,8.270002
685902492235,1.0418334999999999,6.2965064,10.027947
685922348619,1.2789403999999998,6.2725563,9.920172
685942205460,2.6321266,6.543194000000001,7.0365677
685962061716,2.943479,5.9156985,5.894143
685981917972,1.3076807,5.47741,-0.045505375
686001774228,-0.39757326,11.536810000000001,-5.4223247
686021630484,-7.8748245,23.449635999999998,0.1820215
686041496358,-9.80521,13.634847,7.1060232999999995
686061352870,-0.96758795,2.9746144,0.366438
686081209254,-1.0202783000000002,5.898933400000001,-2.047742
686101065766,-1.4753321000000001,8.622069999999999,-2.1411476
686120922278,-1.0514137,9.692644,-2.562671
686140781405,-0.17723145,11.414663000000001,-2.1603076
686160638045,1.9902613,13.172607999999999,0.12933107
686180494557,0.43349856,11.306888,-1.4441968
686200351069,-0.7759864000000001,9.196876,-0.6825806
686220207709,-0.6706055000000001,8.260423,1.1041040000000002
686240054432,-1.0322535,8.358619000000001,0.8909473
686259910816,-1.0418334999999999,8.159832000000002,1.3843212999999999
686279767328,-0.5556446,8.006551,1.0585986
686299623712,-1.0011181999999998,8.53585,1.2741505
686319480096,-0.5748047,9.211246000000001,1.4705421
686339325050,-0.5340894,9.3309965,0.6059399999999999
686359181178,-0.10777588,8.943004,-0.21315674
686379037306,0.45984375,8.58854,-1.3292358999999998
686398893562,0.8861573,8.804092,-1.5783178999999998
686418749690,1.6238233,8.964559,0.7831714
686438594103,2.2608986,9.651928999999999,1.3867163999999998
686458449975,0.5987549,11.208692,-0.45026368
686478305847,-0.8933423,12.521163,0.49576905
686498161719,-1.5519726999999999,12.909156,1.0298585
686518017591,-1.6262183000000001,12.935501,1.4920973
686537871354,0.07424561,12.810960000000001,-0.28740236
686557722373,0.68976563,13.004956,-1.7483643
686577578245,0.8885523000000001,12.942686,-0.62510014
686597433989,0.24189699,12.19065,0.19878663
686617289733,0.8909473,12.609778,0.65384036
686637138865,3.796106,12.248130999999999,-1.2502003000000002
686656994481,1.3867163999999998,13.713882,-3.417693
686676850097,0.44547364,13.589341000000001,-2.7183473
686696705713,1.4154567,12.169095,-1.8058448
686716561329,3.032095,11.934382000000001,3.4296682
686736416915,1.8729054,11.383529,3.3673975
686756272531,0.5891748,10.688972,0.0047900393
686776128147,0.41912845,10.724898,-2.4525
686795983763,2.4692652,8.6077,-4.5768824
686815839379,2.0190015,6.856941,-3.9014869
686835697299,0.06945557,5.7648125,-4.91937
686855552915,-1.0370435,4.2367897,-3.8320315000000003
686875408659,-2.2417382999999997,3.661985,-1.334026
686895264275,-2.9985645,3.803291,-0.5724097
686915119891,-3.4608032999999994,5.2594633,-0.17723145
686934974062,-2.3878345000000003,7.673642999999999,-0.50534916
686954829678,-2.926714,10.468631,-1.1639795
686974685294,-5.7983427,12.873231,2.7542725
686994540782,-6.342012,14.782062,15.189214999999999
687014396398,0.29698244,11.160791,22.022205
687034259682,5.942044,14.535374,-1.8513502
687054115426,4.2152348,17.421373000000003,-20.513344
687073971170,-2.0046315,9.644744000000001,-6.258186299999999
687093826914,1.456172,6.143225,-1.5256275
687113682658,4.536167,10.312955,-3.7625759
687133540590,-2.4908203999999996,16.729212,-2.6536817999999998
687153396334,-6.1312504,16.58551,0.32332766
687173252078,-3.2189064,10.255474000000001,0.87418216
687193107950,-3.3937428,8.044871,-0.48618898
687212963694,-3.7482057,7.767049,0.17723145
687232824960,-2.7542725,6.737190200000001,-2.6560767000000003
687252680832,-2.1698877999999997,6.3875175,-1.81782
687272536704,-1.590293,7.139553500000001,1.0490186000000001
687292392576,0.038320314,8.157437,3.2596216
687312248320,0.98435307,8.449629,2.4932152999999997
687332101412,0.05508545,8.605306,-0.12454102
687351957156,-0.37122804,8.044871,-2.4093897
687371813028,0.34248779999999995,8.140672,-3.7003052000000003
687391668772,0.60354495,10.471025,-1.0873389
687411524644,-0.2682422,12.870835000000001,3.9230419999999997
687431382855,-0.98195803,12.990586,3.8128712
687451238599,-1.1112891000000003,11.862533,0.68018556
687471094471,-0.99393314,11.100916,0.10777588
687490950215,-1.5136524,9.230406,-0.05508545
687510805959,-2.3375392,10.485396000000001,-1.8489552
687530671394,-2.069297,14.997613000000001,-0.5676197
687550527522,0.25387207,14.566509,2.1171973
687570383522,2.5578809,15.270645000000002,-2.459685
687590239522,6.073769599999999,16.37475,-2.9794044
687610095522,2.1818627999999998,15.033538,0.87897223
687629953740,4.150569,14.295872,2.1650977000000005
687649809868,6.1528053,13.007352000000001,4.102669000000001
687669666124,3.8727467000000004,10.894944,1.6381934999999999
687689522380,3.1925611000000003,9.841136,-5.654641000000001
687709378508,2.2896388,9.290281,-7.8652444
687729244687,-0.43110353,7.5874224,-7.110813
687749101199,-2.6824220000000003,5.8725879999999995,-5.072651400000001
687768957583,-3.2859669,5.879773,-0.5939649
687788814095,-3.3458424,6.562353599999999,2.44292
687808670607,-4.385281,6.828200999999999,1.0466236
687828521425,-5.2882032,5.8917484,0.24908204
687848377809,-4.7948294,5.4414845000000005,2.0429518
687868234193,-3.4152980000000004,6.2989016,3.7386258000000003
687888090577,-2.0166066000000002,7.905959599999999,3.8943019999999997
687907946961,-0.98435307,8.954978,4.847519999999999
687927804533,-0.22034179999999998,10.31535,7.872429400000001
687947660917,2.1148024,13.158237,14.458734
687967517301,8.3250885,12.26729,13.038486500000001
687987373685,12.966637,7.685617999999999,0.9699829
688007230069,11.704461,10.365644999999999,-3.9541774
688027089250,5.096602,21.785099,-5.757626999999999
688046945762,-8.48316,22.321583,-16.113691
688066802146,-13.869557999999998,5.901328599999999,4.4355764
688086658530,-14.794035999999998,-2.9889846,12.5738535
688106514914,-4.5768824,0.5604346,5.4055595
688126367286,-3.3171022000000003,6.428232700000001,-0.34009278
688146223670,-3.4943337,11.620635,-7.400610400000001
688166080054,-4.756508999999999,15.177239000000002,-8.943004
688185936438,-0.57959473,14.147381,-5.391189
688205792822,3.9206470999999996,11.400293,-4.24637
688225645329,3.8272413999999997,8.071216999999999,2.7063723
688245501585,-1.5639478,9.584868,5.4750147
688265357841,-2.0381618,11.61824,-1.2430152
688285214097,0.732876,10.327325,-2.6033863999999998
688305070353,0.22513184,8.449629,-0.49576905
688324917508,-1.4010864,7.8987746,1.101709
688344773636,-1.463357,8.880733,1.5208374
688364629636,-0.70174074,9.192085,2.3734642999999997
688384485764,-0.19878663,9.0076685,1.0825489
688404341764,-0.36883304,8.8951025,-0.94603276
688424190448,-1.2981006000000002,8.811277,-1.3124708
688444046320,-1.8034497,8.159832000000002,-1.3244458000000001
688463902192,-1.4178516,8.085587,0.014370117
688483758064,-0.65384036,8.562195,0.32572266
688503614064,-0.09101075,9.515413,0.5029541000000001
688523470094,0.07424561,9.994417,0.244292
688543325966,-0.011975098,11.009905,-0.43349856
688563181219,-0.72569096,14.408438,-1.9734962
688583037091,-0.8047266,15.423926000000002,-0.62989014
688602892963,0.91250247,10.775193,-1.1041040000000002
688622750875,-0.4766089,8.315508,-1.6693287
688642606747,-3.2308814999999997,8.971744000000001,-2.1291726000000004
688662462619,-5.022355999999999,10.126142999999999,-1.8681153000000001
688682318619,-6.852151400000001,10.480606,-1.3172607
688702174491,-6.1863356,10.221944,-1.0083033000000001
688722028985,-4.4451566,10.142908,-0.42391850000000003
688741884729,-4.0978785,10.128538,-0.2945874
688761740601,-4.5601172,9.350157000000001,0.4526587
688781596473,-3.2883620000000002,7.692803,0.21076173
688801452345,-2.0190015,7.098838300000001,0.10777588
688821308217,-1.3483961000000002,7.8341093,0.94603276
688841165606,-0.8430469,7.5323367,-0.38559815
688861021606,-0.60833496,7.807764,-0.58677983
688880877478,-0.5412744,8.044871,-0.8214916999999999
688900733478,-0.74724615,8.662786500000001,-0.7759864000000001
688920589350,-1.6813037,9.311836,-0.17962648
688940447110,-2.3662794,9.642349000000001,0.16525635
688960302982,-1.9591261000000002,9.769285,0.1341211
688980158982,-2.2345533,9.6615095,-0.488584
689000014854,-2.8452832999999997,9.7621,-0.10777588
689019870726,-3.0344898999999996,10.581197,0.13172609
689039736734,-2.926714,11.160791,-0.6945557
689059592734,-3.6931202000000005,10.712923,-0.62510014
689079448862,-4.3086405,9.522598,-0.22273682
689099304990,-2.931504,9.096285,-2.1267774
689119160990,-1.6693287,10.135722999999999,-4.967271
689139021980,-1.465752,10.890153999999999,-2.5578809
689158878108,-1.6501685000000001,10.473421,2.1052222
689178734364,-0.78556645,10.008787,3.3506324
689198590620,0.05508545,9.896221,2.064507
689218446876,-0.32093263,9.77168,1.2406201000000001
689238301467,-0.9963281999999999,10.166859,0.09580079
689258157595,-0.9436377,10.106983,-1.0442286
689278013723,-1.6070582,10.018367,-1.4250367
689297869851,-1.8154249,9.611214,-1.4346168
689317726107,-0.9484278,9.189691,-1.6717237
689337581374,-0.28500733,9.302257,-1.463357
689357437502,-0.033530276,9.901011,-1.4106666
689377293758,-0.30177248,10.233919,-1.0873389
689397149886,-1.1975098,9.702225,-0.68018556
689417006142,-1.8848804,9.10347,-0.3520679
689436863610,-2.1004322,9.19927,-0.20118165
689456719866,-1.7579445,9.498648,-0.33769777
689476575994,-1.5423926000000001,9.572892999999999,0.2921924
689496432250,-1.3436059999999999,9.81958,0.366438
689516288378,-1.22146,10.459050999999999,-0.6227050999999999
689536150331,-1.2094848999999999,10.459050999999999,-1.1520045
689556006715,-0.97956306,10.324929,-1.1376343
689575862971,-0.4047583,10.365644999999999,-1.3986914
689595719355,0.1341211,10.475816,-2.0429518
689615575739,0.13891114,10.461446,-2.6225464
689635427819,-0.28740236,9.8866415,-2.8213332
689655284075,-1.8896705000000003,9.357342,-2.2608986
689675140459,-3.3003370000000003,9.0076685,-1.3579761000000001
689694996843,-3.2069313999999998,8.744216999999999,-1.0825489
689714853227,-2.5722509999999996,8.933423,-0.43589357
689734705093,-1.5639478,9.872271000000001,-0.2083667
689754561349,-0.82388675,10.394385,-0.9963281999999999
689774417605,-0.2945874,10.135722999999999,-1.8321900000000002
689794273861,-0.1460962,9.896221,-2.2728736
689814130117,-0.61552006,9.726174,-2.0237916
689833980216,-1.3268408999999999,9.623189,-1.4705421
689853836472,-1.6405883999999997,9.711803999999999,-0.76161623
689873692600,-1.7723145,9.6758795,-0.36883304
689893548856,-1.6884888,9.541758999999999,-0.42152345
689913404984,-1.2406201000000001,9.6615095,-1.0705738
689933261927,-0.74724615,9.814791,-1.8800903999999998
689953118055,-0.62510014,9.829161000000001,-1.8034497
689972974183,-0.63707525,10.0063925,-1.1615845
689992830311,-0.7185059,9.8938265,-1.3507911
690012686439,-0.8646021,9.764495,-1.2813355
690032529187,-0.9244776,9.74773,-1.1735597
690052384931,-1.0035132,9.72378,-1.2358301999999999
690072240803,-1.1759547,9.733359,-1.2454101999999998
690092096547,-1.3364209999999999,9.73815,-1.1807446000000001
690111952419,-1.3220508,9.821976,-1.2430152
690131809581,-1.1711646,9.742939999999999,-1.3076807
690151665325,-0.974773,9.75731,-1.3675561999999999
690171521197,-0.9651929,9.754914999999999,-1.3364209999999999
690191377069,-1.0059083,9.666299,-1.4058765
690211232813,-1.0562036,9.671089,-1.4897022
690231083624,-1.1711646,9.651928999999999,-1.3699511999999998
690250939368,-1.2310401000000002,9.6686945,-1.3412110000000002
690270794984,-1.0921290000000001,9.82437,-1.223855
690290650728,-1.0394385,9.889036,-1.2549903
690310506472,-1.1520045,9.831555,-1.3962965
690330359560,-1.0825489,9.699829,-1.1927198
690350215176,-0.93405765,9.637559,-1.0729688
690370070792,-0.9580079,9.73815,-1.3603711
690389926408,-1.0250684,9.673484,-1.3531861
690409782024,-0.99393314,9.75731,-1.1543995
690429637639,-1.0538087,9.82437,-1.2022998
690449493127,-1.0538087,9.843531,-1.3100758
690469348615,-1.1352394,9.817185,-1.2597803
690489204231,-1.1903248,9.663903999999999,-1.1208692
690509059719,-1.0801538,9.7740755,-1.1711646
690528922466,-1.1136841999999998,9.560919,-1.2430152
690548778210,-1.1951148999999999,9.584868,-1.3675561999999999
690568631423,-1.2525953,9.764495,-1.3148658000000002
690588487039,-1.2573853000000002,9.74773,-1.219065
690608342783,-1.219065,9.764495,-1.3244458000000001
690628201400,-1.2358301999999999,9.754914999999999,-1.2621753
690648057144,-1.2094848999999999,9.707015,-1.2118799999999998
690667912888,-1.22146,9.6758795,-1.2549903
690687768760,-1.2502003000000002,9.625584,-1.2525953
690707624504,-1.2645704,9.678274,-1.3483961000000002
690727480984,-1.3675561999999999,9.72857,-1.2430152
690747336728,-1.3507911,9.766891000000001,-1.223855
690767192600,-1.2621753,9.862691,-1.3124708
690787048344,-1.3891114,9.778865,-1.1663746000000002
690806904216,-1.3627661,9.802814999999999,-1.1496094
690826760386,-1.3172607,9.764495,-1.1951148999999999
690846616130,-1.3603711,9.690249,-1.2669654
690866472002,-1.3507911,9.623189,-1.4082716
690886327874,-1.334026,9.685459,-1.4082716
690906183618,-1.3819263000000002,9.594449000000001,-1.3124708
690926039520,-1.3939015,9.599238,-1.3388159
690945895264,-1.4226416000000002,9.604028999999999,-1.4370118
690965751136,-1.4801221000000002,9.623189,-1.4441968
690985606880,-1.4346168,9.596844,-1.3867163999999998
691005462752,-1.3915064,9.536968,-1.3819263000000002
691025323267,-1.4202466,9.412427000000001,-1.4370118
691045179267,-1.3962965,9.510622999999999,-1.4298267
691065035139,-1.3268408999999999,9.6615095,-1.2693603999999998
691084891139,-1.2597803,9.783655,-1.214275
691104747011,-1.1975098,9.81958,-1.2454101999999998
691124605589,-1.1591895,9.639954,-1.2597803
691144461589,-1.096919,9.5561285,-1.1951148999999999
691164317589,-0.9987232,9.606423,-1.2286451
691184173717,-1.0083033000000001,9.505833,-1.2597803
691204029717,-1.0777588,9.491463000000001,-1.2621753
691223885040,-1.1615845,9.589659,-1.1759547
691243741168,-1.0825489,9.644744000000001,-1.1184741000000002
691263597168,-1.094524,9.80521,-1.2741505
691283453168,-1.1711646,9.673484,-1.2885206
691303309168,-1.223855,9.558523,-1.214275
691323162059,-1.3172607,9.536968,-1.096919
691343018059,-1.2693603999999998,9.510622999999999,-1.1663746000000002
691362874059,-1.1663746000000002,9.505833,-1.3268408999999999
691382730059,-1.1472143999999997,9.6758795,-1.3028906999999998
691402585931,-1.0825489,9.750125,-1.2166698999999999
691422445038,-1.1424243,9.649534,-1.1951148999999999
691442300910,-1.214275,9.637559,-1.2118799999999998
691462156910,-1.2022998,9.654325,-1.1687696
691482012910,-1.2406201000000001,9.64714,-1.1280543
691501868910,-1.2502003000000002,9.462723,-1.0729688
691521730712,-1.2094848999999999,9.565708,-1.1807446000000001
691541586968,-1.219065,9.673484,-1.1663746000000002
691561443096,-1.1088941,9.704619000000001,-1.1951148999999999
691581299224,-1.0873389,9.707015,-1.1807446000000001
691601155480,-1.1567944,9.623189,-1.096919
691621005470,-1.1520045,9.577683,-1.1208692
691640861470,-1.214275,9.582474000000001,-1.096919
691660717470,-1.2597803,9.508227999999999,-1.099314
691680573470,-1.2597803,9.560919,-1.1112891000000003
691700429470,-1.1855347,9.599238,-1.0801538
691720290907,-1.0657837,9.692644,-1.1567944
691740147035,-1.094524,9.754914999999999,-1.2166698999999999
691760003163,-1.101709,9.690249,-1.1232642
691779859291,-1.1687696,9.635164,-1.096919
691799715419,-1.219065,9.596844,-1.0298585
691819565682,-1.1615845,9.529783,-1.0801538
691839421682,-1.1160791,9.560919,-1.1304493
691859277682,-1.1352394,9.690249,-1.2046948999999998
691879133682,-1.1424243,9.766891000000001,-1.2358301999999999
691898989682,-1.1424243,9.678274,-1.1855347
691918847498,-1.094524,9.618399,-1.1591895
691938703498,-1.1567944,9.716595,-1.1735597
691958559498,-1.1951148999999999,9.589659,-1.1064991000000002
691978415498,-1.1807446000000001,9.481883,-1.0777588
691998271498,-1.0921290000000001,9.553733,-1.0418334999999999
692018137536,-0.92926764,9.589659,-1.0609937
692037993792,-0.89573735,9.659114,-1.2070899
692057850048,-0.91729254,9.7740755,-1.2502003000000002
692077706176,-0.8334668,9.735755000000001,-1.1903248
692097562432,-0.8669971,9.572892999999999,-1.0538087
692117423526,-1.0178833,9.608819,-1.0035132
692137279910,-1.1807446000000001,9.575289,-1.0777588
692157136294,-1.219065,9.599238,-1.1424243
692176992678,-1.1903248,9.642349000000001,-1.214275
692196849062,-1.1543995,9.671089,-1.2094848999999999
692216703574,-1.1280543,9.793235000000001,-1.2118799999999998
692236559958,-1.0729688,9.788445,-1.0657837
692256416214,-1.0226734,9.505833,-1.0657837
692276272598,-1.1496094,9.498648,-1.1208692
692296128982,-1.1735597,9.587264,-1.0226734
692315976069,-1.0346485,9.611214,-1.0657837
692335832325,-1.0130934,9.656719,-1.0154883
692355688453,-0.98195803,9.726174,-0.9508228000000001
692375544709,-0.96040285,9.793235000000001,-1.0035132
692395400837,-1.0059083,9.795630000000001,-0.9627979
692415254520,-1.0609937,9.678274,-0.8765772
692435110648,-1.1232642,9.539363,-0.8669971
692454966776,-1.1328443000000001,9.5489435,-0.97956306
692474822904,-1.0514137,9.496253,-0.9436377
692494679032,-1.0083033000000001,9.616004,-0.8885523000000001
692514535323,-0.9915381,9.7812605,-0.8095166
692534391451,-0.8933423,9.821976,-0.8334668
692554247579,-0.8286768,9.750125,-0.8909473
692574103657,-0.8981324,9.592053,-0.82388675
692593959785,-0.95561284,9.654325,-0.8286768
692613815913,-0.97956306,9.532178,-0.7496411000000001
692633663879,-0.974773,9.551338000000001,-0.8167017
692653519751,-1.0106983,9.7142,-0.8047266
692673375751,-0.98195803,9.850716,-0.8095166
692693231751,-0.88376224,9.745335,-0.85023195
692713087751,-0.76880133,9.711803999999999,-0.92208254
692732944159,-0.7065308000000001,9.639954,-0.9029224
692752800159,-0.74006104,9.568104,-0.8478370000000001
692772656159,-0.9412427,9.520203,-0.79993653
692792512031,-0.98435307,9.501043,-0.8478370000000001
692812368031,-0.88376224,9.611214,-0.91729254
692832221562,-0.8214916999999999,9.826766000000001,-0.9148975
692852077434,-0.74724615,9.82437,-0.9196875
692871933306,-0.65384036,9.690249,-0.89573735
692891789306,-0.6586304000000001,9.879456,-0.89573735
692911645178,-0.8143066999999999,9.788445,-0.8909473
692931500506,-0.99393314,9.426797,-0.8646021
692951356378,-1.0729688,9.477093,-0.7951465
692971212250,-0.9915381,9.72857,-0.8813671999999999
692991067994,-0.8598120000000001,9.807606,-1.0585986
693010923866,-0.83586186,9.860296,-1.0274634
693030779975,-0.8382569,9.735755000000001,-0.97237796
693050635847,-0.8765772,9.599238,-1.0083033000000001
693070491591,-1.0346485,9.536968,-1.0274634
693090347463,-1.0442286,9.508227999999999,-0.85741705
693110203335,-0.95561284,9.625584,-0.87418216
693130057200,-0.94603276,9.625584,-0.977168
693149913072,-0.9364527,9.589659,-1.0178833
693169768816,-0.9699829,9.730965,-1.1112891000000003
693189624688,-0.9963281999999999,9.932146000000001,-1.1232642
693209480432,-0.9651929,9.726174,-0.96758795
693229337614,-0.98435307,9.5633135,-0.9196875
693249193358,-1.0705738,9.613608000000001,-0.95561284
693269049102,-1.0657837,9.544153,-1.0226734
693288904974,-0.9699829,9.625584,-1.096919
693308760718,-0.91010743,9.778865,-0.94603276
693328610689,-0.74724615,9.802814999999999,-0.82388675
693348466433,-0.5843848,9.798025,-0.9268726
693368322177,-0.45744875,9.75731,-1.0753639
693388177793,-0.45744875,9.620794,-1.0777588
693408033537,-0.61073,9.721385,-1.1256591999999999
693427886159,-0.82388675,9.718989,-1.1352394
693447741775,-0.8262818000000001,9.577683,-1.0035132
693467597391,-0.90052736,9.613608000000001,-1.0514137
693487452879,-0.9627979,9.687855,-1.0825489
693507308495,-0.855022,9.690249,-1.2502003000000002
693527172321,-0.8214916999999999,9.721385,-1.3172607
693547028065,-0.91010743,9.608819,-1.2430152
693566883681,-1.099314,9.608819,-1.2765454
693586739425,-1.2022998,9.560919,-1.2597803
693606595169,-1.2382251,9.656719,-1.2669654
693626456301,-1.1663746000000002,9.582474000000001,-1.2454101999999998
693646312173,-1.096919,9.5489435,-1.3148658000000002
693666168173,-1.0681788,9.690249,-1.3555812
693686024045,-0.9627979,9.730965,-1.3675561999999999
693705879917,-0.8430469,9.754914999999999,-1.2909156000000002
693725743371,-0.85741705,9.721385,-1.1807446000000001
693745599499,-0.74006104,9.594449000000001,-1.1951148999999999
693765455499,-0.65384036,9.469908,-1.2909156000000002
693785311627,-0.6322852,9.589659,-1.3148658000000002
693805167755,-0.6442603,9.685459,-1.3723463
693825019860,-0.69695073,9.726174,-1.3843212999999999
693844875860,-0.728086,9.750125,-1.3651612
693864731988,-0.8669971,9.632769,-1.3292358999999998
693884587988,-0.9699829,9.541758999999999,-1.3819263000000002
693904443988,-1.0633887,9.5633135,-1.3627661
693924297379,-1.0346485,9.546548,-1.3891114
693944153379,-1.0154883,9.580078,-1.4585668999999999
693964009379,-1.0609937,9.718989,-1.4513819
693983865251,-1.0609937,9.687855,-1.463357
694003721251,-0.96758795,9.649534,-1.5567628
694023580523,-1.0538087,9.663903999999999,-1.5471827
694043436523,-1.0442286,9.613608000000001,-1.4322218
694063292651,-1.099314,9.608819,-1.4418018
694083148651,-1.1472143999999997,9.503438000000001,-1.4849122
694103004651,-1.096919,9.4435625,-1.5974781999999998
694122863902,-1.1448194,9.517808,-1.5471827
694142720030,-1.2765454,9.74773,-1.5040723
694162576158,-1.3723463,9.793235000000001,-1.4944923
694182432286,-1.2933106,9.616004,-1.477727
694202288414,-1.1543995,9.479486999999999,-1.4920973
694222133867,-1.0178833,9.522598,-1.4920973
694241989739,-0.85741705,9.577683,-1.5184423999999999
694261845611,-0.7783814,9.608819,-1.5016773
694281701483,-0.7759864000000001,9.560919,-1.4849122
694301557355,-0.84065187,9.584868,-1.5256275
694321406529,-0.9580079,9.6686945,-1.4513819
694341262273,-1.1041040000000002,9.745335,-1.3867163999999998
694361118017,-1.214275,9.632769,-1.3364209999999999
694380973889,-1.2813355,9.592053,-1.4585668999999999
694400829633,-1.2502003000000002,9.455538,-1.3531861
694420680141,-1.2334352,9.4507475,-1.2933106
694440535757,-1.2573853000000002,9.5561285,-1.3148658000000002
694460391373,-1.099314,9.553733,-1.3292358999999998
694480246989,-0.974773,9.529783,-1.3507911
694500102733,-0.9627979,9.599238,-1.3555812
694519964828,-1.0322535,9.644744000000001,-1.2885206
694539820700,-1.0657837,9.666299,-1.2094848999999999
694559676444,-1.1352394,9.673484,-1.219065
694579532188,-1.2094848999999999,9.551338000000001,-1.331631
694599388904,-1.1639795,9.524992999999998,-1.3939015
694619240442,-1.1855347,9.613608000000001,-1.3603711
694639096186,-1.0466236,9.635164,-1.3603711
694658951802,-0.9316626,9.582474000000001,-1.3962965
694678807546,-1.0059083,9.587264,-1.4944923
694698663162,-1.0418334999999999,9.551338000000001,-1.4897022
694718516644,-0.98195803,9.462723,-1.3962965
694738372132,-1.0250684,9.536968,-1.4250367
694758227748,-1.0609937,9.572892999999999,-1.4465919
694778083364,-1.0562036,9.625584,-1.465752
694797941941,-1.0801538,9.733359,-1.4705421
694817797558,-1.0921290000000001,9.692644,-1.3915064
694837653301,-1.101709,9.666299,-1.4106666
694857508917,-1.0777588,9.639954,-1.465752
694877364662,-0.9867481,9.522598,-1.4585668999999999
694897220277,-0.9412427,9.400452,-1.4849122
694917072942,-1.0130934,9.465117,-1.4801221000000002
694936928431,-1.0705738,9.570497999999999,-1.5088624
694956783918,-1.0777588,9.659114,-1.6118482
694976639534,-1.1472143999999997,9.72857,-1.6813037
694996495023,-1.3364209999999999,9.582474000000001,-1.5687379
695016350953,-1.456172,9.546548,-1.4968873
695036206441,-1.5639478,9.5633135,-1.4849122
695056061930,-1.4178516,9.517808,-1.4322218
695075917417,-1.6477735,9.486672,-1.8010547
695095780048,-1.6238233,9.570497999999999,-1.8226098999999998
695115635665,-1.8369801,9.644744000000001,-1.7339942
695135491408,-1.9567311,9.604028999999999,-1.5735278999999998
695155347152,-1.6884888,9.663903999999999,-1.5232325
695175202769,-1.2286451,9.630374,-1.3268408999999999
695195058512,-0.8262818000000001,9.479486999999999,-1.5519726999999999
695214914809,-0.97237796,9.5633135,-1.8034497
695234770426,-1.2885206,9.6615095,-1.6190332
695254626169,-1.2693603999999998,9.594449000000001,-1.465752
695274481913,-1.1520045,9.546548,-1.5998731000000002
695294337530,-1.1280543,9.462723,-1.7220191000000002
695314193577,-1.0298585,9.465117,-1.705254
695334049321,-1.0298585,9.378897,-1.6214283
695353905194,-1.1615845,9.577683,-1.6142433
695373760937,-1.0729688,9.529783,-1.5519726999999999
695393622532,-0.9987232,9.460327000000001,-1.587898
695413478405,-1.2717555,9.570497999999999,-1.5184423999999999
695433334148,-1.4130616000000003,9.673484,-1.3915064
695453190020,-1.3196558,9.716595,-1.4250367
695473045893,-1.2022998,9.678274,-1.4298267
695492901764,-1.0370435,9.510622999999999,-1.3867163999999998
695512739178,-0.977168,9.486672,-1.3507911
695532594667,-0.9364527,9.498648,-1.3651612
695552450282,-0.78556645,9.558523,-1.4274316999999999
695572305770,-0.7065308000000001,9.635164,-1.5016773
695592161259,-0.9244776,9.716595,-1.4441968
695612015563,-1.219065,9.716595,-1.3100758
695631871051,-1.2334352,9.721385,-1.2358301999999999
695651726540,-1.1663746000000002,9.697434,-1.2310401000000002
695671582027,-1.0705738,9.4507475,-1.4034815
695691437643,-0.98914313,9.311836,-1.5447876
695711293132,-0.9963281999999999,9.441168,-1.456172
695731158473,-0.9388476999999998,9.663903999999999,-1.4370118
695751014217,-0.80233157,9.72378,-1.5280225
695770869962,-0.74724615,9.721385,-1.6214283
695790725705,-1.0490186000000001,9.788445,-1.4465919
695810584758,-1.4226416000000002,9.7740755,-1.2382251
695830440631,-1.585503,9.572892999999999,-1.096919
695850296374,-1.3747413,9.424402,-1.2621753
695870152118,-1.2885206,9.479486999999999,-1.5160475
695890007991,-1.3172607,9.457932000000001,-1.590293
695909868712,-1.1064991000000002,9.544153,-1.5376027
695929724456,-0.8933423,9.592053,-1.4226416000000002
695949580329,-0.8478370000000001,9.582474000000001,-1.5160475
695969436200,-1.0585986,9.625584,-1.6573536
695989292072,-1.2597803,9.807606,-1.5376027
696009147817,-1.1112891000000003,9.690249,-1.3555812
696028995544,-0.89573735,9.522598,-1.3579761000000001
696048851160,-0.977168,9.412427000000001,-1.5615528
696068706905,-1.3100758,9.596844,-1.7172291000000002
696088562520,-1.6166383,9.72378,-1.6980689999999998
696108432854,-1.6621436,9.6758795,-1.6741188000000002
696128288855,-1.4154567,9.436378,-1.5352076000000001
696148144854,-1.223855,9.429193,-1.5016773
696168000854,-1.2621753,9.493857,-1.4825171
696187856855,-1.1184741000000002,9.469908,-1.5376027
696207708617,-0.99393314,9.596844,-1.4441968
696227564489,-1.1567944,9.6686945,-1.3986914
696247420490,-1.1232642,9.685459,-1.583108
696267276361,-0.9963281999999999,9.788445,-1.6262183000000001
696287132233,-0.9627979,9.656719,-1.3962965
696306988106,-1.0418334999999999,9.417216999999999,-1.2166698999999999
696326844562,-1.1735597,9.386082,-1.2981006000000002
696346700434,-1.223855,9.510622999999999,-1.4370118
696366556435,-1.1448194,9.632769,-1.4705421
696386412306,-1.1256591999999999,9.613608000000001,-1.3651612
696406274249,-1.099314,9.639954,-1.346001
696426130250,-1.1639795,9.70941,-1.4106666
696445986377,-1.1184741000000002,9.695039999999999,-1.3939015
696465842377,-0.98914313,9.6615095,-1.3603711
696485698378,-1.0921290000000001,9.584868,-1.331631
696505554377,-1.089734,9.536968,-1.3076807
696525410255,-1.0609937,9.522598,-1.3771361999999998
696545266384,-1.0777588,9.616004,-1.3675561999999999
696565122383,-1.0514137,9.637559,-1.3891114
696584978383,-1.0442286,9.745335,-1.3555812
696604834512,-0.9699829,9.759705,-1.2693603999999998
696624682154,-0.86939216,9.654325,-1.22625
696644538154,-0.82388675,9.529783,-1.2166698999999999
696664394155,-0.9580079,9.515413,-1.1591895
696684250154,-1.0681788,9.493857,-1.0585986
696704106154,-1.1112891000000003,9.630374,-1.1615845
696723962155,-1.1064991000000002,9.70941,-1.1927198
696743827705,-1.0873389,9.718989,-1.2789403999999998
696763683961,-1.089734,9.6686945,-1.2957056999999998
696783540090,-0.9915381,9.620794,-1.1975098
696803396345,-0.8598120000000001,9.613608000000001,-1.1927198
696823245383,-0.9532178,9.532178,-1.1975098
696843101512,-1.1400293,9.5561285,-1.3100758
696862957511,-1.2430152,9.671089,-1.4154567
696882813639,-1.2382251,9.740545,-1.4010864
696902669768,-1.1759547,9.718989,-1.3819263000000002
696922525939,-1.1663746000000002,9.616004,-1.3747413
696942382067,-1.2669654,9.5489435,-1.334026
696962238196,-1.3436059999999999,9.534574000000001,-1.2573853000000002
696982094323,-1.3028906999999998,9.455538,-1.2502003000000002
697001950323,-1.2286451,9.469908,-1.1783496
697021806452,-1.2669654,9.611214,-1.1472143999999997
697041670294,-1.2741505,9.651928999999999,-1.1591895
697061526678,-1.1855347,9.800421,-1.3028906999999998
697081382935,-1.2070899,9.72378,-1.219065
697101239318,-1.3603711,9.620794,-1.0849438999999999
697121083268,-1.3819263000000002,9.477093,-1.0538087
697140939269,-1.3986914,9.620794,-1.1112891000000003
697160795268,-1.3412110000000002,9.508227999999999,-1.223855
697180651140,-1.2406201000000001,9.565708,-1.3076807
697200507141,-1.1208692,9.644744000000001,-1.1975098
697220363741,-1.0801538,9.666299,-1.2693603999999998
697240219613,-1.1591895,9.6615095,-1.3004956
697260075486,-1.2502003000000002,9.589659,-1.0849438999999999
697279931357,-1.2981006000000002,9.513017999999999,-0.89573735
697299787357,-1.3244458000000001,9.565708,-0.7376661
697319643230,-1.089734,9.644744000000001,-0.7592211999999999
697339502758,-0.6610254,9.687855,-0.9316626
697359358758,-0.42391850000000003,9.644744000000001,-0.9867481
697379214759,-0.44786867,9.642349000000001,-0.81191164
697399070758,-0.6682104999999999,9.685459,-0.8334668
697418929507,-0.8646021,9.584868,-0.91729254
697438785636,-0.94603276,9.606423,-0.9436377
697458641635,-1.0681788,9.604028999999999,-0.90771246
697478497635,-1.1567944,9.630374,-0.9196875
697498353764,-1.1136841999999998,9.855506,-0.99393314
697518213731,-1.0370435,9.730965,-0.97237796
697538069987,-1.0274634,9.70941,-1.0298585
697557926116,-1.1328443000000001,9.7142,-1.1376343
697577782243,-1.2166698999999999,9.72378,-1.2286451
697597638499,-1.2334352,9.611214,-1.1615845
697617494628,-1.2693603999999998,9.484278,-1.1280543
697637331019,-1.2669654,9.517808,-1.1975098
697657186763,-1.2310401000000002,9.575289,-1.2669654
697677042380,-1.1951148999999999,9.733359,-1.3052857
697696898123,-1.1711646,9.5561285,-1.1208692
697716763938,-1.346001,9.649534,-1.1064991000000002
697736620067,-1.3268408999999999,9.7740755,-1.0490186000000001
697756476066,-1.1352394,9.493857,-1.2166698999999999
697776332066,-1.0226734,9.474698,-1.1807446000000001
697796188067,-1.0202783000000002,9.649534,-1.2334352
697816044066,-1.1184741000000002,9.589659,-1.223855
697835878879,-1.0633887,9.625584,-1.1831397
697855734368,-1.0011181999999998,9.750125,-1.0514137
697875589983,-0.974773,9.910591,-1.101709
697895445599,-0.98914313,9.678274,-1.1735597
697915301088,-1.0442286,9.484278,-1.2861254999999998
697935163528,-0.87418216,9.316627,-1.6286133999999999
697955019272,-0.4526587,9.469908,-2.5578809
697974874888,-0.59156984,9.649534,-2.088457
697994730504,-0.79035646,9.898616,0.29937744
698014586248,-1.0777588,10.37762,0.81191164
698034454938,-1.0418334999999999,9.963282000000001,0.15567628
698054310810,-1.0178833,9.457932000000001,-1.0418334999999999
698074166810,-1.0466236,9.4507475,-1.8250049
698094022810,-1.089734,9.592053,-1.7292042
698113878682,-1.1903248,9.546548,-1.1855347
698133735126,-1.2741505,9.529783,-0.85741705
698153591126,-1.219065,9.553733,-0.91729254
698173446998,-1.1112891000000003,9.72378,-1.2525953
698193302998,-1.094524,9.778865,-1.5016773
698213158870,-1.0873389,9.783655,-1.5807129
698233009612,-1.1999048,9.582474000000001,-1.3699511999999998
698252865484,-1.3651612,9.553733,-1.0250684
698272721228,-1.4274316999999999,9.491463000000001,-1.0035132
698292577100,-1.3364209999999999,9.436378,-1.3891114
698312432844,-1.22146,9.481883,-1.6501685000000001
698332291765,-1.099314,9.64714,-1.5567628
698352147637,-0.9651929,9.644744000000001,-1.2933106
698372003509,-0.8765772,9.695039999999999,-1.2070899
698391859381,-0.8286768,9.678274,-1.3220508
698411715381,-0.9699829,9.596844,-1.4010864
698431567175,-1.094524,9.589659,-1.2765454
698451422919,-1.1448194,9.644744000000001,-1.1855347
698471278663,-1.1615845,9.584868,-1.22625
698491134407,-1.089734,9.577683,-1.3220508
698510990279,-0.97956306,9.707015,-1.3867163999999998
698530845151,-0.9580079,9.642349000000001,-1.3986914
698550700895,-0.977168,9.611214,-1.4130616000000003
698570556639,-1.101709,9.517808,-1.3364209999999999
698590412383,-1.1448194,9.517808,-1.3172607
698610268127,-1.2022998,9.613608000000001,-1.2789403999999998
698630122219,-1.1328443000000001,9.740545,-1.2861254999999998
698649972891,-1.0346485,9.745335,-1.3412110000000002
698669828507,-0.8981324,9.735755000000001,-1.3148658000000002
698689684251,-0.8861573,9.639954,-1.3244458000000001
698709539995,-0.98914313,9.503438000000001,-1.2981006000000002
698729399311,-1.1112891000000003,9.532178,-1.3603711
698749255055,-1.1591895,9.524992999999998,-1.2789403999999998
698769110927,-1.2597803,9.568104,-1.2957056999999998
698788966671,-1.3939015,9.568104,-1.2454101999999998
698808822415,-1.3723463,9.704619000000001,-1.2310401000000002
698828676384,-1.2478052,9.697434,-1.1711646
698848532128,-1.1184741000000002,9.769285,-1.2358301999999999
698868387872,-0.9580079,9.6686945,-1.2525953
698888243616,-0.9196875,9.570497999999999,-1.2046948999999998
698908099360,-0.9580079,9.524992999999998,-1.1256591999999999
698927959206,-1.0873389,9.448353,-1.1376343
698947815078,-1.1999048,9.469908,-1.1639795
698967670950,-1.2981006000000002,9.666299,-1.2765454
698987526822,-1.2478052,9.939331,-1.3412110000000002
699007382694,-0.9627979,9.927357,-1.4394068000000002
699027247276,-0.852627,9.642349000000001,-1.1663746000000002
699047103404,-1.1759547,9.651928999999999,-0.8214916999999999
699066959532,-1.453777,9.438772,-1.0585986
699086815660,-1.4106666,9.359736,-1.4082716
699106671660,-1.214275,9.5633135,-1.2645704
699126525776,-1.0657837,9.644744000000001,-1.0777588
699146381904,-1.0873389,9.671089,-1.2573853000000002
699166238032,-1.2981006000000002,9.70941,-1.4322218
699186094160,-1.1927198,9.663903999999999,-1.2837305
699205950288,-0.9484278,9.651928999999999,-1.099314
699225798395,-0.9484278,9.6686945,-1.1352394
699245654267,-1.0466236,9.453142,-1.1759547
699265510139,-1.1136841999999998,9.477093,-1.1927198
699285366011,-1.1496094,9.697434,-1.2549903
699305221883,-1.1520045,9.673484,-1.3555812
699325078091,-1.1663746000000002,9.745335,-1.334026
699344934091,-1.2022998,9.635164,-1.2310401000000002
699364789963,-1.1735597,9.623189,-1.1783496
699384645963,-1.219065,9.594449000000001,-1.1831397
699404501835,-1.2358301999999999,9.616004,-1.1711646
699424357835,-1.1543995,9.560919,-1.1879296999999998
699444211922,-1.0681788,9.539363,-1.2573853000000002
699464067666,-1.0609937,9.594449000000001,-1.1783496
699483923282,-1.1472143999999997,9.666299,-1.1711646
699503779026,-1.219065,9.608819,-1.1304493
699523634770,-1.1184741000000002,9.589659,-1.1088941
699543496323,-0.97956306,9.656719,-1.096919
699563352195,-1.0059083,9.673484,-1.1088941
699583208067,-1.099314,9.604028999999999,-1.1472143999999997
699603063811,-1.0226734,9.453142,-1.1280543
699622919683,-0.97956306,9.592053,-1.0825489
699642742951,-0.9867481,9.843531,-1.0250684
699662598183,-0.98435307,9.754914999999999,-1.0681788
699682453543,-0.9987232,9.707015,-1.0609937
699702308903,-0.974773,9.611214,-1.0705738
699722164135,-0.94603276,9.534574000000001,-1.0250684
699742031391,-0.9915381,9.558523,-1.099314
699761887007,-1.1328443000000001,9.685459,-1.0825489
699781742495,-1.1160791,9.735755000000001,-1.0753639
699801598111,-1.0873389,9.72857,-1.1448194
699821453599,-1.099314,9.637559,-1.1232642
699841318418,-1.1855347,9.649534,-1.0657837
699861174034,-1.3028906999999998,9.654325,-0.9412427
699881029778,-1.2909156000000002,9.642349000000001,-0.91250247
699900885522,-1.1567944,9.584868,-1.0274634
699920741138,-1.1352394,9.532178,-1.0298585
699940611265,-1.1208692,9.625584,-1.0370435
699960467265,-1.1136841999999998,9.7142,-0.9651929
699980323137,-1.0538087,9.7621,-0.9699829
700000179137,-0.93405765,9.659114,-1.0418334999999999
700020035137,-0.92926764,9.558523,-1.0585986
700039898451,-1.0035132,9.5489435,-0.95561284
700059754579,-1.0490186000000001,9.635164,-0.977168
700079610707,-0.974773,9.750125,-0.9244776
700099466835,-0.90052736,9.759705,-0.8909473
700119322963,-0.9699829,9.678274,-0.91010743
700139184369,-1.0681788,9.6758795,-1.0106983
700159040625,-1.0681788,9.616004,-0.9412427
700178896881,-1.0370435,9.64714,-0.87897223
700198753137,-1.1064991000000002,9.570497999999999,-0.977168
700218609265,-1.0801538,9.580078,-1.1472143999999997
700238461228,-1.1112891000000003,9.565708,-1.089734
700258317356,-1.1424243,9.683064,-0.9987232
700278173484,-1.1783496,9.711803999999999,-0.977168
700298029612,-1.1520045,9.82437,-1.0609937
700317885740,-1.1448194,9.678274,-1.0705738
700337734913,-1.1352394,9.532178,-1.0777588
700357590913,-1.1232642,9.486672,-1.0753639
700377446913,-1.0106983,9.529783,-0.96040285
700397303041,-0.8334668,9.671089,-0.95561284
700417159041,-0.79993653,9.740545,-0.91010743
700437007610,-0.8214916999999999,9.740545,-1.0562036
700456863482,-0.8478370000000001,9.764495,-1.1496094
700476719354,-0.9388476999999998,9.70941,-0.9963281999999999
700496575226,-1.0633887,9.584868,-0.92208254
700516431098,-1.1663746000000002,9.601633999999999,-0.91250247
700536285603,-1.2094848999999999,9.606423,-0.9651929
700556141475,-1.2118799999999998,9.608819,-1.0154883
700575997347,-1.1735597,9.639954,-1.096919
700595853219,-1.1759547,9.692644,-1.096919
700615709091,-1.1041040000000002,9.692644,-1.0633887
700635567876,-1.0442286,9.702225,-1.0130934
700655422640,-1.0035132,9.704619000000001,-1.0059083
700675278640,-0.9915381,9.618399,-1.0921290000000001
700695134640,-0.98435307,9.618399,-1.096919
700714990640,-0.9196875,9.611214,-1.0178833
700734843208,-0.84544194,9.625584,-1.0011181999999998
700754699080,-0.8478370000000001,9.711803999999999,-1.0873389
700774554952,-0.93405765,9.7621,-1.1496094
700794410824,-1.0370435,9.702225,-1.0585986
700814266824,-1.1041040000000002,9.692644,-0.99393314
700834120884,-1.0609937,9.649534,-0.98195803
700853976756,-0.98435307,9.587264,-0.97237796
700873832628,-0.92208254,9.565708,-0.96758795
700893688372,-0.9053174,9.635164,-0.9963281999999999
700913544244,-0.8598120000000001,9.692644,-1.0178833
700933400197,-0.85023195,9.721385,-1.096919
700953256069,-0.89573735,9.671089,-1.0083033000000001
700973111813,-0.9196875,9.580078,-0.8861573
700992967685,-0.94603276,9.601633999999999,-0.93405765
701012823557,-0.9316626,9.604028999999999,-1.0274634
701032689423,-0.97956306,9.702225,-1.0801538
701052545551,-1.0370435,9.7142,-0.977168
701072401679,-0.94603276,9.759705,-0.8981324
701092257807,-0.90771246,9.778865,-0.9364527
701112113807,-0.92208254,9.735755000000001,-1.0154883
701131971690,-0.89573735,9.6686945,-1.0490186000000001
701151827946,-0.8981324,9.656719,-0.9987232
701171684074,-0.98435307,9.577683,-0.91010743
701191540330,-0.98195803,9.541758999999999,-0.91250247
701211396586,-0.98914313,9.618399,-0.90052736
701231234745,-0.97237796,9.759705,-0.9412427
701251090233,-0.98195803,9.77647,-0.94603276
701270945721,-0.974773,9.778865,-0.9268726
701290801337,-0.977168,9.718989,-0.8669971
701310656825,-1.0274634,9.695039999999999,-0.97237796
701330514359,-1.0633887,9.632769,-1.0633887
701350369847,-1.0250684,9.608819,-0.9867481
701370225463,-0.8813671999999999,9.620794,-0.87897223
701390080951,-0.8095166,9.637559,-0.97237796
701409936567,-0.8765772,9.711803999999999,-1.1400293
701429799046,-0.8909473,9.72857,-1.1376343
701449654790,-0.87418216,9.72857,-1.0585986
701469510534,-0.8765772,9.673484,-1.0346485
701489366150,-0.91010743,9.671089,-1.0011181999999998
701509221894,-0.9412427,9.632769,-0.9484278
701529091425,-0.92926764,9.565708,-0.97956306
701548947553,-0.9053174,9.630374,-1.0585986
701568803553,-0.9412427,9.72378,-1.0370435
701588659681,-0.96040285,9.802814999999999,-0.95561284
701608515681,-0.9627979,9.78605,-0.92208254
701628371687,-1.0346485,9.702225,-0.93405765
701648227943,-1.1256591999999999,9.601633999999999,-0.9867481
701668084071,-1.1711646,9.608819,-1.0418334999999999
701687940199,-1.0490186000000001,9.627979,-0.9580079
701707796327,-0.9627979,9.637559,-0.86939216
701727662180,-0.9508228000000001,9.695039999999999,-0.9963281999999999
701747518564,-0.93405765,9.656719,-1.0585986
701767375076,-0.89573735,9.6615095,-1.0466236
701787231460,-0.86939216,9.654325,-0.95561284
701807087844,-0.86220706,9.704619000000001,-0.85741705
701826937212,-0.9364527,9.7621,-0.80712163
701846793596,-1.0035132,9.721385,-0.8382569
701866649852,-0.95561284,9.625584,-0.86220706
701886506236,-0.87897223,9.695039999999999,-0.8334668
701906362620,-0.7951465,9.802814999999999,-0.852627
701926219845,-0.74006104,9.793235000000001,-0.86220706
701946076101,-0.7113208000000001,9.649534,-0.8430469
701965932485,-0.76161623,9.517808,-0.8047266
701985788741,-0.7711963000000001,9.527389,-0.7544312
702005645125,-0.67539555,9.659114,-0.63707525
702025502429,-0.60354495,9.869876,-0.70174074
702045358685,-0.80233157,9.862691,-0.8669971
702065214941,-1.0346485,9.877061,-0.99393314
702085071325,-1.1232642,9.74773,-0.9244776
702104927581,-1.0777588,9.5633135,-0.68737066
702124781952,-1.0705738,9.460327000000001,-0.64186525
702144638208,-1.0250684,9.426797,-0.8214916999999999
702164494464,-0.98195803,9.707015,-0.90771246
702184350848,-0.98195803,9.735755000000001,-0.78556645
702204207104,-0.8669971,9.754914999999999,-0.7831714
702224053394,-0.76880133,9.735755000000001,-0.7711963000000001
702243909522,-0.76880133,9.742939999999999,-0.6945557
702263765650,-0.8286768,9.702225,-0.72569096
702283621778,-0.8646021,9.685459,-0.6993457
702303477778,-0.80712163,9.570497999999999,-0.6610254
702323327384,-0.74006104,9.594449000000001,-0.68018556
702343183384,-0.81191164,9.642349000000001,-0.6945557
702363039256,-0.81909674,9.75731,-0.76161623
702382895256,-0.81191164,9.807606,-0.8334668
702402751128,-0.80233157,9.740545,-0.84544194
702422602672,-0.8430469,9.673484,-0.91729254
702442458545,-0.8909473,9.632769,-0.9364527
702462314288,-0.9316626,9.594449000000001,-0.8669971
702482170160,-0.9508228000000001,9.6686945,-0.79754156
702502025905,-1.0083033000000001,9.68067,-0.77359134
702521882251,-0.93405765,9.683064,-0.92208254
702541737995,-0.8669971,9.711803999999999,-1.0514137
702561593868,-0.8382569,9.75252,-0.9699829
702581449611,-0.8933423,9.716595,-1.0154883
702601305355,-0.98195803,9.683064,-0.9316626
702621161228,-0.9268726,9.683064,-0.8885523000000001
702641018646,-0.91729254,9.635164,-0.90052736
702660874898,-0.9651929,9.702225,-0.9244776
702680730771,-0.9580079,9.716595,-1.0202783000000002
702700586642,-0.92208254,9.764495,-1.0538087
702720442282,-0.9388476999999998,9.766891000000001,-1.0202783000000002
702740298027,-0.96040285,9.630374,-0.9436377
702760153770,-0.9316626,9.5633135,-1.0298585
702780009642,-0.95561284,9.529783,-1.0562036
702799865387,-1.0250684,9.553733,-1.0729688
702819717064,-1.0753639,9.616004,-0.9196875
702839572680,-1.0538087,9.702225,-0.974773
702859428425,-1.0130934,9.793235000000001,-1.1041040000000002
702879284168,-0.9963281999999999,9.869876,-1.2046948999999998
702899139912,-0.9532178,9.649534,-1.0178833
702918995529,-0.9244776,9.565708,-0.9196875
702938846499,-0.9915381,9.553733,-0.9508228000000001
702958702115,-1.0035132,9.606423,-1.0178833
702978557604,-0.9196875,9.733359,-0.9532178
702998413219,-0.89573735,9.726174,-0.9436377
703018269437,-0.9412427,9.656719,-1.0825489
703038125054,-1.0106983,9.798025,-1.0418334999999999
703057980541,-0.9867481,9.716595,-0.8430469
703077836157,-0.89573735,9.635164,-0.86939216
703097691774,-0.9651929,9.64714,-1.0011181999999998
703117547535,-0.97956306,9.613608000000001,-0.98195803
703137403151,-1.0130934,9.5633135,-0.9268726
703157258768,-1.0585986,9.72378,-0.9029224
703177114383,-0.95561284,9.716595,-1.0011181999999998
703196969999,-0.9244776,9.742939999999999,-1.0226734
703216825616,-0.9364527,9.79084,-0.96758795
703236681956,-0.99393314,9.584868,-0.8885523000000001
703256537572,-0.98914313,9.580078,-0.94603276
703276393189,-0.9364527,9.649534,-0.9364527
703296248804,-0.92926764,9.6758795,-0.9484278
703316106242,-0.977168,9.632769,-0.9699829
703335961987,-1.0370435,9.695039999999999,-1.0514137
703355817602,-1.0178833,9.742939999999999,-1.0154883
703375673346,-0.9484278,9.73815,-0.9532178
703395528963,-0.9484278,9.642349000000001,-0.974773
703415383627,-0.98435307,9.536968,-1.0442286
703435239115,-0.9987232,9.604028999999999,-1.0466236
703455094732,-0.9867481,9.630374,-0.94603276
703474950347,-0.977168,9.702225,-1.0178833
703494805835,-1.0178833,9.721385,-1.0418334999999999
703514661452,-0.96758795,9.74773,-1.0825489
703534529104,-1.0106983,9.75252,-1.0226734
703554384848,-1.0202783000000002,9.695039999999999,-0.9699829
703574240721,-1.0106983,9.644744000000001,-0.9963281999999999
703594096592,-1.0059083,9.582474000000001,-1.0562036
703613961503,-1.0274634,9.568104,-1.1184741000000002
703633817504,-1.0442286,9.620794,-1.0562036
703653673631,-0.99393314,9.75731,-1.0418334999999999
703673529759,-0.9915381,9.74773,-1.0394385
703693385760,-1.0250684,9.721385,-1.0849438999999999
703713241887,-1.0202783000000002,9.625584,-1.0226734
703733097844,-0.974773,9.575289,-1.0250684
703752953973,-0.97237796,9.599238,-1.0202783000000002
703772810100,-0.9436377,9.587264,-0.977168
703792666228,-1.0059083,9.644744000000001,-1.0346485
703812522357,-1.0250684,9.7740755,-1.0011181999999998
703832376795,-1.0226734,9.75731,-1.0250684
703852232795,-0.98195803,9.77647,-0.98914313
703872088924,-0.9508228000000001,9.692644,-0.9412427
703891944923,-0.974773,9.594449000000001,-0.97956306
703911798142,-0.98435307,9.572892999999999,-0.9508228000000001
703931654143,-1.0130934,9.620794,-0.9412427
703951510142,-0.97237796,9.627979,-0.9699829
703971366142,-1.0059083,9.6686945,-1.0777588
703991222143,-1.0490186000000001,9.721385,-1.0442286
704011078142,-1.0370435,9.745335,-0.9963281999999999
704030941115,-0.9699829,9.733359,-0.89573735
704050797244,-0.9699829,9.616004,-0.9915381
704070653371,-1.0394385,9.601633999999999,-1.0825489
704090509627,-1.0585986,9.551338000000001,-1.0011181999999998
704110365756,-0.9963281999999999,9.6686945,-0.91729254
704130217764,-0.974773,9.74773,-0.98435307
704150073764,-1.0154883,9.6758795,-1.0609937
704169929893,-1.0106983,9.695039999999999,-1.0202783000000002
704189786020,-0.98435307,9.639954,-0.9029224
704209638072,-0.9388476999999998,9.587264,-0.977168
704229494201,-0.9651929,9.596844,-1.0130934
704249350200,-1.0178833,9.718989,-0.96040285
704269206328,-0.97956306,9.673484,-0.87178713
704289062329,-0.9196875,9.649534,-0.91250247
704308918328,-0.9580079,9.697434,-1.0585986
704328767044,-0.9963281999999999,9.707015,-1.0514137
704348622917,-1.0011181999999998,9.642349000000001,-0.9316626
704368478916,-0.9651929,9.620794,-0.87178713
704388334788,-1.0154883,9.575289,-0.9148975
704408190789,-1.0729688,9.572892999999999,-0.97237796
704428043081,-1.0466236,9.651928999999999,-0.98914313
704447898953,-1.0154883,9.704619000000001,-0.9508228000000001
704467754826,-0.99393314,9.7812605,-0.98195803
704487610697,-1.0226734,9.745335,-0.98914313
704507466441,-1.0154883,9.663903999999999,-0.96758795
704527322314,-1.0322535,9.642349000000001,-0.8909473
704547174546,-1.0466236,9.596844,-0.9484278
704567030290,-1.0059083,9.558523,-1.0035132
704586886035,-1.0178833,9.632769,-0.98195803
704606741778,-1.0466236,9.649534,-0.9412427
704626592225,-1.0083033000000001,9.742939999999999,-1.0130934
704646447842,-0.98435307,9.7621,-1.0466236
704666303585,-0.9627979,9.716595,-1.0274634
704686166554,-1.0274634,9.656719,-0.94603276
704706022171,-0.977168,9.594449000000001,-0.8214916999999999
704725875098,-0.91010743,9.599238,-0.86220706
704745730586,-0.9148975,9.604028999999999,-0.9915381
704765586075,-0.9364527,9.666299,-1.1448194
704785441562,-0.9436377,9.70941,-1.0705738
704805297178,-0.9244776,9.656719,-1.0059083
704825152667,-0.87418216,9.735755000000001,-1.0083033000000001
704845000346,-0.8813671999999999,9.678274,-0.8885523000000001
704864855706,-0.9268726,9.520203,-0.91729254
704884711067,-0.98195803,9.618399,-1.0154883
704904566426,-0.96040285,9.72378,-0.95561284
704924423432,-0.8478370000000001,9.75731,-0.8214916999999999
704944278793,-0.9029224,9.733359,-0.852627
704964134024,-0.98435307,9.75731,-0.98914313
704983989384,-0.9627979,9.68067,-1.0059083
705003844617,-0.86939216,9.70941,-0.8646021
705023693899,-0.88376224,9.637559,-0.85741705
705043549003,-0.9436377,9.5489435,-0.9436377
705063404108,-0.9987232,9.582474000000001,-1.0538087
705083259339,-0.9987232,9.685459,-0.9364527
705103114443,-0.96758795,9.70941,-1.0083033000000001
705122969548,-0.98435307,9.745335,-1.0274634
705142826333,-1.0178833,9.707015,-1.089734
705162681565,-1.0705738,9.654325,-0.9699829
705182536670,-1.0250684,9.642349000000001,-0.977168
705202391901,-1.0226734,9.620794,-0.9987232
705222256903,-1.0490186000000001,9.594449000000001,-1.0202783000000002
705242112264,-1.0178833,9.639954,-1.0154883
705261967751,-0.9244776,9.68067,-1.0226734
705281823111,-0.9412427,9.695039999999999,-1.1376343
705301678472,-1.0083033000000001,9.75731,-1.0442286
705321533346,-0.9627979,9.663903999999999,-0.97237796
705341388706,-0.9699829,9.649534,-1.0035132
705361244067,-0.9651929,9.639954,-1.0538087
705381099426,-0.9580079,9.594449000000001,-0.977168
705400954786,-0.9436377,9.651928999999999,-0.97956306
705420810147,-0.94603276,9.711803999999999,-1.0777588
705440672064,-0.9268726,9.685459,-1.1615845
705460527680,-0.9364527,9.690249,-1.089734
705480383169,-0.9651929,9.651928999999999,-1.0274634
705500238656,-1.0226734,9.671089,-1.0657837
705520103750,-1.0226734,9.632769,-1.0657837
705539959367,-0.9963281999999999,9.616004,-1.0466236
705559815110,-0.9915381,9.589659,-1.0562036
705579670854,-0.977168,9.630374,-1.0921290000000001
705599526471,-1.0322535,9.692644,-1.0753639
705619382214,-0.98435307,9.754914999999999,-1.0538087
705639253946,-0.97956306,9.72378,-1.0370435
705659109947,-1.0059083,9.72378,-1.0130934
705678966074,-1.0130934,9.558523,-0.98195803
705698822202,-1.0250684,9.5633135,-1.0514137
705718678331,-1.0059083,9.659114,-0.9867481
705738538176,-0.9388476999999998,9.70941,-1.0202783000000002
705758394432,-1.0059083,9.663903999999999,-1.0705738
705778250561,-1.0753639,9.75252,-1.1352394
705798106816,-0.9867481,9.742939999999999,-0.9412427
705817962907,-0.8981324,9.522598,-0.8669971
705837819036,-1.0178833,9.520203,-1.1088941
705857675291,-1.1304493,9.601633999999999,-1.0633887
705877531547,-0.98435307,9.642349000000001,-0.9148975
705897387804,-0.87418216,9.800421,-0.8981324
705917244059,-0.9412427,9.72857,-1.0538087
705937098139,-1.0298585,9.754914999999999,-1.1064991000000002
705956954268,-1.0178833,9.687855,-0.89573735
705976810523,-0.9148975,9.618399,-0.852627
705996666651,-0.98435307,9.5489435,-1.0250684
706016522908,-1.0442286,9.608819,-0.97956306
706036383144,-0.9915381,9.584868,-0.90771246
706056239528,-0.98195803,9.68067,-0.97956306
706076095785,-0.95561284,9.73815,-1.0538087
706095952168,-0.8885523000000001,9.699829,-0.9963281999999999
706115811424,-0.87418216,9.690249,-0.9699829
706135667809,-0.9316626,9.64714,-1.0011181999999998
706155524320,-0.97237796,9.604028999999999,-0.9532178
706175380704,-0.97237796,9.601633999999999,-0.9148975
706195237089,-0.98435307,9.6686945,-0.9651929
706215093472,-0.98195803,9.711803999999999,-1.0274634
706234942621,-0.9651929,9.656719,-1.0585986
706254799006,-0.977168,9.75731,-1.0514137
706274655261,-0.9388476999999998,9.7142,-0.98914313
706294511517,-0.9388476999999998,9.685459,-1.0059083
706314367902,-0.9651929,9.635164,-1.0514137
706334213746,-0.9867481,9.639954,-1.0274634
706354069874,-1.0370435,9.630374,-1.0083033000000001
706373926003,-1.0226734,9.678274,-1.0250684
706393782130,-1.0370435,9.618399,-1.0298585
706413631303,-0.9484278,9.596844,-1.0609937
706433487304,-0.9053174,9.800421,-1.099314
706453343175,-0.8669971,9.795630000000001,-1.0777588
706473199175,-0.86220706,9.620794,-1.1232642
706493055176,-0.9627979,9.527389,-1.1064991000000002
706512911047,-1.1136841999999998,9.529783,-1.1567944
706532771454,-1.1280543,9.673484,-1.0729688
706552627583,-1.094524,9.721385,-0.98435307
706572483582,-1.1041040000000002,9.663903999999999,-0.9699829
706592339582,-1.094524,9.632769,-1.1783496
706612195711,-1.094524,9.6686945,-1.1232642
706632039367,-1.0322535,9.637559,-1.0777588
706651895111,-1.0681788,9.529783,-1.0466236
706671750856,-1.094524,9.532178,-1.1136841999999998
706691609306,-1.0633887,9.596844,-1.1352394
706711465050,-1.0514137,9.7142,-1.0490186000000001
706731320795,-1.089734,9.7812605,-1.0753639
706751177026,-1.0633887,9.79084,-1.0490186000000001
706771032770,-0.9987232,9.642349000000001,-1.0921290000000001
706790888387,-1.0202783000000002,9.539363,-1.1064991000000002
706810744130,-1.0490186000000001,9.613608000000001,-1.1208692
706830593712,-1.1208692,9.589659,-1.0490186000000001
706850449329,-1.0801538,9.575289,-1.0178833
706870304816,-1.0633887,9.678274,-1.096919
706890160432,-1.0609937,9.699829,-1.2118799999999998
706910015921,-1.0705738,9.78605,-1.2525953
706929866251,-1.0873389,9.68067,-1.0753639
706949721611,-1.0059083,9.524992999999998,-1.0729688
706969576972,-1.0705738,9.541758999999999,-1.2094848999999999
706989432459,-1.1807446000000001,9.568104,-1.0921290000000001
707009287819,-1.1831397,9.515413,-0.9580079
707029143180,-1.1472143999999997,9.673484,-1.0346485
707049008395,-1.1064991000000002,9.671089,-1.1879296999999998
707068864011,-1.101709,9.608819,-1.1160791
707088719500,-1.0849438999999999,9.623189,-1.0178833
707108574987,-1.0753639,9.5489435,-1.0370435
707128434229,-1.0921290000000001,9.570497999999999,-1.0585986
707148289846,-1.1136841999999998,9.656719,-0.9436377
707168145461,-1.0801538,9.5633135,-0.91729254
707188000949,-1.0490186000000001,9.493857,-1.0346485
707207856566,-1.0681788,9.580078,-1.0442286
707227721149,-1.0753639,9.613608000000001,-0.9484278
707247576893,-0.96758795,9.529783,-0.8047266
707267432766,-0.92208254,9.671089,-1.0130934
707287288509,-1.0274634,9.604028999999999,-1.0562036
707307144381,-0.9867481,9.340575999999999,-0.9651929
707327000254,-1.0418334999999999,9.395662,-1.0226734
707346857611,-0.9867481,9.577683,-1.0514137
707366713483,-0.9627979,9.611214,-1.0777588
707386569356,-1.0873389,9.592053,-0.9987232
707406425227,-1.1328443000000001,9.5489435,-1.0035132
707426280928,-1.0657837,9.616004,-1.0035132
707446136801,-1.0490186000000001,9.632769,-0.9412427
707465992672,-1.0418334999999999,9.541758999999999,-0.977168
707485848544,-1.0609937,9.486672,-0.97956306
707505704545,-1.0298585,9.541758999999999,-1.0059083
707525559404,-1.0154883,9.570497999999999,-1.0681788
707545415276,-1.0442286,9.541758999999999,-1.0442286
707565271149,-1.0585986,9.536968,-1.0442286
707585127020,-1.0921290000000001,9.553733,-1.094524
707604982892,-1.1041040000000002,9.457932000000001,-1.0418334999999999
707624838765,-1.101709,9.431587,-1.0059083
707644700530,-1.1280543,9.565708,-1.089734
707664556530,-1.1304493,9.560919,-1.1256591999999999
707684412659,-1.0825489,9.560919,-1.1064991000000002
707704268658,-1.0705738,9.592053,-1.1136841999999998
707724129388,-1.0274634,9.596844,-1.0346485
707743985517,-0.92926764,9.560919,-0.99393314
707763841772,-0.93405765,9.453142,-1.0370435
707783698028,-1.0202783000000002,9.457932000000001,-1.0442286
707803554157,-1.0418334999999999,9.501043,-0.99393314
707823410412,-1.0035132,9.596844,-1.0681788
707843263145,-1.0178833,9.604028999999999,-1.0585986
707863119274,-1.0083033000000001,9.5561285,-1.0298585
707882975401,-1.0921290000000001,9.536968,-1.0274634
707902831529,-1.0226734,9.532178,-1.0274634
707922687786,-0.9580079,9.565708,-1.1520045
707942542023,-1.0801538,9.558523,-1.0226734
707962398151,-1.0705738,9.477093,-1.0035132
707982254152,-1.0705738,9.560919,-1.0633887
708002110279,-1.0394385,9.592053,-1.0873389
708021972246,-0.9915381,9.513017999999999,-1.0562036
708041828375,-1.0633887,9.496253,-1.0633887
708061684502,-1.0585986,9.520203,-1.101709
708081540758,-1.0753639,9.515413,-1.099314
708101396887,-1.1064991000000002,9.462723,-1.0035132
708121253014,-1.089734,9.505833,-0.99393314
708141106905,-1.1663746000000002,9.572892999999999,-1.094524
708160963034,-1.1448194,9.5561285,-1.0585986
708180819289,-1.1136841999999998,9.5489435,-1.0226734
708200675417,-1.1591895,9.608819,-1.0394385
708220531546,-1.1783496,9.539363,-1.0442286
708240380499,-1.1567944,9.436378,-1.0322535
708260236499,-1.1831397,9.4435625,-1.0418334999999999
708280092500,-1.1999048,9.462723,-1.0202783000000002
708299948499,-1.2525953,9.510622999999999,-1.0226734
708319799629,-1.2861254999999998,9.501043,-0.98914313
708339655630,-1.3076807,9.589659,-0.9436377
708359511629,-1.2525953,9.620794,-0.8765772
708379367501,-1.1352394,9.551338000000001,-0.8598120000000001
708399223502,-1.0921290000000001,9.572892999999999,-0.8861573
708419079373,-1.1256591999999999,9.484278,-0.9244776
708438923237,-1.1472143999999997,9.4435625,-0.9867481
708458778982,-1.2358301999999999,9.445957,-0.92208254
708478634597,-1.219065,9.457932000000001,-0.7783814
708498490213,-1.0083033000000001,9.457932000000001,-0.7807764
708518345830,-0.8765772,9.532178,-0.9268726
708538203340,-0.6849755999999999,9.469908,-1.1520045
708558058956,-0.49576905,9.412427000000001,-1.2046948999999998
708577914573,-0.45984375,9.489068,-1.2358301999999999
708597770188,-0.46702883,9.539363,-1.219065
708617626566,-0.45744875,9.493857,-0.96040285
708637482311,-0.36883304,9.663903999999999,-0.91010743
708657337926,-0.17483643,9.8938265,-0.8885523000000001
708677193542,-0.27303225,9.726174,-0.99393314
708697049287,-0.7664063,9.759705,-0.80712163
708716908232,-1.3076807,9.733359,-0.17962648
708736762452,-1.4801221000000002,9.551338000000001,0.05508545
708756618069,-1.3220508,9.64714,-0.28500733
708776473684,-0.5484595,9.527389,-0.4382886
708796329300,0.05748047,9.503438000000001,-0.33290774
708816184917,0.26584718,9.5489435,-0.54366946
708836039214,0.4047583,9.508227999999999,-0.5724097
708855894830,0.37362307,9.481883,-0.3161426
708875750447,0.07424561,9.6615095,-0.021555176000000002
708895605934,-0.6514453,9.618399,0.45505372
708915463988,-0.8598120000000001,9.513017999999999,0.61552006
708935319605,-0.74006104,9.357342,0.33530274
708955175348,-0.5939649,9.484278,0.38320315
708975030964,-0.081430666,9.441168,0.56522465
708994886581,0.1460962,9.520203,0.30895755
709014742196,0.20597169,9.982442,0.0047900393
709034598854,-0.37362307,10.233919,-0.29698244
709054454471,-0.8310718,10.748847999999999,-0.728086
709074310086,0.07903565,11.931988,-0.22034179999999998
709094165702,0.79754156,12.765454,-0.46702883
709114021318,0.9268726,13.579761499999998,0.06466553
709133876934,1.7483643,14.001285000000001,1.5735278999999998
709153735201,3.2356715,13.747413,2.680027
709173590817,3.6548,13.273198999999998,1.2765454
709193446561,2.5842261000000004,13.371394,-1.2741505
709213302177,2.1004322,13.225299,-3.0225147999999997
709233157793,3.0368847999999997,10.277028999999999,-3.887117
709253001816,2.7470875,6.2941117,-2.8333082000000003
709272857304,1.1041040000000002,8.835227,-0.84544194
709292712664,0.20597169,12.604988,-0.56522465
709312568152,-0.5843848,13.828842999999999,-2.0261867
709332423512,-3.1997461,13.2564335,-2.0333717
709352282798,-4.380491,10.41115,-1.7555493999999998
709372138286,-1.3771361999999998,7.654483,1.1591895
709391993774,-0.87897223,7.561077,1.8585353
709411849262,-2.4501052000000003,8.411309,-0.19399660000000002
709431704878,-0.26584718,10.758429,0.81909674
709451564308,1.8369801,10.966795,2.1483326000000003
709471419796,1.6429833999999999,7.594607400000001,-1.3867163999999998
709491275284,0.059875492,5.005591000000001,-4.25595
709511130900,-1.6070582,4.0356083,-1.8106349
709530986388,-2.8357031000000004,3.0943654,0.85741705
709550853908,-3.6548,2.555486,1.2861254999999998
709570709652,-2.8859987,2.9722195,1.8920655
709590565524,-1.9064356,3.8799317,2.7207422
709610421268,-1.2621753,5.4750147,4.0164480000000005
709630277012,-1.1184741000000002,9.09868,6.593489
709650139558,-3.8392165,13.510304999999999,4.399651
709669995558,-6.919212,19.045197,3.9541774
709689851558,-5.125342,15.941251000000001,13.907879000000001
709709707558,-2.2225783,5.0367265,6.777905499999999
709729563558,-1.0083033000000001,4.9433207999999995,-1.710044
709749424507,-5.822293,17.064514000000003,-1.4322218
709769280635,-1.4346168,23.578968,2.8812087
709789136763,4.682263400000001,11.172767,-6.0498195
709808992891,4.8091992999999995,5.949229,-5.6666164000000006
709828849019,5.879773,7.745493400000001,-3.8895117999999993
709848704507,6.325247,11.714041,-2.5914113999999997
709868560763,0.8095166,14.712604999999998,3.7553910000000004
709888416891,-0.8861573,11.788286,3.4416432
709908273019,0.7711963000000001,8.310719,-3.4775686
709928129147,-1.3723463,6.3899126,-1.101709
709947985560,-2.4836354,6.4426026,0.3520679
709967841688,-3.0129347,7.652087700000001,-1.0777588
709987697816,-3.7673660000000004,7.8676395,-2.299219
710007553944,-2.9530592,8.0017605,-1.7627343999999998
710027410072,-1.4154567,9.321417,1.3483961000000002
710047272289,-1.1112891000000003,10.300980000000001,5.5492606
710067128545,0.36164796,10.559642,5.5372853
710086984801,1.1951148999999999,11.639795,-0.42870852
710106841057,1.9112256999999997,12.149935000000001,-4.3086405
710126697185,2.5027955000000004,11.975099,-0.14370118
710146557738,1.4202466,11.488909,3.5613942
710166414122,1.2837305,11.024275999999999,0.4622388
710186270506,-0.85741705,14.355747000000001,-3.3314724
710206126890,-1.585503,15.220348999999999,-3.7242556
710225983274,-0.16046631,11.829002000000001,-2.3351439999999997
710245829838,1.9232006999999998,10.631492999999999,-0.855022
710265686094,0.7807764,13.979729999999998,-1.8968556
710285542222,-0.43589357,15.761624,-2.5315359
710305398478,2.8572583,14.324613000000001,1.3627661
710325254734,2.8500732999999996,13.167817999999999,4.021237999999999
710345098475,-0.22752686,12.940291,2.663262
710364954475,-0.0023950195999999997,12.549903,-1.1112891000000003
710384810475,0.6658155,10.0063925,-4.3158255
710404666475,1.8465601000000003,6.071375,-5.910908
710424522347,1.0873389,3.666775,-6.4138627
710444374635,-0.81191164,3.6571949999999998,-4.2751102
710464230507,-2.8476784,4.3230104,-1.0777588
710484086379,-4.0811133,4.543352,0.4263135
710503942251,-4.277505000000001,4.505032,1.0154883
710523798123,-2.5147705,5.513335,1.5447876
710543655165,-1.0729688,8.155042,1.2502003000000002
710563511037,-2.7063723,13.292359,0.30177248
710583366909,-5.846243,14.238392000000001,6.7324004
710603222909,-0.7544312,10.746453,22.297632
710623078781,3.3961379999999997,9.364527,4.756508999999999
710642931315,-1.6477735,15.459851,-16.101717
710662787187,-0.11496094,14.089901000000001,-8.471185
710682642931,1.3412110000000002,7.4748564,-4.406836
710702498803,1.7890796999999998,8.195757,-6.5312185
710722359494,0.244292,12.382252000000001,-3.0536501
710742220577,-1.7794994999999998,13.665982000000001,1.3124708
710762076577,-3.1111305000000002,11.179952,7.2616997
710781932449,-1.3364209999999999,9.096285,0.019160157
710801788449,-1.8082398000000002,7.817344,-1.4465919
710821644449,-2.2249732000000004,7.5203614000000005,1.5471827
710841486125,-1.8800903999999998,7.6425076,0.10538086
710861341613,-1.2861254999999998,7.5203614000000005,-0.35925296
710881197229,-0.51013917,8.150250999999999,-1.096919
710901052717,0.21794678,9.010064,-2.5722509999999996
710920908333,-0.13651612,9.8938265,-2.4716603999999998
710940762614,-1.2957056999999998,10.423125,-0.70174074
710960618102,-0.9987232,10.7943535,0.32093263
710980473590,-0.31853762,11.5823145,0.7759864000000001
711000329078,0.3281177,12.027788000000001,0.58198977
711020184566,1.0849438999999999,11.790682,-0.6011499
711040041541,0.7759864000000001,11.213482,-2.2944287999999995
711059897029,-0.55324954,11.314072999999999,-0.69695073
711079752517,-0.366438,11.148816,1.346001
711099608005,0.1341211,11.55118,0.63707525
711119463365,0.488584,13.110337,-2.2393433999999997
711139328477,1.6142433,12.118799000000001,-4.0356083
711159184093,1.2645704,10.303374,-3.3051271
711179039837,-0.69216067,9.513017999999999,-3.4416432
711198895581,-2.567461,11.294912,-4.29427
711218751197,-2.8836036,12.79659,-4.761299
711238615273,-4.2918754,12.901971000000001,-2.7542725
711258471017,-5.0582814,11.383529,0.79754156
711278326889,-4.646338,9.965676,2.3423293
711298182761,-3.6955154,10.008787,1.6334034
711318038505,-3.032095,10.106983,0.8765772
711337892163,-1.8848804,9.383687,0.69695073
711357748035,0.32332766,8.423283999999999,-2.4141798
711377603779,-0.047900394000000006,8.140672,-2.3902297000000003
711397459651,-0.081430666,7.7502837,-2.2800586
711417315523,-0.16765137,5.757626999999999,-2.4812402999999996
711437176283,-1.705254,5.5516553,-0.12693603
711457032155,-1.3819263000000002,5.721702,1.3962965
711476888027,-0.83586186,6.696475,1.8082398000000002
711496744027,-1.0873389,7.6209526,1.5399976
711516599899,-1.2597803,7.6664577000000005,1.22146
711536464444,-0.9316626,7.9873905,0.7376661
711556320572,-0.8861573,8.981323,4.6654983
711576176700,-0.8885523000000001,8.703502,10.665023
711596032828,-1.0921290000000001,6.945557000000001,8.375383
711615888828,0.244292,6.171965599999999,3.3171022000000003
711635750690,2.0357666,5.8821683,0.28740236
711655606946,1.1831397,7.048543,-4.026028
711675463330,0.7185059,7.8868,-3.2668068
711695319714,-0.19399660000000002,11.079361,-0.22273682
711715175970,-3.532654,16.848963,4.4212065
711735040899,-3.1949563,18.757793,1.9327808999999998
711754897411,-3.5973196000000005,16.880098,-0.25147706
711774754051,-4.8355445999999995,11.625425,0.09101075
711794610563,-2.0309765,8.262817,-0.5843848
711814467203,-2.6345215,7.728728299999999,-1.6357985000000002
711834305118,-1.8944606,8.296348,-0.51971924
711854161246,-0.49337405,10.229128999999999,-0.63707525
711874017502,0.34967285,11.934382000000001,-1.1520045
711893873758,1.1663746000000002,11.563155,-2.2896388
711913730014,0.7113208000000001,9.5489435,-3.290757
711933589438,-0.97237796,8.669971,-2.5962012000000003
711953445694,-2.42855,8.8879175,-1.4250367
711973301822,-2.1315675,10.083033,0.89573735
711993158078,-0.5245093000000001,11.122471,8.693921000000001
712013014334,-0.8813671999999999,11.096126,5.0487013
712032873223,-1.9399658,10.679393,1.3388159
712052729607,-2.6417067000000003,10.447076,-0.6706055000000001
712072585863,-1.705254,9.580078,-1.8489552
712092442119,-1.6693287,9.541758999999999,-2.095642
712112298375,-1.477727,9.587264,-1.2478052
712132157745,-0.87897223,9.201666000000001,-0.34727785
712152014129,-1.7555493999999998,9.139395,-0.2682422
712171870513,-2.7518775,9.541758999999999,-0.09101075
712191726897,-2.9051588,10.595566999999999,0.8885523000000001
712211583153,-1.4394068000000002,10.902128999999999,1.6501685000000001
712231433502,0.07424561,10.291399,0.5939649
712251289758,0.07903565,9.73815,-0.16046631
712271146014,-0.732876,9.534574000000001,1.223855
712291002270,-0.92926764,9.000483500000001,2.2728736
712310858398,-1.0011181999999998,8.377778999999999,2.090852
712330713775,-0.7783814,8.260423,2.806963
712350570031,0.39517823,8.590936,3.0823902999999997
712370426287,1.6070582,9.038803999999999,1.4849122
712390282543,1.4034815,9.074729,-0.17723145
712410138799,-0.038320314,8.760982,0.1341211
712429995055,-0.7879615,8.188572,1.7004639
712449842649,-0.80233157,7.824528999999999,2.3686745
712469698649,-1.1831397,8.102350999999999,1.7435743000000001
712489554649,-1.9830762,8.909473,0.74724615
712509410777,-1.8345851000000002,9.604028999999999,-0.14849122
712529266777,-1.0466236,10.027947,-1.1687696
712549118717,-0.6346801999999999,9.944121,-1.2909156000000002
712568974589,-1.1136841999999998,9.649534,0.63707525
712588830589,-2.2680835999999998,9.905801,1.3052857
712608686461,-2.7710377999999998,9.941727,0.38799320000000004
712628542333,-2.4237599999999997,9.690249,0.62989014
712648397271,-1.8082398000000002,9.795630000000001,-0.9364527
712668253143,-1.0705738,10.679393,-1.3986914
712688109015,-1.0490186000000001,11.553575,0.5245093000000001
712707964887,-0.46463382,10.957214,1.2957056999999998
712727825320,0.22273682,10.080638,1.1855347
712747683471,-0.098195806,9.956097,1.3124708
712767539343,-0.36883304,9.620794,-0.16765137
712787395215,-0.62031007,9.515413,-1.0921290000000001
712807251087,-1.3651612,9.769285,-1.5950831
712827107087,-1.7531544,10.202784,-2.2321582
712846963579,-1.9423609,10.492581,-1.7723145
712866819451,-1.8345851000000002,10.406361,-1.1759547
712886675451,-1.6142433,10.035132,-0.033530276
712906531451,-1.1160791,9.879456,0.29937744
712926387323,-0.5939649,9.874666,-0.6777906
712946244139,-0.9053174,9.711803999999999,-1.4202466
712966100011,-1.2957056999999998,9.584868,-1.6980689999999998
712985956011,-1.7842896000000001,9.639954,-1.4034815
713005811883,-2.076482,9.72378,-1.1520045
713025667755,-1.9040406000000003,9.75731,-0.8933423
713045532690,-1.5974781999999998,9.793235000000001,-0.68737066
713065388690,-1.4873072,9.869876,-1.096919
713085244818,-1.5926881000000002,9.855506,-1.6142433
713105100946,-1.6190332,9.608819,-1.6980689999999998
713124956946,-1.4897022,9.524992999999998,-1.4394068000000002
713144813432,-1.331631,9.656719,-1.2909156000000002
713164669560,-1.3723463,9.606423,-1.1639795
713184525688,-1.2382251,9.376502,-1.1184741000000002
713204381816,-1.1783496,9.5489435,-1.3052857
713224238072,-1.2166698999999999,9.800421,-1.8824854
713244100886,-1.089734,9.539363,-2.4740553
713263957142,-0.728086,9.517808,-2.5243506
713283813398,-0.13891114,10.241104,-0.8909473
713303669654,-0.46702883,10.995535,-0.15328126
713323525910,-0.9388476999999998,10.391991,-1.477727
713343383604,-1.1064991000000002,9.704619000000001,0.24668702
713363239988,-1.6980689999999998,9.496253,0.26345217
713383096372,-1.7220191000000002,9.335787,-0.011975098
713402952756,-1.3747413,9.390872,-0.43349856
713422809140,-1.0202783000000002,9.912986,-0.7232959
713442651790,-0.9268726,10.509346,-0.64186525
713462507790,-0.73527104,10.547667,-0.9148975
713482363790,-0.5029541000000001,10.257869,-1.3819263000000002
713502219790,-0.80712163,9.687855,-1.587898
713522075662,-1.2070899,9.314231,-1.4441968
713541940999,-1.6956740000000001,9.558523,-0.76161623
713561797255,-1.8753004,9.632769,-0.57719976
713581653383,-1.5112573999999999,9.769285,-0.5748047
713601509639,-1.1783496,10.054293,-0.6777906
713621365895,-0.95561284,9.853110000000001,-1.0609937
713641222661,-0.8286768,9.496253,-1.8681153000000001
713661078917,-0.9412427,9.422008,-2.0525317
713680935173,-1.1831397,9.431587,-1.5639478
713700791429,-1.2909156000000002,9.584868,-1.0011181999999998
713720647685,-1.2981006000000002,9.740545,-0.85023195
713740507372,-1.3148658000000002,9.697434,-1.0418334999999999
713760363756,-1.2861254999999998,9.601633999999999,-1.334026
713780220140,-1.2549903,9.726174,-1.4034815
713800076524,-1.4178516,9.841136,-0.98435307
713819932908,-1.5519726999999999,9.850716,-0.7592211999999999
713839786319,-1.590293,9.81,-0.8669971
713859642575,-1.6836988000000002,9.915381,-0.8669971
713879498959,-1.6310083999999998,10.037527,-0.9867481
713899355215,-1.5016773,9.800421,-1.1543995
713919211599,-1.4585668999999999,9.560919,-1.1400293
713939073305,-1.4681469999999999,9.577683,-1.1831397
713958929817,-1.4226416000000002,9.594449000000001,-1.3579761000000001
713978786201,-1.3867163999999998,9.584868,-1.3747413
713998642585,-1.4226416000000002,9.702225,-1.4034815
714018499097,-1.5591576999999999,9.78605,-1.3986914
714038358686,-1.6573536,9.769285,-1.3244458000000001
714058215198,-1.6429833999999999,9.740545,-1.3004956
714078071710,-1.5328126,9.644744000000001,-1.2573853000000002
714097928222,-1.3915064,9.6758795,-1.3268408999999999
714117784606,-1.2573853000000002,9.735755000000001,-1.4753321000000001
714137635732,-1.1807446000000001,9.632769,-1.5136524
714157492116,-1.3052857,9.596844,-1.5064673000000002
714177348500,-1.4849122,9.546548,-1.4441968
714197204756,-1.5280225,9.505833,-1.4202466
714217061140,-1.4705421,9.553733,-1.3579761000000001
714236912233,-1.3986914,9.558523,-1.3699511999999998
714256768489,-1.3962965,9.503438000000001,-1.4465919
714276624745,-1.3891114,9.407638,-1.4034815
714296481001,-1.346001,9.359736,-1.3939015
714316337257,-1.3483961000000002,9.560919,-1.4250367
714336182406,-1.4897022,9.7142,-1.4992822000000001
714356038406,-1.5974781999999998,9.673484,-1.5040723
714375894406,-1.5926881000000002,9.570497999999999,-1.4920973
714395750406,-1.6214283,9.570497999999999,-1.3531861
714415606534,-1.590293,9.72378,-1.2981006000000002
714435458005,-1.4418018,9.587264,-1.3915064
714455313877,-1.2693603999999998,9.419611999999999,-1.4394068000000002
714475169749,-1.2525953,9.405242,-1.3579761000000001
714495025621,-1.331631,9.431587,-1.3220508
714514881493,-1.3220508,9.692644,-1.346001
714534742960,-1.1591895,9.788445,-1.2861254999999998
714554598960,-1.0322535,9.6615095,-1.3196558
714574454960,-1.0442286,9.577683,-1.2358301999999999
714594310960,-1.0418334999999999,9.592053,-1.1448194
714614166960,-1.1088941,9.5561285,-1.1543995
714634023478,-1.101709,9.529783,-1.1567944
714653879478,-1.1112891000000003,9.503438000000001,-1.1352394
714673735606,-1.0633887,9.702225,-1.2621753
714693591606,-1.1184741000000002,9.910591,-1.2909156000000002
714713447606,-1.101709,9.730965,-1.1663746000000002
714733308983,-1.1448194,9.546548,-1.1975098
714753164983,-1.2406201000000001,9.472302,-1.2549903
714773021111,-1.1448194,9.508227999999999,-1.1903248
714792877239,-1.1304493,9.436378,-1.1639795
714812733239,-1.1855347,9.422008,-1.1184741000000002
714832589993,-1.219065,9.575289,-1.1735597
714852446121,-1.1567944,9.7740755,-1.2358301999999999
714872302249,-1.1136841999999998,9.853110000000001,-1.1496094
714892158377,-1.1256591999999999,9.802814999999999,-1.1088941
714912014505,-1.1520045,9.584868,-1.1711646
714931872033,-1.2118799999999998,9.544153,-1.1927198
714951728161,-1.2334352,9.453142,-1.1711646
714971584289,-1.2789403999999998,9.410032000000001,-1.1400293
714991440417,-1.3244458000000001,9.524992999999998,-1.214275
715011296673,-1.2837305,9.649534,-1.2382251
715031151813,-1.2070899,9.75252,-1.1687696
715051007941,-1.2310401000000002,9.735755000000001,-1.1807446000000001
715070863941,-1.2813355,9.72857,-1.22146
715090720069,-1.3124708,9.568104,-1.1496094
715110576069,-1.2717555,9.462723,-1.0873389
715130438146,-1.2645704,9.489068,-1.0585986
715150294402,-1.2286451,9.558523,-1.0609937
715170150530,-1.2358301999999999,9.632769,-1.1567944
715190006786,-1.2549903,9.671089,-1.094524
715209863042,-1.219065,9.733359,-1.0514137
715229720809,-1.1807446000000001,9.750125,-1.1160791
715249577065,-1.1615845,9.671089,-1.096919
715269433193,-1.1999048,9.477093,-1.0514137
715289289449,-1.2981006000000002,9.496253,-1.099314
715309145705,-1.3555812,9.568104,-1.0585986
715329004678,-1.2885206,9.577683,-1.0538087
715348860934,-1.2837305,9.618399,-1.0753639
715368717190,-1.2765454,9.6758795,-1.0154883
715388573446,-1.2286451,9.730965,-1.0154883
715408429830,-1.1831397,9.721385,-1.0466236
715428285799,-1.1759547,9.594449000000001,-0.9987232
715448142055,-1.2070899,9.460327000000001,-0.98195803
715467998439,-1.3196558,9.534574000000001,-0.9268726
715487854695,-1.3412110000000002,9.735755000000001,-0.86220706
715507710951,-1.2645704,9.697434,-0.85023195
715527573643,-1.1639795,9.570497999999999,-0.9364527
715547430155,-1.1520045,9.565708,-0.977168
715567286539,-1.1903248,9.623189,-0.97956306
715587143051,-1.1639795,9.654325,-0.90052736
715606999563,-1.1496094,9.649534,-0.87418216
715626859232,-1.1400293,9.580078,-0.8909473
715646715872,-1.1639795,9.635164,-0.9268726
715666572512,-1.2118799999999998,9.7740755,-0.9867481
715686429152,-1.1352394,9.536968,-0.91250247
715706285792,-1.1112891000000003,9.481883,-0.852627
715726143296,-1.1711646,9.635164,-0.8143066999999999
715745999936,-1.1088941,9.627979,-0.8286768
715765856576,-1.0729688,9.606423,-0.9508228000000001
715785713344,-1.1232642,9.630374,-0.88376224
715805569984,-1.1496094,9.656719,-0.8765772
715825426520,-1.1472143999999997,9.718989,-0.8167017
715845283160,-1.099314,9.666299,-0.8167017
715865139800,-1.1208692,9.587264,-0.83586186
715884996568,-1.1735597,9.632769,-0.92208254
715904853208,-1.1639795,9.592053,-0.91010743
715924709848,-1.1759547,9.515413,-0.8861573
715944562422,-1.2046948999999998,9.616004,-0.84065187
715964419062,-1.1855347,9.891430999999999,-0.8430469
715984275574,-1.1448194,9.848321,-0.9196875
716004132086,-1.101709,9.711803999999999,-0.9987232
716023988598,-1.1400293,9.711803999999999,-0.9915381
716043842489,-1.2094848999999999,9.541758999999999,-0.9029224
716063698873,-1.2046948999999998,9.4435625,-0.87897223
716083555385,-1.2358301999999999,9.520203,-0.8669971
716103411769,-1.1999048,9.613608000000001,-0.9436377
716123268281,-1.1328443000000001,9.649534,-0.9915381
716143133136,-1.0657837,9.699829,-0.9436377
716162989776,-1.0825489,9.7142,-0.9484278
716182846416,-1.0609937,9.742939999999999,-1.0442286
716202703056,-1.0370435,9.692644,-1.0418334999999999
716222559696,-1.0681788,9.455538,-0.9053174
716242409137,-1.1448194,9.338181500000001,-0.87418216
716262265649,-1.2046948999999998,9.572892999999999,-0.9364527
716282122161,-1.1591895,9.733359,-0.98435307
716301978673,-1.1496094,9.726174,-1.0585986
716321835057,-1.1184741000000002,9.75252,-0.98195803
716341688826,-1.0226734,9.651928999999999,-0.98195803
716361545210,-0.99393314,9.632769,-1.0011181999999998
716381401722,-1.0705738,9.582474000000001,-0.8813671999999999
716401258234,-1.1112891000000003,9.474698,-0.8981324
716421114618,-1.089734,9.4507475,-0.97956306
716440966869,-1.1472143999999997,9.697434,-0.9436377
716460823125,-1.1496094,9.901011,-0.8861573
716480679509,-1.0083033000000001,9.922566,-0.9196875
716500535893,-0.96040285,9.726174,-0.96758795
716520392277,-1.0322535,9.560919,-1.0130934
716540251817,-1.1999048,9.527389,-1.0801538
716560108201,-1.2573853000000002,9.5489435,-0.8981324
716579964713,-1.2046948999999998,9.484278,-0.80712163
716599821097,-1.1496094,9.5561285,-0.8981324
716619677481,-1.094524,9.766891000000001,-1.0178833
716639533042,-1.0322535,9.855506,-1.0633887
716659389426,-0.96758795,9.721385,-1.0609937
716679245810,-1.1232642,9.699829,-1.0298585
716699102194,-1.1663746000000002,9.592053,-0.9388476999999998
716718958578,-1.1759547,9.383687,-1.0178833
716738815243,-1.2885206,9.374106,-1.0921290000000001
716758671627,-1.331631,9.570497999999999,-1.0250684
716778528011,-1.1783496,9.730965,-0.93405765
716798384395,-1.0250684,9.7621,-1.0873389
716818240779,-1.0250684,9.671089,-1.1903248
716838094944,-1.1448194,9.740545,-1.1951148999999999
716857951328,-1.1999048,9.721385,-1.0298585
716877807712,-1.1687696,9.594449000000001,-0.9580079
716897663968,-1.223855,9.498648,-0.97956306
716917520352,-1.2334352,9.496253,-1.0729688
716937371072,-1.2478052,9.606423,-1.1352394
716957227328,-1.2166698999999999,9.685459,-1.1783496
716977083584,-1.1472143999999997,9.632769,-1.0921290000000001
716996939840,-1.0921290000000001,9.702225,-1.1520045
717016795968,-1.1472143999999997,9.673484,-1.1328443000000001
717036656167,-1.1783496,9.596844,-1.0729688
717056512423,-1.1855347,9.498648,-0.99393314
717076368679,-1.0849438999999999,9.582474000000001,-1.0657837
717096224935,-1.0322535,9.6758795,-1.099314
717116081319,-1.0609937,9.690249,-1.1855347
717135934661,-1.1975098,9.616004,-1.1807446000000001
717155790917,-1.2573853000000002,9.627979,-1.2382251
717175647173,-1.2478052,9.613608000000001,-1.1088941
717195503301,-1.2525953,9.575289,-1.0921290000000001
717215359557,-1.2693603999999998,9.553733,-1.1136841999999998
717235217067,-1.2358301999999999,9.570497999999999,-1.1831397
717255073323,-1.1591895,9.656719,-1.1280543
717274929451,-1.1639795,9.6615095,-1.101709
717294785707,-1.1783496,9.606423,-1.0250684
717314641963,-1.1280543,9.551338000000001,-1.0657837
717334498688,-1.094524,9.68067,-1.096919
717354354944,-1.0849438999999999,9.685459,-1.0633887
717374211200,-1.0298585,9.620794,-1.0083033000000001
717394067328,-1.0442286,9.601633999999999,-1.0514137
717413923584,-1.0849438999999999,9.678274,-1.1232642
717433784450,-1.1064991000000002,9.735755000000001,-1.0585986
717453640706,-1.1112891000000003,9.721385,-1.0466236
717473497090,-1.1041040000000002,9.565708,-0.974773
717493353346,-1.1280543,9.498648,-1.1184741000000002
717513209602,-1.1831397,9.560919,-1.1759547
717533066997,-1.1208692,9.64714,-1.0562036
717552923381,-1.1400293,9.589659,-1.0442286
717572779637,-1.1543995,9.642349000000001,-1.0633887
717592636021,-1.2094848999999999,9.716595,-1.1184741000000002
717612492405,-1.1088941,9.718989,-1.0657837
717632348967,-1.1088941,9.606423,-1.0274634
717652205223,-1.1711646,9.560919,-1.0011181999999998
717672061607,-1.1879296999999998,9.570497999999999,-1.0514137
717691917992,-1.1328443000000001,9.618399,-1.089734
717711774375,-1.0729688,9.625584,-1.0083033000000001
717731636616,-1.099314,9.618399,-1.0130934
717751493129,-1.1160791,9.766891000000001,-1.089734
717771349640,-1.1136841999999998,9.74773,-1.0466236
717791206280,-1.1424243,9.635164,-0.97956306
717811062793,-1.2310401000000002,9.589659,-0.9867481
717830917006,-1.1591895,9.498648,-1.0394385
717850773518,-1.0801538,9.484278,-1.094524
717870629903,-1.101709,9.553733,-1.0442286
717890486414,-1.1352394,9.6758795,-1.0466236
717910346790,-1.1328443000000001,9.77168,-1.0729688
717930203431,-1.096919,9.77647,-1.0585986
717950059942,-1.1376343,9.673484,-0.9963281999999999
717969916454,-1.1543995,9.606423,-0.98435307
717989772967,-1.1256591999999999,9.565708,-0.977168
718009629478,-1.0801538,9.517808,-0.98914313
718029486452,-1.0681788,9.532178,-0.9484278
718049342965,-1.0921290000000001,9.687855,-0.98914313
718069199476,-1.0490186000000001,9.795630000000001,-0.9532178
718089056116,-1.0130934,9.833950999999999,-0.9412427
718108912629,-1.0633887,9.711803999999999,-0.94603276
718128773827,-1.1352394,9.606423,-1.0226734
718148630595,-1.1879296999999998,9.589659,-1.0466236
