UPTIMENANO,Ax,Ay,Az
662293177781,0.44717205,0.049207564,9.332433
662313034678,-0.1821706,-0.85955787,8.735569
662332891573,-0.48324943,-0.86444956,8.433672
662352748469,-0.7652768,-0.18261433,7.7748413
662372605366,-1.3056731,0.59965754,6.6432657
662392455845,-1.6841596,0.86497927,5.8117714
662412312485,-1.3613194,0.19325958,5.8377805
662432169126,-0.8583047,-0.87383986,6.848414
662452025893,-0.50851905,-0.9876436,7.8382373
662471885855,-0.9682014,-0.107887335,7.728643
662491742624,-1.6694694,0.5574904,7.969915
662511599391,-1.3006212,0.7296399,9.172175
662531456159,-0.3546904,0.5542157,10.37366
662551312800,0.029337797,0.13487893,10.2253
662571169567,-1.779124,0.23706503,11.06302
662591023933,-0.8787574,1.207112,9.962295
662610880574,0.18854108,0.1789537,11.809101
662630737341,0.35293943,-0.906156,13.552929
662650593981,-0.8542462,-0.40044507,13.105928
662670450750,-1.3701897,0.021288326,11.716289
662690309626,0.06784578,-0.96423405,11.901739
662710166394,1.4334512,-1.4882488,12.750018
662730023035,0.9083101,-2.0497735,12.162426
662749879802,1.3410091,-1.4687788,11.295437
662769736570,2.4477057,-0.50334173,10.993825
662789593211,2.5213065,0.6335553,10.336284
662809441243,1.6188116,0.263165,9.221258
662829297755,0.5041389,0.103703715,8.186129
662849154268,-0.28014705,0.5046834,7.3476286
662869010907,-0.5782885,0.38517243,6.8236346
662888865536,-0.41537318,0.13581854,6.770698
662908722049,0.10595455,-0.3258194,7.50326
662928578432,0.52832437,-0.4218317,7.9401674
662948434944,-0.44863504,0.032438487,7.1690907
662968291329,-1.5523895,0.19638677,7.160597
662988156927,-1.224273,-0.42179802,8.152483
663008013567,-1.1223133,-1.2484694,8.639685
663027870208,-1.2420636,-1.4613558,8.998627
663047726847,-1.4442945,-1.2455999,9.223892
663067583487,0.15482272,-1.148784,9.77733
663087440128,0.46315682,-1.6621675,11.06197
663107304319,-1.1470604,-1.283214,11.84111
663127161215,-1.5223162,-1.3106167,12.146566
663147018112,-0.51139045,-1.1393718,11.956413
663166875007,1.4019033,-1.2643698,13.082938
663186731635,2.8358638,-1.9665357,14.24295
663206588532,3.3478112,-1.3796748,13.894953
663226445299,2.1508644,-0.72586155,12.323151
663246302067,1.2380897,-0.8287276,10.793913
663266158964,0.6212285,-0.30239287,9.423048
663286010635,0.62853014,-0.059232622,10.327893
663305867275,0.37079972,-0.37777668,10.361677
663325724044,-0.24244039,-1.1906021,9.40313
663345580811,-0.08996181,-1.9035641,9.573706
663365437451,-0.45449495,-2.8153512,9.363602
663385294220,-1.0720448,-2.3829727,6.4033995
663405149975,-1.2335545,-1.0093919,5.141837
663425006615,1.7240466,0.09057855,6.055024
663444863256,0.07289436,-2.9920762,6.217389
663464719895,0.63694835,-3.9603217,5.882292
663484581838,1.1475327,-4.547316,7.2362256
663504438607,-0.025127651,-4.3165846,9.120747
663524295374,0.20758156,-3.3805637,9.448592
663544152142,0.6247182,-2.138814,9.291686
663564008911,1.2595353,-1.1950933,10.420119
663583865678,1.7091436,-0.94389,11.717803
663603718757,0.21729589,-1.8571911,10.59102
663623575398,3.8477328,-2.980911,11.823878
663643432165,3.0431216,-1.0475817,15.654012
663663288933,1.1478236,2.2217681,14.883085
663683145702,2.92557,0.8707904,12.164203
663703008040,1.2134554,-2.326209,11.993914
663722864808,2.2830656,-1.0167261,11.72635
663742721705,2.4619458,1.227502,11.130114
663762578600,0.33520716,0.013105471,9.611312
663782431619,-0.22028479,1.5152539,8.216818
663802288516,0.8070346,0.6760142,6.6898913
663822145411,1.759259,0.34572342,9.098978
663842002307,1.6376914,1.289925,9.119964
663861859076,0.43715072,2.2549596,7.372081
663881715971,-0.75838023,3.0415473,6.2901044
663901570709,-0.8198449,3.6927028,5.7045846
663921427478,-0.9475008,3.9305377,5.6219387
663941284245,-1.0312452,3.9999728,4.724056
663961141013,-1.2957414,3.2474701,4.4440756
663980997782,-0.77824515,2.2092636,5.5566983
664000857322,0.045731828,1.2409621,7.519952
664020714090,1.3957771,0.15376005,9.59483
664040570859,2.9507647,-0.12842265,11.767139
664060427626,2.283637,0.46781898,13.469977
664080281243,1.4039751,-1.1325375,15.267049
664100138012,0.6069314,-4.6352825,16.007196
664119994779,-0.39506742,-4.070213,12.999088
664139851547,3.7975821,2.4254456,13.986734
664159708315,6.5724444,3.915001,13.669975
664179565083,2.4580488,0.41818264,11.781435
664199421851,-2.7044704,-0.1816118,9.315333
664219269214,-5.7850766,5.610794,3.2567458
664239125726,-2.8861113,7.107259,3.2419558
664258982238,-0.08124309,0.9738954,7.667922
664278838878,-1.8433894,-1.1102664,7.978603
664298695390,-2.9960678,-0.36288702,5.218794
664318541186,-1.933254,0.4612756,3.446352
664338397570,-0.8710229,1.6133769,2.2621992
664358253954,0.4295374,2.500986,2.6716237
664378110338,1.9987864,3.339933,4.3311386
664397966722,3.9500704,3.519004,7.69998
664417815886,4.7328973,1.1713103,10.842763
664437672014,4.7286,-0.1334626,14.303522
664457528014,4.645603,-2.166393,16.012411
664477384142,4.6753697,-3.1008801,16.326157
664497240142,4.8784795,-3.0604975,16.973616
664517103060,3.5804648,-3.85783,18.774225
664536959188,1.2922891,-5.9198856,20.197308
664556815316,1.1955003,-7.378395,19.065577
664576671444,1.7292966,-7.706722,20.349031
664596527572,0.21663587,-3.6440117,21.044825
664616380402,-1.8658628,-2.748893,17.880987
664636236530,-5.611104,2.1533387,12.461431
664656092658,-1.4805512,6.309068,11.626621
664675948658,0.88193125,6.026744,14.473573
664695804786,1.9571699,2.333248,14.95702
664715663980,1.9406227,-1.8077966,13.685327
664735520108,2.9862347,-4.7710114,13.238212
664755376236,2.8695834,-3.0000226,11.263975
664775232492,-1.3194541,0.83914286,8.672038
664795088620,-0.9207502,2.290121,5.9570174
664814943748,-0.31882825,3.6461337,4.852305
664834799876,-0.31239063,2.7624593,5.438221
664854656004,-1.8989637,1.6026431,5.346234
664874512132,-3.3675365,-4.582597,7.5989347
664894368260,-1.3470887,-6.103327,7.5135026
664914224613,-1.3049088,-5.022826,7.1983566
664934080741,-0.12389671,-7.6859484,7.2700515
664953936741,-0.59839857,-5.7217436,4.1120996
664973792869,0.124964386,-2.8958075,3.2293074
664993648869,0.34528804,-2.0647743,5.588036
665013516127,0.03910591,-1.1282651,6.943651
665033372383,-1.9650811,-2.6173003,8.757007
665053228639,-3.5618181,-2.794352,11.484412
665073085023,-3.4022155,-2.357214,12.359534
665092941279,-2.6003604,-2.385132,10.52149
665112798206,-2.7371655,-3.2617586,7.9490833
665132654590,-3.5897508,-4.859345,11.199236
665152510846,-2.3286695,-4.39217,13.57762
665172367230,-1.0027789,-1.9452597,12.756816
665192223614,-2.9770095,-0.08076477,10.605911
665212079808,-3.6444805,-0.10749627,9.7533045
665231936192,-3.1811996,-3.5583675,12.466606
665251792448,-1.0454352,-4.158158,14.180662
665271648832,-0.35019967,0.5516772,15.3066435
665291505088,3.3648934,2.6868575,12.000539
665311360279,5.78981,6.568354,10.124174
665331216663,3.8931084,9.214496,8.733703
665351072919,2.494532,9.779011,9.836248
665370929303,0.61588985,6.810063,13.811169
665390785559,-0.8808892,7.121303,11.85737
665410642753,-0.61467075,2.5036726,4.0158606
665430499137,-6.029646,-2.269184,2.1938105
665450355393,-7.012332,1.8857005,6.1463757
665470211777,-3.9728465,1.0495363,5.925132
665490068161,3.934135,-2.4166462,4.552015
665509933444,6.529684,-7.882271,10.298821
665529789956,6.5511775,-8.073929,12.066141
665549646468,3.4591033,-6.9061785,11.263949
665569502980,1.2995845,-2.6618297,11.190244
665589359492,4.736002,1.0688957,10.664791
665609225568,6.315538,2.2593338,12.2755375
665629082464,3.2693994,1.2934759,12.515243
665648939232,0.4332772,1.6776247,10.777885
665668796128,3.2837126,5.1990156,7.5076337
665688652896,3.0375528,8.017794,6.0226164
665708515332,2.2314758,7.7027607,9.633003
665728372356,-3.833051,7.2415066,8.46915
665748229252,-7.229785,8.459798,10.862075
665768086276,-4.0020537,5.41857,11.126974
665787943172,-2.4151802,2.621174,7.72901
665807797264,-2.2456534,1.1517495,4.941775
665827654160,-2.5280719,0.14958625,5.277526
665847511056,-2.7799137,-0.29542512,5.908823
665867367952,-3.5442965,0.07147347,6.5072584
665887224976,-1.765429,1.8755711,5.78743
665907078684,-0.15111011,1.7587415,5.66018
665926935452,1.4406602,0.90625805,10.137466
665946792220,2.509126,-0.4567992,13.576052
665966649116,3.7431202,-2.2217977,13.405011
665986505884,6.22958,-3.729436,12.447243
666006364922,4.9162965,-0.89241123,13.972273
666026221818,9.643313,-1.0145351,19.063927
666046078586,4.336533,-6.3077765,16.971354
666065935354,3.15582,-4.419469,12.30026
666085792250,3.5195394,-0.20336545,9.34015
666105651875,0.3602962,-1.0009025,6.727854
666125508771,0.294907,-3.0793657,9.999584
666145365795,-1.0822871,2.664502,16.451878
666165222819,-13.178941,14.037379,21.329058
666185079715,-8.139443,3.7961783,17.34399
666204929119,-1.4578351,1.1392503,14.241433
666224786015,0.6902158,-1.3496188,14.45162
666244642783,3.7645712,-2.0196428,13.4818535
666264499551,0.7852908,-4.6020064,11.164615
666284356319,-0.90834004,-1.175599,5.525031
666304207496,0.34570682,4.4348087,1.8907353
666324064136,1.0714211,4.620613,1.0544205
666343920904,1.3765154,9.347182,-1.7575983
666363777544,3.3422244,6.1156025,0.81194764
666383634312,0.092136666,3.395253,3.8677526
666403488050,-3.5184548,1.0994737,3.9609468
666423348118,-5.7399387,-1.5256062,3.6711893
666443204630,-5.1406493,-4.012464,5.919296
666463061270,0.5251633,-4.1523814,10.0375185
666482917782,0.4935404,-3.873721,13.406685
666502763473,-3.777992,-2.1540043,16.10172
666522619857,2.4744134,-15.080827,20.857498
666542476241,10.838122,-9.610363,19.122553
666562332625,-4.0849915,7.6266265,13.116074
666582188881,-7.2473974,8.8294935,16.314829
666602046337,-0.2714088,6.2838984,12.770209
666621902849,0.12150826,4.098133,10.785298
666641759233,-4.604536,0.2121981,8.819734
666661615617,-6.1088324,1.0806929,7.154359
666681472129,-5.218192,3.4893177,4.6521263
666701329590,-1.9833765,6.025177,4.90245
666721185974,-0.41613021,5.4894533,6.254617
666741042358,-4.9181457,5.320629,7.4167004
666760898742,-5.771772,5.865128,7.0782475
666780755254,-1.6597325,3.601056,5.8989077
666800609466,-1.6141874,0.8731884,8.772132
666820465850,-0.9177982,0.299467,10.0332775
666840322234,5.5852604,-5.227093,9.171808
666860178490,14.747259,-11.632628,7.5632663
666880034874,3.014805,-2.6646602,7.5612655
666899889843,-2.4657464,4.609264,9.615695
666919746099,-1.9301844,7.913076,9.356417
666939602355,2.0661328,5.3194747,9.842235
666959458611,10.940772,-6.660728,11.744232
666979314867,9.082665,-6.574888,10.481047
666999179344,0.8269797,3.9018445,11.38506
667019035600,1.775645,3.4057271,12.254106
667038891984,3.675127,-1.5485793,11.767403
667058748368,1.5955058,-1.8564028,12.823415
667078604752,2.6529331,0.68908644,13.320706
667098466993,3.0958443,3.0008209,12.135796
667118323505,-0.58752054,5.3404036,13.384815
667138180017,-1.9815298,4.9145813,17.555334
667158036529,-6.627062,-0.33530125,18.451632
667177892913,-5.9396157,-1.9927303,13.300874
667197749425,-0.98777854,-0.2348159,9.188975
667217616969,2.7665021,-1.9921963,9.584291
667237473737,0.48174798,0.43654186,7.64261
667257330505,-1.6141918,3.5094962,6.5307183
667277187145,-1.3946053,4.4141297,5.7582865
667297043913,-0.8989425,3.7023225,2.1290963
667316907684,-1.0191281,1.298877,1.0223916
667336764580,-3.1298428,-1.2519673,2.519393
667356621476,-2.7361207,-1.8606838,3.771543
667376478372,-1.9496396,-0.46911153,5.059608
667396335268,-3.4197106,-1.4939157,7.005029
667416202671,-4.063569,-3.7122061,9.27419
667436059695,2.2219,-6.7013364,16.889938
667455916847,13.781114,-10.45261,21.541471
667475773999,9.138955,3.0346622,17.173174
667495631023,-8.058342,15.42139,10.550064
667515500249,-10.299835,7.1534,7.854819
667535357657,-2.5499287,1.3926342,5.4437566
667555215065,0.7927868,2.2461252,3.2843058
667575072473,-0.85375506,3.52702,7.0533724
667594929881,-8.642536,0.37530884,12.86557
667614790452,-5.22021,-2.7015595,13.539263
667634647988,2.80472,-3.5901434,11.725063
667654505524,1.0270013,3.3976052,10.16597
667674363188,1.1030813,2.825975,9.498723
667694220724,-0.4643391,2.2217484,7.479371
667714067872,-1.1940464,2.5866303,5.8277397
667733925280,-0.83594006,0.036067374,7.5666556
667753782688,1.1424856,-4.297663,9.954688
667773640224,2.2468755,-4.2172527,9.396624
667793497632,1.6043754,-0.8932427,8.67963
667813356210,0.3711551,1.7201847,9.316438
667833213746,0.582963,1.21435,9.569019
667853071282,2.6552522,-0.09351812,9.587284
667872928690,3.9703305,-0.884776,10.038998
667892786226,3.205139,0.4828445,10.72426
667912647730,1.5271769,1.4183863,12.0392
667932505266,0.5130895,0.3984542,14.77291
667952362930,0.36783588,-0.9199506,14.930399
667972220466,-0.72315395,0.20696533,11.350589
667992078130,-1.8939362,2.0624716,8.731197
668011941267,-2.4595952,2.251753,10.2802725
668031799059,-3.1408868,2.0032868,11.393702
668051656851,-1.7796019,0.7703995,9.223683
668071514515,1.3197879,-0.21086212,8.661896
668091372307,1.4110862,1.1361623,8.853367
668111219158,-0.4444159,2.8511097,7.6703825
668131076694,-1.4515065,2.4792526,6.5660543
668150934102,-2.19341,1.4344894,6.692249
668170791638,-1.1226233,2.3444915,7.5394096
668190649046,-1.9723036,3.3897576,10.187129
668210501413,-3.2531714,1.554245,13.021088
668230358693,-1.7520617,-2.4311433,12.883364
668250216101,2.4642558,-3.17532,13.265901
668270073381,2.9557657,-3.6412401,9.369366
668289930789,-3.5872905,0.7861515,8.329876
668309781454,-2.2029152,4.234374,8.053667
668329638606,-1.5536909,2.5464585,8.7095995
668349495886,-1.0952288,1.9917157,10.2358465
668369353038,-0.22737683,3.0914152,11.538262
668389210318,1.3432473,2.0731502,11.754366
668409061929,2.173836,-3.0334067,10.763809
668428913308,0.40480283,-4.0043654,10.172733
668448770332,0.25754216,-4.3223863,10.066899
668468627356,0.9858914,-1.3721807,10.630344
668488484380,1.6569421,2.6397347,10.740694
668508337710,1.7905024,2.8174846,10.152557
668528194606,0.6466531,0.3161683,9.878923
668548051630,-0.5700188,1.1286769,9.875762
668567908526,-0.72951335,1.7567527,9.634538
668587765422,-1.1370358,0.15538353,9.566275
668607614333,-1.2529961,0.2710757,9.536627
668627471101,-0.9908479,0.7318176,9.645842
668647327741,-0.68789685,0.4706386,9.997714
668667184509,-0.3481591,-0.3722837,10.171444
668687041277,0.019808307,-0.40070304,10.173982
668706895638,0.18921322,0.2172333,10.089696
668726752278,-0.027427126,0.67725456,9.999785
668746608918,-0.33947763,0.752403,9.933016
668766465558,-0.41838378,0.43767837,10.035936
668786322198,-0.3044817,0.39910987,10.013904
668806179733,-0.096036345,0.8286813,9.800387
668826036373,-7.6592114E-4,0.2885328,9.671354
668845893013,0.30449224,0.11756788,9.54566
668865749653,0.6037425,0.03535639,10.068409
668885606293,0.761439,-0.010326124,10.226592
668905464566,0.4822184,-0.29099312,9.61527
668925321206,0.09040339,-0.43803698,9.652856
668945177974,-0.39068243,-0.5924529,10.126018
668965034614,-0.86433876,-0.31291622,10.344524
668984891254,-0.47507685,0.5269837,9.921777
669004753843,0.5494389,0.77455765,9.757749
669024610611,1.14389,0.21236429,9.990116
669044467379,0.72837025,0.09020386,10.156156
669064324275,-0.18268745,-0.11674783,9.850733
669084181043,-0.44460583,-0.020459116,9.709718
669104037293,-0.064834304,-0.19194177,9.619125
669123894061,0.62860954,-0.13269895,9.906392
669143750957,1.006197,0.03279614,10.134174
669163607853,0.8788736,0.27669638,10.154738
669183464749,0.5115369,0.32093257,10.059193
669203327165,0.3440551,0.3496239,9.694542
669223184189,0.37032285,0.20453286,9.743051
669243041085,0.5469378,-0.08301735,9.98965
669262898109,0.70009255,-0.20288084,10.030593
669282755005,0.622392,-0.16561943,10.135888
669302602272,0.5729905,0.17650113,9.796321
669322458912,0.4633925,0.45092684,9.678493
669342315680,0.35684168,0.4506835,9.628943
669362172320,0.28400537,0.4027845,9.602143
669382028960,0.18034896,0.23365007,9.7436695
669401890237,0.09949472,0.15256445,9.794836
669421746877,-0.039531775,0.06348675,9.80349
669441603645,-0.069109075,0.14022481,9.776488
669461460413,-0.042456724,0.22338884,9.911727
669481317181,-0.0051843235,0.30417687,9.8618
669501183957,0.046248306,0.22736083,9.637164
669521040853,0.08293174,0.284388,9.691144
669540897877,0.08362169,0.20951825,9.7294855
669560754773,0.11862355,0.1667698,9.759615
669580611797,0.010573413,0.03780711,9.886531
669600466809,0.070587136,-0.005615938,9.818125
669620323961,0.16199842,0.1720115,9.7631855
669640180985,0.26141575,0.21235119,9.711655
669660038009,0.4313732,0.2133091,9.687457
669679895033,0.51938486,0.101475246,9.860458
669699756718,0.49807623,0.065200716,9.827006
669719613742,0.3620142,0.14145097,9.75841
669739470894,0.28935638,0.10915488,9.782221
669759328046,0.28217274,0.05195366,9.6793995
669779185070,0.3054044,0.048457995,9.742963
669799041356,0.32769805,-0.024336204,9.751067
669818898508,0.35448408,0.023420082,9.698306
669838755660,0.36722612,0.13927473,9.802638
669858612812,0.32468566,0.1186374,9.836635
669878469964,0.28531966,0.08212256,9.762145
669898325543,0.18857604,-0.0072400915,9.778203
669918182695,0.14343186,-0.034677975,9.797843
669938039719,0.14139512,0.007235674,9.67679
669957896871,0.20290938,0.087365925,9.713706
669977753895,0.3225715,0.09142037,9.845918
669997613514,0.4558032,0.044539474,9.7567425
670017470666,0.5070264,0.15919153,9.675694
670037327818,0.4923777,0.13731682,9.632932
670057184970,0.46624357,0.055264253,9.604861
670077042122,0.40984467,0.01514757,9.902623
670096900706,0.40947485,-0.06874953,9.905242
670116757858,0.44206187,-0.016260335,9.852427
670136615138,0.34144342,0.08755246,9.726324
670156472290,0.3227286,0.08954631,9.639568
670176329570,0.3428583,0.05227808,9.680205
670196174964,0.40249422,-0.00571913,9.750129
670216031988,0.42517,0.0676335,9.801834
670235888884,0.37500325,0.08463909,9.835294
670255745780,0.31202254,0.05266177,9.736219
670275602804,0.19026317,0.11220315,9.700477
670295454537,0.18489203,-0.058671728,9.630707
670315311433,0.20241138,-0.10615506,9.5836735
670335168201,0.12827039,-0.121190555,9.771389
670355024969,0.10023423,-0.07721646,9.841101
670374881865,0.12366085,0.07739457,9.824051
670394737365,0.055953257,0.19076325,9.887601
670414594133,5.2791677E-4,0.12048243,9.782184
670434446906,-0.06290536,0.012992959,9.746306
670454303674,-0.021275394,-0.12303265,9.690152
670474160442,0.08864717,-0.08761329,9.671618
670494006403,0.17294851,0.010318035,9.740007
670513863043,0.26491353,0.09047467,9.752807
670533719555,0.32423022,0.106976554,9.814311
670553576195,0.39932612,0.029234724,9.845321
670573432707,0.35331753,0.031570654,9.782476
670593289347,0.2913241,0.0392796,9.576725
670613147418,0.19581097,0.106929794,9.713859
670633003930,0.124983594,-0.0050401813,9.750039
670652860570,0.11777247,-0.033332232,9.793792
670672717210,0.13324398,-0.10339192,9.922977
670692573722,0.16436285,-0.044698652,9.76579
670712424370,0.22869143,0.07329249,9.675162
670732280754,0.31660345,0.099923335,9.717487
670752137138,0.47729358,0.14966528,9.656143
670771993522,0.67803335,0.15905233,9.749945
670791849906,0.7600453,0.14417644,9.916732
670811703382,0.6340411,0.1636399,9.755845
670831559638,0.41800827,0.17829493,9.619467
670851416022,0.29338992,0.08623655,9.509421
670871272406,0.35741526,0.01769484,9.669791
670891128790,0.3180159,0.0071824295,9.933619
670910991158,0.22166365,0.10965443,9.939606
670930847670,0.18182082,0.16164863,9.818764
670950704054,0.20931359,0.09270517,9.650222
670970560438,0.25598204,0.048077043,9.692828
670990416822,0.27236578,0.02213468,9.718967
671010273937,0.23175713,0.0589675,9.605252
671030130449,0.19660282,0.05227472,9.752186
671049986833,0.23693518,-0.070410155,9.801947
671069843217,0.24344113,0.016316947,9.756179
671089699601,0.21331649,0.09014948,9.776412
671109562531,0.31607017,0.062720045,9.756529
671129419171,0.3643844,0.07898099,9.600642
671149275683,0.35200083,0.09803715,9.709829
671169132323,0.3108871,0.050584134,9.665846
671188988835,0.26030162,0.0776099,9.755013
671208849979,0.26664162,0.06273331,9.766175
671228706619,0.2300433,0.062444046,9.7550535
671248563131,0.21054484,0.04902963,9.807428
671268419771,0.20015557,0.0803003,9.794922
671288276411,0.1665781,0.12680107,9.737425
671308128917,0.18406901,0.04925004,9.80779
671327985429,0.21231192,0.007136656,9.846989
671347842069,0.19267493,0.10999649,9.758134
671367698581,0.100826286,0.17793006,9.776219
671387555221,0.17808063,0.13344258,9.760772
671407421613,0.28697792,0.13763034,9.622763
671427278381,0.27042285,0.1517265,9.698598
671447135149,0.26617563,0.16722253,9.736432
671466991917,0.25863567,0.1862771,9.733029
671486848685,0.26911977,0.1434811,9.894377
671506706915,0.20241335,0.087190144,9.731322
671526563811,0.15857252,0.05070492,9.739063
671546420579,0.20967373,0.04250719,9.795967
671566277347,0.21339275,0.07234445,9.698134
671586134243,0.14447595,0.09519413,9.814688
671605992929,0.20037009,0.020084592,9.849023
671625849825,0.21819529,0.12266176,9.805806
671645706721,0.25244913,0.073250145,9.585558
671665563617,0.2253348,0.11905102,9.505361
671685420513,0.21491165,0.091589175,9.692218
671705283795,0.2536047,0.08954368,9.787479
671725140819,0.2654294,0.096617594,9.880404
671744997971,0.25979775,0.12856328,9.911123
671764854995,0.22538106,0.14684077,9.65483
671784712147,0.19750613,0.12733199,9.58936
671804564964,0.30927548,0.04851341,9.69328
671824421988,0.32507652,0.06321753,9.77351
671844279012,0.33700854,0.09021021,9.82772
671864136036,0.27748263,0.12806766,9.736391
671883993060,0.20793062,0.11546991,9.7773905
671903852222,0.22556324,0.0617608,9.737124
671923709374,0.28004888,0.118788674,9.73572
671943566398,0.24267085,0.15915127,9.667063
671963423422,0.17143907,0.15084845,9.718191
671983280574,0.17005932,0.032316178,9.802016
672003140048,0.23022757,0.007979967,9.907549
672022997200,0.24347834,0.109772645,9.811773
672042854352,0.20514639,0.16466391,9.723291
672062711504,0.13926835,0.1896684,9.713251
672082568656,0.13876936,0.15838508,9.775668
672102419055,0.15803893,0.14061834,9.675375
672122276079,0.11714948,0.12711243,9.708595
672142132975,0.10722743,0.10850472,9.778379
672161989999,0.10647532,0.21611892,9.832398
672181846895,0.14095218,0.311393,9.941927
672201699694,0.22277793,0.30812535,9.639033
672221556590,0.105065204,0.27640736,9.557709
672241413614,0.060891755,0.10173333,9.7852545
672261270510,0.16706197,0.04922088,9.778487
672281127406,0.1865214,0.075304165,9.859231
672300977676,0.17239362,0.14119038,9.863548
672320834444,0.13053681,0.21706575,9.768465
672340691212,0.21260725,0.21601199,9.734918
672360547980,0.2877068,0.20405294,9.58678
672380404620,0.19329876,0.17853062,9.607592
672400254311,0.1358202,0.097848006,9.821002
672420110823,0.26770952,0.076386385,9.8992
672439959190,0.19965276,0.16474229,9.884373
672459815830,0.09086317,0.21897234,9.69872
672479672342,0.09280883,0.2694452,9.634952
672499517064,0.2542758,0.23929285,9.697996
672519373448,0.30353174,0.18067946,9.751401
672539229704,0.24572805,0.1838672,9.788925
672559086088,0.23193698,0.22744767,9.819608
672578942472,0.20538008,0.28512275,9.758653
672598795107,0.2512242,0.26699713,9.670227
672618651363,0.21968777,0.23880453,9.712652
672638507619,0.2606179,0.21391912,9.745092
672658363747,0.2270365,0.24706933,9.786512
672678220003,0.2556096,0.26808923,9.76594
672698076845,0.19243567,0.32945707,9.768375
672717933101,0.24523006,0.24981926,9.715463
672737789357,0.2417066,0.24147919,9.731439
672757645485,0.33746803,0.22678469,9.672085
672777501741,0.19974811,0.26934987,9.802035
672797360636,0.19893266,0.16294388,9.780181
672817216892,0.19168161,0.10034825,9.822394
672837073148,0.1612701,0.01982482,9.840367
672856929404,0.095575616,0.10895782,9.672565
672876785660,-0.04134787,0.19973084,9.792951
672896639415,0.0032201777,0.12543814,9.757996
672916495415,0.08393351,0.12521897,9.72882
672936351543,0.12072058,0.075854994,9.770643
672956207671,0.018975599,0.1716808,9.726155
672976063799,-0.09309722,0.19841334,9.768838
672995928399,0.03911706,0.1519267,9.821407
673015784655,0.1426318,0.21200825,9.573203
673035641039,0.06373641,0.28411654,9.596051
673055497295,0.051832594,0.21878272,9.824003
673075353679,0.13566406,0.18591236,9.81923
673095214463,0.1474396,0.19694889,9.96725
673115070847,0.10765191,0.18334672,9.809443
673134927231,0.058905374,0.21083161,9.742332
673154783615,0.123729534,0.13209541,9.664255
673174639999,0.101921104,0.14975771,9.622564
673194497655,0.14892751,0.09080744,9.723235
673214354040,0.17665751,0.13597797,9.793767
673234210423,0.12738064,0.23458101,9.949832
673254066807,0.17228445,0.24572979,9.842238
673273923192,0.19187438,0.27569553,9.677043
673293784737,0.16450107,0.21999688,9.6064
673313641249,0.22754268,0.19185896,9.66682
673333497890,0.2567989,0.15478958,9.825094
673353354401,0.31624958,0.21208107,9.787941
673373215856,0.23244153,0.32445323,9.730222
673393072497,0.19843161,0.26286662,9.746662
673412929136,0.25982922,0.25824577,9.708987
673432785776,0.28346932,0.23969592,9.714267
673452642417,0.2778126,0.2386185,9.7734785
673472498928,0.16637261,0.17943877,9.772823
673492360302,0.19702882,0.11320868,9.89239
673512217071,0.25048992,0.18352607,9.686255
673532073838,0.21410559,0.20253977,9.61389
673551930606,0.12513569,0.17080867,9.6366
673571787375,0.16115369,0.14857967,9.673133
673591649577,0.1561642,0.14012018,9.861143
673611506473,0.22037008,0.13376506,9.758811
673631363370,0.13561715,0.18383363,9.826072
673651220393,0.192395,0.17344995,9.82009
673671077289,0.21516854,0.21525441,9.730846
673690934186,0.13468623,0.13291007,9.793103
673710801558,0.1589799,0.04547157,9.654456
673730658710,0.080494784,0.10491371,9.645389
673750515863,0.13696174,0.09134745,9.745924
673770373014,0.15448584,0.24541368,9.72525
673790225221,0.1582561,0.22998093,9.892637
673810082374,0.23538609,0.1750736,9.969477
673829939525,0.23021889,0.1562897,9.677922
673849796549,0.14214689,0.16256553,9.626891
673869653702,0.11558896,0.11726147,9.749183
673889511864,0.20413208,0.09510073,9.805967
673909369016,0.22967187,0.14721018,9.829223
673929226169,0.21968159,0.18620178,9.773849
673949083448,0.12687588,0.21293578,9.758097
673968940600,0.14762984,0.1786851,9.740669
673988797753,0.1857528,0.15538329,9.737308
674008660822,0.20937899,0.07459517,9.67179
674028518230,0.14253904,0.080152564,9.740755
674048375511,0.13750567,0.14790733,9.932136
674068232918,0.20153198,0.14852723,9.814843
674088078238,0.20228188,0.13968764,9.703274
674107935263,0.16781951,0.0980698,9.556492
674127792286,0.10148388,0.13532269,9.7070465
674147649310,0.17431273,0.063955426,9.970765
674167506335,0.33986548,0.061206598,9.778557
674187356982,0.24632925,0.10706824,9.735153
674207213878,0.21109192,0.07363489,9.66592
674227070775,0.15273882,0.20892017,9.7702265
674246927670,0.23257028,0.085210174,9.757128
674266784566,0.3253312,0.0959419,9.763722
674286641463,0.26997206,0.10619238,9.680603
674306487782,0.24229865,0.14844605,9.74564
674326344422,0.29681066,0.13662352,9.73891
674346201191,0.32923424,0.13371529,9.801559
674366057830,0.3346393,0.114389785,9.686306
674385906813,0.24044225,0.1329675,9.6971035
674405763326,0.2315837,0.11832964,9.800339
674425619837,0.31625563,0.07812112,9.820036
674445472394,0.30232322,0.11055772,9.907284
674465328907,0.29129082,0.10036209,9.756138
674485183857,0.17647885,0.16703296,9.654233
674505040369,0.19806215,0.10800304,9.715623
674524896754,0.2400731,0.083115734,9.694022
674544753137,0.21252735,0.10869055,9.716803
674564609649,0.21545984,0.101433724,9.79418
674584466034,0.21527398,0.14031583,9.835623
674604320661,0.22560796,0.16852409,9.878453
674624177045,0.21398504,0.12665571,9.805716
674644033430,0.16524604,0.08759624,9.662637
674663889813,0.17440179,0.06829782,9.571023
674683745191,0.17277041,0.059015006,9.796873
674703601576,0.26028892,0.019728797,9.85754
674723457831,0.31257972,0.12800021,9.853623
674743314215,0.25640172,0.2310504,9.774252
674763170472,0.2543359,0.18444313,9.703546
674783026855,0.2263485,0.07630891,9.750017
674802879471,0.23711348,0.018793814,9.701579
674822735728,0.18355435,0.060746808,9.683969
674842591983,0.12959042,0.06050593,9.8233385
674862448239,0.22744946,0.10853379,9.836724
674882304368,0.27419934,0.17426823,9.861112
674902156667,0.2980848,0.12670256,9.769121
674922012795,0.22527018,0.12642533,9.550589
674941868924,0.13990636,0.03844143,9.66141
674961725051,0.14569807,-0.027880903,9.883375
674981587725,0.17728296,0.026964556,9.800272
675001443854,0.18383777,0.16610423,9.803136
675021300109,0.18917204,0.20058335,9.650172
675041156365,0.14318022,0.21739769,9.765993
675061012622,0.26133853,0.09705732,9.690926
675080868749,0.32732058,0.20475452,9.746908
675100706774,0.38082278,0.12979488,9.821398
675120562647,0.3055517,0.18946448,9.724627
675140418518,0.17865534,0.25045845,9.7583
675160274262,0.30036628,0.25682694,9.709789
675180130135,0.38001564,0.19202997,9.599618
675199989182,0.3071296,0.10754922,9.655537
675219845054,0.20069501,0.15599778,9.721295
675239700927,0.12312906,0.1911282,9.817125
675259556798,0.2398735,0.11285042,9.998813
675279416852,0.30241612,0.12129862,9.855303
675299272853,0.17015111,0.2510582,9.764139
675319128852,0.042951494,0.18514746,9.680961
675338984852,0.014195783,0.075823896,9.700784
675358840853,0.08210794,-0.051454235,9.711966
675378696852,0.1824525,-0.018383784,9.677915
675398554455,0.084232174,0.15012263,9.749434
675418410328,0.021132834,0.2837266,9.753595
675438266327,0.11599647,0.24496388,9.859066
675458122327,0.16927594,0.18943037,9.724741
675477978328,0.05182172,0.17710362,9.717364
675497838836,0.066766985,0.07388981,9.79811
675517694964,0.115361,0.06843837,9.718509
675537550965,0.12920642,0.078752115,9.842057
675557407092,0.14095365,0.20674385,9.73101
675577272442,0.05706002,0.29653284,9.613532
675597128827,0.07917637,0.17388615,9.726235
675616985210,0.123870514,0.15920743,9.763034
675636841466,0.11230687,0.17235297,9.868007
675656697851,0.12842534,0.13329305,9.878092
675676554234,0.09077676,0.19400267,9.776386
675696419622,0.07216303,0.23322406,9.859084
675716276135,0.08820245,0.20935938,9.649771
675736132646,0.022778684,0.15248746,9.518186
675755989158,0.07276403,0.106086515,9.764837
675775845671,0.083106354,0.19680524,9.828411
675795697152,0.052286394,0.30153143,9.898557
675815553664,0.04653898,0.20040147,9.864693
675835410049,0.07318608,0.16865955,9.751831
675855266560,0.072409704,0.27923772,9.752059
675875123072,0.067135274,0.3187675,9.713719
675894979457,0.017442739,0.20681089,9.737831
675914835096,0.13883789,0.09431404,9.697874
675934691608,0.09586842,0.23032543,9.756983
675954547993,0.1200002,0.2744479,9.6962
675974404376,0.03403415,0.35915056,9.6762295
675994269208,0.059943695,0.29820126,9.716672
676014125721,0.14306189,0.2813084,9.830222
676033982360,0.18598157,0.220885,9.84398
676053838872,0.09751111,0.21470179,9.832023
676073695385,0.12031058,0.20270708,9.776301
676093551481,0.079078846,0.20107013,9.751113
676113407993,0.11548524,0.21579298,9.661635
676133264634,0.0500263,0.18370858,9.698235
676153121273,0.0286154,0.1719794,9.6827755
676172977785,0.08896604,0.23581772,9.743232
676192834426,0.10158455,0.2342502,9.889756
676212686157,0.09711155,0.23332664,9.754365
676232542669,0.094701104,0.24477828,9.773986
676252399310,0.10892484,0.18563943,9.828391
676272255821,0.05419935,0.15344536,9.623063
676292109324,0.03008512,0.09638975,9.697955
676311965837,0.06429529,0.08614314,9.764486
676331822348,0.058549073,0.16886258,9.781552
676351678860,0.10681197,0.22346224,9.920561
676371535373,0.13499294,0.22991805,9.782327
676391389865,0.06918556,0.19284727,9.758648
676411246377,0.12293603,0.13514149,9.648193
676431102890,0.08035733,0.22100611,9.618996
676450951535,0.1387078,0.17195351,9.802665
676470808047,0.15228671,0.18806884,9.866766
676490664560,0.08318949,0.2025659,9.935724
676510524661,0.10274361,0.25547522,9.810942
676530381173,0.12058457,0.29545498,9.57367
676550237814,0.030423978,0.21959825,9.5865
676570094325,0.052134328,0.1155003,9.722862
676589947607,0.14162567,0.09252407,9.846234
676609804248,0.22831805,0.16809519,9.804739
676629660759,0.052495148,0.21867314,9.831197
676649517399,0.03862772,0.24098942,9.755334
676669373912,0.1175662,0.25722378,9.757383
676689222877,0.1187159,0.22877492,9.716217
676709079133,0.07429062,0.10254279,9.7595625
676728935390,0.12239734,0.067121536,9.77125
676748791645,0.0820467,0.11801476,9.787558
676768647901,0.06850889,0.21472286,9.757099
676788504158,-0.07324619,0.26993814,9.78024
676808357457,0.109259605,0.18291548,9.684087
676828213713,0.040780943,0.16909839,9.677888
676848069970,0.0388495,0.0913571,9.746959
676867926097,0.060277354,0.17260355,9.754667
676887783005,0.07276486,0.20495988,9.863725
676907639134,0.13787937,0.21165782,9.815406
676927495389,0.1037024,0.25312525,9.825625
676947351517,0.06254972,0.24311812,9.771572
676967207646,0.12865408,0.263911,9.66576
676987063901,0.19406323,0.18436094,9.68448
677006926947,0.1564773,0.13609722,9.825429
677026783332,0.11027981,0.1700518,9.738218
677046639587,0.05612504,0.1631097,9.886327
677066495843,0.11034648,0.19528574,9.734483
677086352100,0.09113156,0.2481937,9.607623
677106204795,0.10703846,0.2255596,9.709241
677126061051,0.08968439,0.21258903,9.761126
677145917180,0.077780575,0.2363147,9.799006
677165773435,0.08009068,0.2016449,9.787491
677185632458,-0.019704757,0.16782968,9.7265005
677205488843,0.012410984,0.13560578,9.788963
677225345098,0.0751446,0.18603511,9.7053
677245201354,0.023804408,0.23867631,9.723387
677265057611,0.09370167,0.22590409,9.783684
677284913866,0.044765346,0.25553712,9.815901
677304767896,0.042995602,0.22560784,9.872837
677324624281,0.0891152,0.2352075,9.729794
677344480536,0.090808794,0.24390092,9.634537
677364336792,0.11443285,0.20175055,9.551425
677384193177,0.041065514,0.16138765,9.822926
677404051385,0.13261956,0.16019547,9.970876
677423907641,0.14228988,0.26647305,9.800865
677443763898,0.046329703,0.21872304,9.723956
677463620153,0.06862689,0.20010419,9.660007
677483482322,0.06860781,0.21601833,9.736317
677503338707,0.16633727,0.21023715,9.764967
677523195090,0.10479792,0.16709019,9.702473
677543051474,0.017997866,0.13592088,9.7948
677562907987,0.06032557,0.22098273,9.741501
677582764370,0.006836687,0.28121093,9.728759
677602627032,0.08798407,0.20048243,9.731612
677622483673,0.14171067,0.19177745,9.611346
677642340312,0.039360363,0.16922936,9.709719
677662196824,0.04315657,0.10977715,9.807812
677682053465,0.06257076,0.13523956,9.848685
677701912743,0.152446,0.09998376,9.930745
677721769383,0.11112041,0.16482382,9.693565
677741626152,-0.037058387,0.17543404,9.689755
677761482791,0.075094804,0.09033384,9.76953
677781331489,0.07285115,0.1070761,9.704575
677801188002,0.05085761,0.052108567,9.783861
677821044513,0.06391797,0.053681854,9.822736
677840901025,-0.061088298,0.07668129,9.857188
677860757538,-0.0016244773,0.10526603,9.912175
677880614049,-0.03156664,0.1501292,9.791494
677900469609,0.015248995,0.084721565,9.57501
677920326122,0.05373444,-0.0138489185,9.644957
677940182633,0.14117174,0.063009374,9.778039
677960039017,0.19235621,0.3203878,9.829241
677979895530,0.15943883,0.4963867,9.834603
677999754326,0.06404997,0.48508072,9.7987585
678019610838,0.14313583,0.38332075,9.679507
678039467351,0.20612432,0.33755875,9.711303
678059323862,0.1909154,0.29863995,9.734899
678079180734,0.12888265,0.19195221,9.661832
678099037247,0.14575395,0.0889215,9.843992
678118893886,0.13735537,0.15239567,9.868713
678138750398,0.07794189,0.23994824,9.731193
678158607039,0.07754052,0.24359539,9.602136
678178463550,0.017795177,0.23001595,9.649356
678198309584,0.08142526,0.102250524,9.890904
678218165841,0.12770005,0.091326036,9.884181
678238022096,0.07907204,0.086000085,9.7736225
678257878480,0.035808638,0.058955796,9.732503
678277734737,0.06159566,0.15213001,9.629084
678297585146,0.05382409,0.16300471,9.718484
678317441402,0.030790748,0.16640891,9.7785635
678337297531,0.034980837,0.1299587,9.728651
678357153786,0.06572283,0.097315036,9.808037
678377010042,0.08386572,0.15020357,9.748072
678396866171,0.043934338,0.21823381,9.854649
678416723962,0.123843506,0.23362838,9.806636
678436580090,0.1656987,0.2366712,9.657906
678456436347,0.11227186,0.19028951,9.645156
678476286976,0.05217242,0.11151252,9.69734
678496144086,0.112888485,0.04618018,9.776602
678516000215,0.20527253,0.17975281,9.862544
678535856470,0.20210876,0.33280924,9.782973
678555712598,0.11067474,0.35877088,9.827879
678575568855,0.11990513,0.28496322,9.74016
678595426791,0.1870318,0.2346337,9.618731
678615283047,0.21092883,0.19754198,9.699902
678635139304,0.13221505,0.1945597,9.704869
678654995559,0.07400438,0.18991677,9.748676
678674851815,0.11763102,0.21755907,9.825044
678694708072,0.13119946,0.29799676,9.797745
678714558823,0.13870957,0.26447332,9.7227745
678734414951,0.171605,0.19297363,9.792457
678754271080,0.12134718,0.20951036,9.762832
678774127207,0.12381269,0.22503057,9.70261
678793977520,0.13262047,0.16279984,9.8538885
678813833649,0.1510371,0.12987399,9.755639
678833689648,0.098994955,0.21593997,9.650945
678853545648,0.060901694,0.20606288,9.734461
678873401649,0.08726423,0.18587409,9.709025
678893257648,0.10512315,0.19049443,9.767011
678913112490,0.14234474,0.17185207,9.837308
678932968491,0.08234968,0.19760501,9.805727
678952824362,0.09609763,0.18175901,9.82055
678972680234,0.16154824,0.21847275,9.622025
678992536107,0.03460799,0.23207866,9.665962
679012393331,0.059355505,0.13896908,9.883562
679032249203,0.1428838,0.14178303,9.889596
679052105204,0.15581416,0.2334951,9.844821
679071961075,0.07206436,0.25098118,9.703554
679091816080,0.019909527,0.17410383,9.616192
679111672081,0.10125073,0.12927812,9.734066
679131527952,0.13266669,0.2046271,9.676426
679151383952,0.063701846,0.20692153,9.772439
679171239825,0.077399686,0.14372341,9.772364
679191095824,0.05522667,0.16681293,9.760934
679210957224,0.109370045,0.16750564,9.84181
679230813225,0.12694044,0.22700298,9.678053
679250669352,0.034264263,0.2312451,9.633543
679270525352,0.089863345,0.1440976,9.837782
679290381353,0.13543545,0.13426124,9.874504
679310235554,0.15278038,0.18171684,9.816354
679330091554,0.092348434,0.23916788,9.732644
679349947555,-0.03827251,0.23657677,9.702792
679369803682,0.020097962,0.1523953,9.6526785
679389658688,0.118915826,0.13462092,9.693508
679409514689,0.14045583,0.08957932,9.722292
679429370688,0.07655193,0.14344127,9.680931
679449226560,-0.011985896,0.19936319,9.778012
679469082561,0.023631662,0.26207983,9.844347
679488938560,0.12223312,0.32127193,9.899236
679508801277,0.16972469,0.30109954,9.791606
679528657406,0.06299431,0.20664127,9.599278
679548513533,-0.067571245,0.022479335,9.772523
679568369661,0.05410111,-0.047737416,9.689348
679588225662,0.03213683,-0.010602664,9.714863
679608090237,-0.015479848,0.011889033,9.915304
679627946621,-0.03907494,0.11567209,9.798114
679647802878,-0.02541772,0.15832116,9.789353
679667659261,0.015246654,0.15035583,9.705888
679687519881,-0.061643995,0.106765345,9.640819
679707376394,0.010748309,0.06904571,9.924326
679727232777,0.10625711,0.12186739,9.83381
679747089161,-0.0043723723,0.14158984,9.73162
679766945674,0.025123153,0.15036856,9.75603
679786802057,0.03391347,0.2528271,9.616761
679806652815,0.006276213,0.2916932,9.698581
679826509200,0.09168007,0.22186254,9.817329
679846365455,0.09405248,0.20762539,9.8136015
679866221839,0.086658396,0.22353455,9.873549
679886078096,-0.028620154,0.21811415,9.732687
679905934070,-0.10574633,0.2216308,9.657099
679925790326,0.067397885,0.18067749,9.628799
679945646583,0.0824327,0.2491254,9.752527
679965502838,0.13264877,0.3013859,9.742753
679985359094,0.029090183,0.31116325,9.764189
680005215351,0.0021667576,0.24486275,9.765503
680025074881,0.12921654,0.35122433,9.702433
680044931265,0.11143703,0.43826383,9.382886
680064787650,-0.04844135,0.27652535,10.111524
680084644033,0.23880132,0.2103458,10.014756
680104507305,0.14618617,0.30718285,9.6922455
680124363818,0.056574117,0.20250583,9.761942
680144220329,-0.13444993,0.12129842,9.845679
680164076969,0.124354035,0.16618654,9.712776
680183933482,0.023476446,0.25681514,9.673566
680203789118,-0.022576487,0.13641101,9.807815
680223645630,-0.0062063974,0.122526355,9.7315
680243502271,-0.023231968,0.24513543,9.79699
680263358782,-0.044115834,0.2652423,9.864185
680283215422,-0.008183269,0.21990918,9.684401
680303071935,-0.025757408,0.14711364,9.788338
680322920716,0.007240454,0.13259444,9.672222
680342777228,-0.022190936,0.13022202,9.624175
680362633613,-0.037310228,0.130763,9.807844
680382489996,-0.08947938,0.20303446,9.782472
680402342389,-0.045646016,0.1865404,9.899289
680422198646,0.019234158,0.19999303,9.876491
680442055029,-0.06834712,0.16469234,9.683677
680461911285,0.01533265,0.110832006,9.714475
680481767542,0.007862473,0.12425304,9.618617
680501624180,-0.04504958,0.090676405,9.766414
680521480564,0.049018178,0.18245034,9.840919
680541336949,-0.043898385,0.22804232,9.866881
680561193332,-0.02685142,0.17172195,9.8842945
680581049588,-0.023038238,0.22562727,9.70092
680600905973,-0.036828186,0.1641084,9.6431875
680620757955,0.035052642,0.11291808,9.703154
680640614211,-0.0027288387,0.108981445,9.737984
680660470468,-0.015381331,0.1703974,9.807709
680680326723,-0.030020194,0.23846234,9.837073
680700183380,-0.003202214,0.25673813,9.766584
680720039509,-0.062301558,0.19980593,9.711758
680739895764,-0.005872524,0.17512259,9.688916
680759752020,0.040315457,0.2070872,9.800982
680779608149,0.0832859,0.2037851,9.708652
680799459918,-0.07977203,0.1604369,9.749239
680819316046,-0.049111634,0.20368677,9.729479
680839172175,-0.037344735,0.27170065,9.778703
680859028302,-0.011551042,0.28183946,9.707203
680878884430,-0.064460985,0.20152783,9.654645
680898740559,-0.010102744,0.11759823,9.838592
680918592809,0.0135494685,0.16073003,9.827788
680938448809,-0.017337998,0.21875878,9.874658
680958304810,-0.081721045,0.20182672,9.825728
680978160809,-0.1670042,0.17528576,9.778228
680998017619,-0.09424373,0.15849592,9.756333
681017873620,-0.07465965,0.20432617,9.658576
681037729619,-0.070575215,0.12725991,9.63236
681057585491,-0.003989006,0.1490274,9.80718
681077441492,-0.08884495,0.20206118,9.865913
681097297491,-0.18687028,0.24435796,9.787917
681117158989,-0.20600525,0.16824175,9.871802
681137015118,-0.0664776,0.15031216,9.675555
681156871245,-0.08180149,0.15898791,9.644454
681176727245,-0.104052745,0.1346996,9.735122
681196583374,-0.0654141,0.13126455,9.766502
681216445102,-0.05680857,0.13062415,9.803343
681236301358,-0.15742448,0.12204953,9.758285
681256157615,-0.1969468,0.14247845,9.809537
681276013742,-0.15947425,0.20802851,9.7802725
681295865108,-0.15834941,0.13431196,9.753503
681315721237,-0.025678776,0.11162291,9.686369
681335577364,-0.04597378,0.08660003,9.743183
681355433620,-0.09568121,0.09943048,9.782738
681375289749,-0.10415765,0.1384015,9.759186
681395145876,-0.073806904,0.119644724,9.733529
681415003668,-0.10580741,0.14652115,9.664562
681434859797,-0.20380831,0.17672466,9.744091
681454716052,-0.18412402,0.18699554,9.88173
681474572180,-0.1155726,0.24378705,9.801356
681494428309,-0.10571168,0.26235193,9.735505
681514292898,-0.21576929,0.2842753,9.767968
681534149282,-0.21511286,0.26219633,9.667559
681554005539,-0.21840517,0.28399634,9.748892
681573861922,-0.17293091,0.28594556,9.785764
681593703385,-0.17440706,0.21764278,9.706438
681613559386,-0.17521663,0.107144296,9.733984
681633415513,-0.1483393,0.12412248,9.733575
681653271513,-0.15351851,0.13070399,9.860528
681673127514,-0.09965379,0.13197501,9.7071
681692983641,-0.07473146,0.068194486,9.734439
681712844517,0.0141217485,0.11869631,9.832202
681732700646,-0.14884241,0.16702913,9.7579975
681752556901,-0.12774971,0.20788172,9.752892
681772413029,-0.12233905,0.18701667,9.743796
681792269286,-0.09334567,0.19910948,9.76798
681812125681,-0.081688896,0.2228881,9.704174
681831981809,-0.107489504,0.13770609,9.712125
681851838066,1.8324032E-4,0.15247804,9.822577
681871694321,0.004043044,0.23575202,9.804153
681891550449,-0.11268914,0.16820587,9.740921
681911406706,-0.12968674,0.07342669,9.790561
681931270171,-0.031550378,0.1494211,9.721927
681951126555,-0.07593256,0.18245497,9.639933
681970982812,-0.08719816,0.08698389,9.694382
681990839067,-0.055753984,0.05707418,9.750094
682010704661,-0.021939442,0.19279805,9.906934
682030561174,-0.04931134,0.2567787,9.7377205
682050417685,-0.16524522,0.21312316,9.832432
682070274197,-0.07288529,0.17193206,9.750354
682090130710,-0.025105577,0.18691647,9.6683655
682109987093,-0.013413567,0.15766613,9.660589
682129842532,-0.0353966,0.140471,9.691305
682149699045,-0.053948537,0.16413613,9.831764
682169555556,-0.06444794,0.21779703,9.811023
682189412068,-0.05623407,0.25873038,9.82527
682209268581,0.0504262,0.20169662,9.7703085
682229120257,-0.008049709,0.1626985,9.591504
682248976641,-0.0685936,0.10800368,9.7136345
682268833026,0.021133248,0.14020872,9.8599
682288689409,0.019745434,0.19090271,9.900839
682308539692,0.0081221275,0.2190378,9.805415
682328396077,-0.1537222,0.17832944,9.650964
682348252332,-0.1482445,0.11652708,9.710675
682368108716,0.03847512,0.10749545,9.780925
682387964973,0.09955377,0.1167048,9.617347
682407821356,-0.029858213,0.081847146,9.801686
682427667847,0.036877457,0.1400984,9.81483
682447523976,-0.04337124,0.21733946,9.826367
682467380103,0.0028656626,0.2034858,9.782225
682487236103,-0.07516434,0.16815941,9.679893
682507092232,0.03718719,0.14209457,9.698746
682526951738,0.05216448,0.16652581,9.694648
682546807866,0.026201442,0.1512138,9.742682
682566663995,0.04046978,0.13482201,9.81408
682586520122,0.019923365,0.19490911,9.803297
682606374527,0.019076357,0.20104137,9.776068
682626230528,-0.008271407,0.20176154,9.766332
682646086655,7.8526704E-5,0.15919237,9.830794
682665942655,0.0631846,0.13672613,9.793826
682685798784,0.0749405,0.09838199,9.780796
682705654911,0.026345924,0.10717073,9.833077
682725516134,0.04926518,0.12940201,9.7232685
682745372263,0.04785979,0.16711561,9.733056
682765228518,0.08335414,0.19579466,9.6459255
682785084646,0.02351498,0.23529996,9.667017
682804940903,0.07401603,0.15184604,9.870781
682824792684,0.154639,0.16506916,9.809052
682844648812,0.041141022,0.1668069,9.768021
682864505069,0.043031882,0.14685266,9.964294
682884361196,0.042108025,0.13443635,9.740551
682904212552,-0.028376393,0.059166156,9.671831
682924068553,-0.022614332,0.019258505,9.665695
682943924552,0.08707876,0.029447274,9.70359
682963780552,0.18614435,0.08893342,9.774469
682983636553,0.020542266,0.18914023,9.715486
683003492424,-0.041850917,0.113888726,9.855833
683023356488,0.16494527,0.1276312,9.74516
683043212617,0.12880452,0.21774545,9.624559
683063068744,0.04630652,0.20568107,9.855575
683082924872,0.09206371,0.21386606,9.873325
683102781001,0.15685262,0.22067767,9.81436
683122639048,0.1552373,0.19897388,9.745851
683142495304,0.069608934,0.24313635,9.67217
683162351561,0.049529966,0.19336306,9.694614
683182207816,0.11317721,0.1571986,9.74397
683202064072,0.13014528,0.1281236,9.725065
683221920329,0.12904279,0.17745458,9.771106
683241768045,0.07221791,0.23374464,9.719671
683261623917,0.0732133,0.29393,9.809815
683281479918,0.20612319,0.39161667,9.735733
683301335917,0.12024593,0.40825143,9.692629
683321190614,0.13665105,0.20829368,9.75381
683341046487,0.1279995,0.19766285,9.692878
683360902358,0.09201397,0.20661078,9.71645
683380758230,0.077958435,0.21847945,9.772207
683400614231,0.040112507,0.19882037,9.807644
683420472964,0.037888747,0.1804495,9.803661
683440328964,-0.05265668,0.18581676,9.79114
683460184837,-0.015120651,0.09044782,9.68741
683480040708,0.028317034,0.081729665,9.728933
683499896708,0.032044306,0.07888161,9.84737
683519752581,0.029797008,0.11172217,9.808007
683539618102,0.057420913,0.1817351,9.696182
683559474230,0.043446373,0.22163889,9.83704
683579330359,0.014208037,0.25742656,9.587433
683599186614,0.05881431,0.21535191,9.743854
683619047686,0.12082017,0.1975371,9.804929
683638904071,0.16281815,0.29764313,9.783579
683658760454,0.17052135,0.35188505,9.814509
683678616710,0.080408715,0.3255898,9.793068
683698473095,0.04708199,0.2221107,9.7359085
683718311978,0.12311169,0.19319469,9.7022085
683738168106,0.10711541,0.17826672,9.6840515
683758024107,0.07140649,0.17500095,9.812355
683777880234,0.052918572,0.15949035,9.826014
683797736234,0.0593631,0.1674646,9.800881
683817592363,0.14988065,0.15499109,9.858486
683837446235,0.13566276,0.1870037,9.707374
683857302235,-0.0065489514,0.18943329,9.670026
683877158236,0.1038931,0.06099131,9.769513
683897014235,0.20484585,0.07345229,9.877091
683916875915,0.17491157,0.19950886,9.884442
683936731916,0.0790693,0.28084224,9.746061
683956588043,0.0620731,0.18207476,9.750374
683976444043,0.12386231,0.18721677,9.7113905
683996300172,0.14512382,0.24241625,9.720665
684016156299,0.123752266,0.16035248,9.719078
684036021686,0.17400727,0.123402305,9.735712
684055877815,0.18887572,0.11651658,9.785274
684075734070,0.10275393,0.19911624,9.721323
684095590198,0.056125,0.19157238,9.686247
684115446455,0.1258555,0.12697525,9.547132
684135306562,0.15208133,0.11275491,9.505892
684155162946,0.14753339,0.11000931,9.610288
684175019203,0.12720454,0.055284657,9.569232
684194875458,0.1105592,0.12413551,9.6134
684214724369,0.14993554,0.074769884,9.684677
684234580498,0.15501685,0.059703626,9.607814
684254436625,0.048466813,0.1692089,9.509657
684274292753,-0.120179154,0.15901925,9.539325
684294148882,-0.050509132,0.020034958,9.506116
684314005137,0.1598095,-0.03539769,9.588347
684333853079,0.09850395,0.18441802,9.624936
684353709208,-0.042587724,0.29231563,9.832752
684373565207,0.05696933,0.12721616,9.769691
684393421207,0.14242725,0.0545631,9.499675
684413277336,0.13356748,0.1203649,9.621456
684433132067,0.16326843,0.19139549,9.653493
684452988067,0.12869765,0.18511249,9.611236
684472844068,0.1613492,0.120161206,9.568615
684492700067,0.17512208,0.18982577,9.517467
684512555779,0.14133139,0.34350628,9.633363
684532411652,0.111577526,0.29849145,9.670265
684552266655,0.14698145,0.14565513,9.666552
684572122655,0.17230506,0.16236566,9.618656
684591978528,0.030302353,0.21476842,9.570525
684611834399,0.08534826,0.15060277,9.6803665
684631693465,0.22503254,0.1674733,9.638649
684651549466,0.092294626,0.24649248,9.509455
684671405593,-0.005101038,0.18951139,9.603912
684691261593,0.22098814,0.14380948,9.6653385
684711117594,0.2262744,0.20696627,9.72986
684730970560,0.051040605,0.19537492,9.694153
684750826560,-0.0023128763,0.16004977,9.535441
684770682561,0.011072724,0.1832906,9.500193
684790538432,-0.062214218,0.20156823,9.473887
684810388192,-0.0144411465,0.17222908,9.585636
684830244065,0.06726107,0.10976354,9.582218
684850099808,-0.0077122333,0.15151508,9.580531
684869955680,0.010990944,0.14180104,9.7069645
684889811553,0.06517131,0.12068286,9.626616
684909667296,0.14544493,0.17929667,9.558524
684929520529,0.12312426,0.15638067,9.583425
684949376402,0.10211249,0.12864117,9.617707
684969232145,0.1507306,0.1420611,9.623269
684989087889,0.19949909,0.13840812,9.64174
685008943634,0.23201846,0.12383695,9.665282
685028806618,0.23413335,0.1432036,9.628044
685048662618,0.256695,0.1600564,9.536764
685068518491,0.25992054,0.14501673,9.62495
685088374362,0.23042662,0.10957978,9.586699
685108230362,0.21997502,0.10316439,9.542874
685128086235,0.27206376,0.05532862,9.677893
685147950554,0.25646436,0.08697012,9.595524
685167806682,0.19755459,0.18990232,9.51289
685187662811,0.18262197,0.13762273,9.6334915
685207518938,0.18591289,0.12981747,9.532538
685227381344,0.19089225,0.1531625,9.447721
685247237601,0.18562497,0.09427185,9.613574
685267093856,0.24936517,0.0637799,9.634476
685286950112,0.30349195,0.040227864,9.6293745
685306806369,0.3461158,-0.021829722,9.674685
685326654225,0.42230272,0.013756325,9.528452
685346510225,0.4721283,0.15683669,9.497142
685366366098,0.6400965,0.11566899,9.680983
685386222097,0.8607627,-0.016415413,9.798758
685406078097,1.0201313,-0.07313885,9.90212
685425933970,1.2975613,-0.12919584,9.990967
685445793035,1.3862402,-0.17376903,9.845778
685465648907,1.3682698,-0.17012367,9.683227
685485504908,1.463694,-0.51574445,10.023233
685505360907,1.6360817,-1.1269791,10.691538
685525221816,1.8966497,-1.2647133,11.246107
685545077945,2.665365,-0.5841801,11.878704
685564934072,1.5214831,1.1208501,11.704845
685584790200,-2.8744655,3.9537199,9.858925
685604646328,-2.828803,2.379271,9.838293
685624502456,-0.38996413,0.405107,10.038078
685644361070,-0.07902698,0.7590355,9.287354
685664217454,0.6126525,0.3322353,8.770099
685684073710,1.4684393,-0.86566925,9.609923
685703929966,0.5723111,-0.70246536,10.347212
685723786350,0.07408739,-0.06971575,9.490178
685743648410,0.8703054,-0.66668844,8.316374
685763504922,1.674576,-1.6858453,8.286896
685783361434,1.3081981,-1.5488782,8.467834
685803217818,1.5856515,-1.064079,8.40253
685823074330,2.0656757,-1.3367277,8.650109
685842923339,2.3349524,-1.5208546,9.202501
685862779595,3.035503,-1.6978586,9.982746
685882635979,3.9262228,-1.4397746,10.100743
685902492235,5.7415075,-2.0649173,10.201094
685922348619,5.8507023,-1.8186681,10.092184
685942205460,4.4762764,0.7224606,8.871063
685962061716,4.150369,1.4393475,7.6878605
685981917972,-1.0608187,2.6463873,4.8564825
686001774228,-7.702728,5.6408696,8.456136
686021630484,-10.70335,-0.93591,22.28214
686041496358,-2.324792,-8.76215,15.822983
686061352870,-0.97231346,-0.33747432,2.9764998
686081209254,-3.6448364,1.3884183,4.9818773
686101065766,-4.3447695,1.7132837,7.6999254
686120922278,-4.4294925,2.4601905,8.714767
686140781405,-3.2068508,3.3757448,10.644874
686160638045,0.29692727,3.8712544,12.744438
686180494557,-1.3052487,3.276546,10.848037
686200351069,-1.1831368,1.4651113,9.061138
686220207709,0.3267603,0.055852115,8.354247
686240054432,0.08712257,-0.064576454,8.468417
686259910816,0.6368457,-0.5194935,8.301155
686279767328,0.88100415,-0.12760137,8.046229
686299623712,0.9505403,-0.69438654,8.608179
686319480096,1.4695404,-0.31167176,9.224058
686339325050,1.0125493,0.04352829,9.310895
686359181178,0.7609651,0.71160996,8.885321
686379037306,0.35120288,1.7432814,8.51933
686398893562,0.53233075,2.191546,8.7007
686418749690,2.9309156,1.1883014,8.579695
686438594103,4.059776,1.167559,9.074658
686458449975,2.0824049,1.1448698,10.979475
686478305847,1.9130031,-0.6844568,12.397391
686498161719,2.1400013,-1.6549363,12.759196
686518017591,2.6346354,-1.8830187,12.716566
686537871354,2.3476355,0.60484064,12.582989
686557722373,1.6939219,2.0279005,12.871661
686577578245,2.524235,1.7105819,12.6251955
686597433989,2.3272417,1.0872775,11.921064
686617289733,2.5249116,2.0666676,12.230353
686637138865,0.8551449,6.0419765,11.346954
686656994481,-3.1211612,5.1725035,12.85215
686676850097,-3.1034777,4.6277413,12.696868
686696705713,-1.5006943,5.3101077,11.086124
686716561329,3.1660755,4.031282,11.709418
686736416915,1.943626,3.2211788,11.413948
686756272531,-1.8511859,3.7391825,9.858648
686776128147,-4.3021073,4.8195534,8.915026
686795983763,-4.744234,6.719346,5.786215
686815839379,-4.079147,5.390219,4.541115
686835697299,-5.5887504,3.6406457,3.5985634
686855552915,-4.875932,1.6391287,2.6923692
686875408659,-3.0666664,-0.6772391,3.2174602
686895264275,-2.6595476,-1.652925,3.7388115
686915119891,-2.677485,-2.0237584,5.3297267
686934974062,-3.2522883,-0.49498883,7.349798
686954829678,-4.5190253,-0.6566893,9.932769
686974685294,-1.3605258,-2.8800874,14.027863
686994540782,10.835187,-3.0869896,19.039747
687014396398,19.492193,2.412346,14.962088
687034259682,-4.5379324,10.153906,11.2391205
687054115426,-24.530016,7.7304363,8.977111
687073971170,-8.685093,0.33855572,7.788392
687093826914,-3.2003322,2.951472,4.8201537
687113682658,-6.8537216,6.8065515,6.9128985
687133540590,-7.840344,1.9597243,15.093086
687153396334,-4.571884,-0.7452772,17.068054
687173252078,-1.9978436,0.5256577,10.584545
687193107950,-2.4088745,-0.56304103,8.387738
687212963694,-1.3250691,-0.9745439,8.467701
687232824960,-3.592007,-1.2117791,6.7571864
687252680832,-2.463391,-0.67816323,6.5026975
687272536704,0.47977164,0.7823608,7.3321505
687292392576,2.4364808,3.270067,7.780786
687312248320,1.6216397,4.1180496,7.6807065
687332101412,-0.5063817,2.6485088,8.173056
687351957156,-2.411185,1.4478762,7.921664
687371813028,-3.85015,1.7162335,7.8937316
687391668772,-1.4744353,3.5727892,9.810718
687411524644,3.6703432,5.165646,11.87288
687431382855,4.05399,4.64781,12.092172
687451238599,1.272277,3.3690836,11.377516
687471094471,0.62131846,3.0768604,10.694708
687490950215,0.3458434,1.9033878,9.151617
687510805959,-1.4103869,0.9364499,10.768478
687530671394,-1.2722977,3.0325963,14.789091
687550527522,-0.9879179,5.8130646,13.489349
687570383522,-7.6750865,4.5448103,12.892755
687590239522,-11.526758,6.0645185,12.010638
687610095522,-6.57268,4.8768797,12.827951
687629953740,-6.4258394,6.934501,11.700777
687649809868,-5.080767,9.40111,10.473066
687669666124,-4.2640996,6.084755,9.009708
687689522380,-10.1729765,1.2902725,5.8190317
687709378508,-11.286982,-0.53047186,5.0731187
687729244687,-8.728228,-2.9203694,4.858806
687749101199,-5.2128544,-4.406501,4.563262
687768957583,-1.1413497,-2.735733,6.0774336
687788814095,1.174203,-1.1767647,7.5804667
687808670607,0.83632886,-2.7892709,7.6466312
687828521425,1.735449,-3.7982337,6.730636
687848377809,2.785718,-2.0425427,6.696387
687868234193,2.6220016,0.3070492,7.6386247
687888090577,1.2886267,1.139276,8.875695
687907946961,0.93378323,2.5491397,9.863517
687927804533,1.6377739,5.501506,11.639641
687947660917,2.6865838,12.259062,15.138176
687967517301,-3.9610946,14.722919,12.543562
687987373685,-12.209421,7.447017,4.8595476
688007230069,-14.0741825,2.8307717,7.347148
688027089250,-11.519522,-3.0729244,19.788225
688046945762,-5.484103,-19.514624,20.468807
688066802146,12.318131,-5.30391,8.185159
688086658530,19.306805,3.0306914,1.9903502
688106514914,6.0812726,2.425313,2.7600708
688126367286,0.9949956,-2.8101451,6.5995517
688146223670,-3.4684305,-9.326942,10.148729
688166080054,-4.332398,-11.011725,13.889656
688185936438,-5.7278366,-5.186993,13.032123
688205792822,-8.077191,-1.0991545,9.84483
688225645329,-2.7529597,4.9737434,7.4026933
688245501585,3.2878993,3.802915,9.950829
688265357841,-1.3411478,-0.92522585,11.748532
688285214097,-3.8740125,0.03203811,9.947832
688305070353,-1.7469877,1.0153846,8.222513
688324917508,0.6344111,1.2313786,7.9780107
688344773636,0.7951967,1.8220091,8.908969
688364629636,0.7843097,3.1370347,8.95344
688384485764,-0.26373833,2.5000696,8.719498
688404341764,-1.2176589,0.9236591,8.821453
688424190448,-0.61635053,0.21440962,8.978886
688444046320,-0.11956509,-0.16174378,8.458665
688463902192,0.50682366,1.1188592,8.116559
688483758064,0.07032182,2.0012207,8.356732
688503614064,-0.3001043,2.7920403,9.105975
688523470094,-0.6886705,2.8765292,9.550125
688543325966,-1.1416695,2.3650818,10.700891
688563181219,-2.032685,1.5812916,14.331506
688583037091,-1.3725902,2.7355473,15.151721
688602892963,-2.5926378,2.1843286,10.327798
688622750875,-1.6750805,0.19677807,8.325676
688642606747,0.050813828,-2.023368,9.558638
688662462619,1.2681434,-3.0672536,10.9652405
688682318619,2.8231297,-4.043073,11.585067
688702174491,2.216262,-3.7418547,11.174178
688722028985,1.1138374,-2.4059987,10.760494
688741884729,0.7990985,-2.278157,10.660117
688761740601,1.7344457,-2.20912,10.026789
688781596473,0.7495158,-1.8071061,8.136927
688801452345,-0.14947616,-1.0921866,7.2983747
688821308217,-0.31097564,-0.08261616,7.998931
688841165606,-1.509673,-0.700181,7.404467
688861021606,-1.8233429,-0.56356585,7.6179647
688880877478,-2.041032,-0.554485,7.8239703
688900733478,-1.9533279,-0.4877171,8.494177
688920589350,-0.963684,-0.6337319,9.393564
688940447110,-0.23863702,-0.76447964,9.897481
688960302982,-0.39503333,-0.35367367,9.950577
688980158982,-0.4158905,-0.90068275,9.878893
689000014854,0.45603198,-0.87985533,10.120462
689019870726,0.74073964,-0.66915643,10.963155
689039736734,0.169634,-1.0982614,11.505493
689059592734,1.0608573,-1.4638997,11.203937
689079448862,1.960864,-1.6415383,10.136777
689099304990,-0.119431935,-2.299517,9.516157
689119160990,-2.9289572,-3.4403768,10.477516
689139021980,-1.4392648,-1.0665056,11.139019
689158878108,1.9948997,2.4290636,10.342514
689178734364,1.9508567,4.019079,9.594832
689198590620,0.401488,3.4940813,9.477902
689218446876,0.102537476,2.6754467,9.48469
689238301467,0.07514591,1.5252736,10.101227
689258157595,-0.42504364,0.32876685,10.19035
689278013723,0.03580984,-0.42426983,10.237175
689297869851,0.20117098,-0.66087604,9.861649
689317726107,-0.64776087,-0.56922483,9.348847
689337581374,-1.134837,-0.10643299,9.35176
689357437502,-1.3699875,0.12213908,9.906026
689377293758,-0.9946829,0.26762727,10.244288
689397149886,0.11050383,0.13321498,9.797954
689417006142,0.94224095,-0.0010672166,9.2553835
689436863610,1.2688292,0.073012054,9.352198
689456719866,0.98244905,0.24694918,9.612623
689476575994,1.2074888,0.96947855,9.576362
689496432250,1.0689253,1.2683079,9.778166
689516288378,0.33952567,0.58697474,10.526712
689536150331,-0.081136666,0.047777887,10.591169
689556006715,-0.33155736,0.16975857,10.426849
689575862971,-1.0457227,0.16140479,10.413798
689595719355,-1.8875324,-0.23534128,10.50315
689615575739,-2.2060351,-0.72130793,10.533377
689635427819,-1.8953393,-1.1529818,10.043232
689655284075,-0.28999937,-1.3870865,9.707434
689675140459,1.4744902,-1.334543,9.482579
689694996843,1.625847,-1.044655,9.175128
689714853227,1.4140314,-0.04777907,9.198411
689734705093,0.6847268,0.8508684,9.937717
689754561349,-0.351488,0.66874033,10.447201
689774417605,-1.2700204,0.13377029,10.224761
689794273861,-1.6590729,-0.26252845,10.015043
689814130117,-1.1438984,-0.33136946,9.882042
689833980216,-0.2295602,-0.2123718,9.819928
689853836472,0.42418015,0.26869974,9.8660345
689873692600,0.7786998,0.5412965,9.79798
689893548856,0.72080475,0.5217623,9.658263
689913404984,0.011876152,0.20608278,9.797317
689933261927,-0.83518326,-0.23353522,9.983545
689953118055,-0.9189944,-0.1327527,9.9696245
689972974183,-0.6221556,0.44581372,10.0646515
689992830311,-0.64596117,0.22253393,9.988089
690012686439,-0.48075327,0.18937269,9.872576
690032529187,-0.36871648,0.25541747,9.851344
690052384931,-0.32053667,0.16510783,9.846635
690072240803,-0.16821396,0.07861774,9.881182
690092096547,0.010521038,0.05731415,9.899916
690111952419,-0.030985909,0.021835422,9.988129
690131809581,-0.18410671,0.021411782,9.898088
690151665325,-0.3841547,0.06102568,9.893139
690171521197,-0.37838563,0.09435572,9.885541
690191377069,-0.37570956,-0.0019240228,9.812468
690211232813,-0.37802526,-0.100451,9.834214
690231083624,-0.21898687,-0.055677418,9.816163
690250939368,-0.15356143,-0.05634588,9.837235
690270794984,-0.2248019,0.13812704,9.956867
690290650728,-0.289628,0.15080684,10.017078
690310506472,-0.26103935,-0.034345362,9.993342
690330359560,-0.22775172,0.1467659,9.828925
690350215176,-0.3061286,0.31090528,9.732209
690370070792,-0.42940223,0.06871085,9.869694
690389926408,-0.36885798,0.036740176,9.814313
690409782024,-0.3166809,0.23910707,9.867531
690429637639,-0.29348272,0.18380275,9.947583
690449493127,-0.3479347,0.09435357,9.979577
690469348615,-0.25665972,0.09969734,9.958771
690489204231,-0.13757864,0.17389533,9.79873
690509059719,-0.27039093,0.1993977,9.897377
690528922466,-0.2640889,0.082527965,9.701547
690548778210,-0.25517374,-0.059054833,9.7519045
690568631423,-0.19784342,-0.01187292,9.929952
690588487039,-0.15182897,0.068763405,9.902404
690608342783,-0.23773657,-0.003592679,9.926183
690628201400,-0.1959888,0.045407757,9.911524
690648057144,-0.1957428,0.0960997,9.854446
690667912888,-0.20388737,0.051330637,9.830839
690687768760,-0.17246227,0.035367448,9.785341
690707624504,-0.2064617,-0.04320832,9.850979
690727480984,-0.06620497,0.018215187,9.902306
690747336728,-0.06866086,0.053624738,9.93514
690767192600,-0.18983367,0.04099315,10.0274935
690787048344,0.0057703545,0.100528784,9.945155
690806904216,-0.0043957317,0.1370273,9.9626875
690826760386,-0.061202575,0.115212336,9.924304
690846616130,-0.047412015,0.025623437,9.866806
690866472002,-0.114947,-0.10190492,9.8178425
690886327874,-0.13115907,-0.08250475,9.876587
690906183618,-0.033321243,-0.036233395,9.781786
690926039520,-0.03075768,-0.0607645,9.7916355
690945895264,-0.046820965,-0.15645301,9.813236
690965751136,0.0037034804,-0.18442956,9.841149
690985606880,-0.0025631126,-0.12174159,9.80131
691005462752,-0.035445035,-0.114010915,9.735785
691025323267,-0.023510981,-0.1985718,9.624756
691045179267,-0.049689077,-0.16623916,9.716785
691065035139,-0.0551701,0.031225124,9.834253
691084891139,-0.10238059,0.13056183,9.937499
691104747011,-0.17716907,0.13456975,9.967937
691124605589,-0.20958915,0.10329799,9.787998
691144461589,-0.23669836,0.16784166,9.688496
691164317589,-0.34908417,0.18062577,9.728099
691184173717,-0.3517065,0.12459108,9.634594
691204029717,-0.29340622,0.086849935,9.630622
691223885040,-0.19122654,0.1405667,9.728173
691243741168,-0.24253975,0.23235871,9.763767
691263597168,-0.31204602,0.11895992,9.942437
691283453168,-0.24167134,0.050833914,9.825843
691303309168,-0.15534279,0.07176924,9.71125
691323162059,-0.022606159,0.13225728,9.688868
691343018059,-0.09177801,0.07906229,9.664833
691362874059,-0.25196385,-0.034042314,9.665256
691382730059,-0.27567947,0.018296167,9.826492
691402585931,-0.30824515,0.12853651,9.879556
691422445038,-0.23736319,0.105708465,9.786697
691442300910,-0.17740445,0.059332356,9.787271
691462156910,-0.17192659,0.10531522,9.79678
691482012910,-0.112013385,0.1307167,9.790268
691501868910,-0.06728862,0.13653488,9.603866
691521730712,-0.1597241,0.07016444,9.71233
691541586968,-0.15220776,0.089986354,9.817921
691561443096,-0.2670959,0.107965186,9.836391
691581299224,-0.28064507,0.12387047,9.834047
691601155480,-0.17317615,0.15074632,9.751638
691621005470,-0.18018629,0.12209745,9.709175
691640861470,-0.113845214,0.109220624,9.719908
691660717470,-0.06820905,0.067349926,9.653638
691680573470,-0.07462795,0.05862765,9.706914
691700429470,-0.13080776,0.11476778,9.7307415
691720290907,-0.27679542,0.101372816,9.815016
691740147035,-0.27828997,0.041964598,9.887235
691760003163,-0.22554964,0.11177468,9.813921
691779859291,-0.14478676,0.09968888,9.765999
691799715419,-0.063027605,0.13336827,9.727508
691819565682,-0.12763251,0.095416375,9.659574
691839421682,-0.19207968,0.07301198,9.689813
691859277682,-0.2127331,0.013802111,9.828303
691879133682,-0.22320038,-0.011540956,9.908311
691898989682,-0.19455576,0.01291149,9.815376
691918847498,-0.22061478,0.041275084,9.747047
691938703498,-0.17396697,0.015182592,9.853787
691958559498,-0.09747796,0.036436968,9.726426
691978415498,-0.08665237,0.046586584,9.615206
691998271498,-0.15491347,0.1194659,9.670249
692018137536,-0.310265,0.16723429,9.686413
692037993792,-0.40576294,0.052773207,9.766805
692057850048,-0.41396695,0.015984384,9.887636
692077706176,-0.46320796,0.092263356,9.832261
692097562432,-0.36453626,0.1722816,9.66126
692117423526,-0.20713735,0.16039737,9.711021
692137279910,-0.08307851,0.021760553,9.707447
692157136294,-0.07179001,-0.05020981,9.74315
692176992678,-0.12765653,-0.10199022,9.789767
692196849062,-0.1588498,-0.08299802,9.812918
692216703574,-0.1906231,-0.064588375,9.930161
692236559958,-0.17926323,0.08533972,9.902596
692256416214,-0.20810504,0.046203557,9.617543
692276272598,-0.11196306,-0.05382982,9.632591
692296128982,-0.057726704,0.03387924,9.7125845
692315976069,-0.20349307,0.04374159,9.723091
692335832325,-0.20851266,0.09464102,9.759989
692355688453,-0.218675,0.16644156,9.817904
692375544709,-0.26708132,0.12869397,9.886807
692395400837,-0.21082743,0.1425585,9.890827
692415254520,-0.118086204,0.17773552,9.77331
692435110648,-0.0470959,0.13668096,9.643234
692454966776,-0.08291869,0.025875378,9.665281
692474822904,-0.13708656,0.07621621,9.599486
692494679032,-0.16370161,0.15175566,9.706902
692514535323,-0.15934038,0.24564075,9.860313
692534391451,-0.26192808,0.26112926,9.890759
692554247579,-0.33924514,0.21857706,9.817461
692574103657,-0.23360293,0.22942908,9.663628
692593959785,-0.18628699,0.2068528,9.732851
692613815913,-0.11875083,0.24814034,9.607719
692633663879,-0.14994283,0.18692087,9.632643
692653519751,-0.117212646,0.20157565,9.796961
692673375751,-0.15126717,0.22212347,9.928945
692693231751,-0.24810612,0.20565856,9.816908
692713087751,-0.37839058,0.18090956,9.776733
692732944159,-0.41830128,0.21366994,9.696521
692752800159,-0.35611293,0.24074368,9.624467
692772656159,-0.14524335,0.19549726,9.596914
692792512031,-0.12334481,0.13125534,9.587761
692812368031,-0.24710949,0.12798218,9.691257
692832221562,-0.31138253,0.18718794,9.896727
692852077434,-0.37737826,0.21734127,9.88599
692871933306,-0.4395729,0.26543823,9.739975
692891789306,-0.44660026,0.29316655,9.927455
692911645178,-0.29500708,0.22442482,9.855617
692931500506,-0.09707992,0.12115123,9.517135
692951356378,0.009703606,0.15785521,9.569419
692971212250,-0.11114846,0.15269205,9.81679
692991067994,-0.30846336,0.05925489,9.89699
693010923866,-0.31745765,0.10043707,9.943285
693030779975,-0.28028312,0.12810579,9.8152
693050635847,-0.25009972,0.059384592,9.68836
693070491591,-0.10928504,-0.033983964,9.647115
693090347463,-0.017016066,0.1122278,9.603077
693110203335,-0.1054182,0.15459535,9.710522
693130057200,-0.15357962,0.074334025,9.719701
693149913072,-0.17452937,0.045379713,9.687212
693169768816,-0.19341114,-0.025270589,9.840196
693189624688,-0.18341225,-0.009493208,10.043316
693209480432,-0.12557325,0.12134198,9.820174
693229337614,-0.07751494,0.14206377,9.656375
693249193358,-0.014920359,0.092481494,9.719671
693269049102,-0.040077668,0.0378131,9.657618
693288904974,-0.16022341,0.036508862,9.734936
693308760718,-0.14546834,0.2289335,9.862855
693328610689,-0.22969374,0.42447504,9.853904
693348466433,-0.42510626,0.412529,9.841289
693368322177,-0.60310775,0.34295213,9.802521
693388177793,-0.5953987,0.3311521,9.667799
693408033537,-0.48275664,0.24670453,9.79038
693427886159,-0.290442,0.15372147,9.814189
693447741775,-0.21085113,0.25651592,9.65979
693467597391,-0.15713932,0.19781318,9.709483
693487452879,-0.1121089,0.16054547,9.793625
693507308495,-0.28266096,0.068430796,9.803593
693527172321,-0.3418902,0.034303486,9.838562
693547028065,-0.21677044,0.04592932,9.729013
693566883681,-0.057152618,-0.06224391,9.755016
693586739425,0.05617379,-0.09223716,9.717616
693606595169,0.091537334,-0.087715484,9.817055
693626456301,0.049854193,-0.03807129,9.733004
693646312173,-0.03840936,-0.071091354,9.700923
693666168173,-0.08490365,-0.065758266,9.8421545
693686024045,-0.18430887,-0.017995095,9.87191
693705879917,-0.2591935,0.11252395,9.871966
693725743371,-0.19652921,0.20853908,9.826114
693745599499,-0.30299088,0.232102,9.6893635
693765455499,-0.4210379,0.16351335,9.569174
693785311627,-0.45880517,0.17771909,9.687525
693805167755,-0.47550878,0.15840024,9.790575
693825019860,-0.44047248,0.13045798,9.838168
693844875860,-0.4060779,0.14638914,9.862676
693864731988,-0.25980246,0.10498884,9.7586
693884587988,-0.18482943,0.007471551,9.688214
693904443988,-0.09118071,-0.0027853968,9.71785
693924297379,-0.12652385,-0.009931255,9.701576
693944153379,-0.17587657,-0.053153846,9.741804
693964009379,-0.1368878,-0.041819908,9.882838
693983865251,-0.14025585,-0.052611865,9.853892
694003721251,-0.2641784,-0.09791135,9.818037
694023580523,-0.18475275,-0.11116633,9.841182
694043436523,-0.1462379,-0.0048517655,9.774547
694063292651,-0.101999894,-0.029001666,9.777803
694083148651,-0.07332468,-0.10101989,9.686116
694103004651,-0.16491508,-0.18755691,9.637098
694122863902,-0.104280576,-0.14826846,9.708769
694142720030,0.01871707,-0.12252069,9.944581
694162576158,0.10173539,-0.14240777,9.999683
694182432286,0.041382402,-0.11949818,9.813657
694202288414,-0.08960911,-0.09106008,9.66454
694222133867,-0.22320908,-0.020257734,9.689792
694241989739,-0.39431936,0.035140805,9.727082
694261845611,-0.4729297,0.08706209,9.744694
694281701483,-0.47674122,0.087562025,9.6945
694301557355,-0.44421297,0.031779893,9.731681
694321406529,-0.31539345,0.064545155,9.818569
694341262273,-0.16267043,0.075070076,9.903609
694361118017,-0.037461083,0.053417277,9.80033
694380973889,-0.026713014,-0.09058539,9.786102
694400829633,-0.004937993,-0.007865928,9.63334
694420680141,0.0016724347,0.05126825,9.618109
694440535757,0.0033309814,0.041352384,9.72768
694460391373,-0.1520071,0.09306789,9.706565
694480246989,-0.27931342,0.122682445,9.669464
694500102733,-0.30127802,0.14076735,9.736496
694519964828,-0.21074277,0.19270298,9.780869
694539820700,-0.14931457,0.25851357,9.795252
694559676444,-0.094519295,0.22869204,9.812745
694579532188,-0.074755,0.08016263,9.718649
694599388904,-0.1418684,0.040168077,9.695439
694619240442,-0.115537375,0.08083282,9.780476
694639096186,-0.24194072,0.14980228,9.782714
694658951802,-0.3600424,0.16194187,9.720371
694678807546,-0.34246865,0.048730616,9.748916
694698663162,-0.3092122,0.037376013,9.717803
694718516644,-0.31762302,0.13519397,9.609258
694738372132,-0.29789606,0.11400915,9.69193
694758227748,-0.27936044,0.09265464,9.73509
694778083364,-0.29588956,0.09491865,9.788733
694797941941,-0.28267485,0.11846016,9.898161
694817797558,-0.23354259,0.1746695,9.848418
694837653301,-0.23061065,0.15960705,9.826618
694857508917,-0.27799505,0.124786414,9.8054
694877364662,-0.34914333,0.14645086,9.676654
694897220277,-0.39844993,0.10729412,9.554535
694917072942,-0.3322497,0.104634486,9.627264
694936928431,-0.29872873,0.076991335,9.742796
694956783918,-0.33520573,0.0044188006,9.846101
694976639534,-0.29018772,-0.053444464,9.934832
694996495023,-0.062269356,-0.05687271,9.801207
695016350953,0.08831299,-0.037265,9.771821
695036206441,0.212084,-0.04199576,9.801078
695056061930,0.10156422,0.05106956,9.728171
695075917417,0.17494406,-0.37110782,9.787113
695095780048,0.1393153,-0.3643506,9.869196
695115635665,0.36468962,-0.34868395,9.957297
695135491408,0.53779656,-0.26232138,9.908791
695155347152,0.30401507,-0.10532789,9.92264
695175202769,-0.033220746,0.24293505,9.795615
695195058512,-0.4895043,0.16715229,9.627278
695214914809,-0.47501633,-0.099244766,9.768288
695234770426,-0.11858011,-0.03513875,9.87983
695254626169,-0.07062338,0.088710524,9.787764
695274481913,-0.22304228,-0.0138131,9.745426
695294337530,-0.28880554,-0.13113411,9.678863
695314193577,-0.3714839,-0.07843338,9.66503
695334049321,-0.33162075,-0.037913885,9.567756
695353905194,-0.22177428,-0.04688591,9.779351
695373760937,-0.26995963,0.032338887,9.710959
695393622532,-0.35518727,0.008460577,9.637968
695413478405,-0.08629407,-0.023153298,9.772896
695433334148,0.08756262,0.04727976,9.874178
695453190020,-0.013220941,0.06016411,9.908614
695473045893,-0.11896537,0.096023515,9.855738
695492901764,-0.24338189,0.1664352,9.6624775
695512739178,-0.29093805,0.20864797,9.625397
695532594667,-0.33459172,0.2144881,9.633636
695552450282,-0.50647026,0.22505143,9.680541
695572305770,-0.62553495,0.19641744,9.755036
695592161259,-0.40945068,0.17606802,9.856669
695612015563,-0.08656845,0.17944086,9.878004
695631871051,-0.03352389,0.24277167,9.8738985
695651726540,-0.090882145,0.26900846,9.840503
695671582027,-0.22259898,0.107447505,9.611007
695691437643,-0.3383606,-0.0249911,9.484722
695711293132,-0.3017029,0.07547635,9.599586
695731158473,-0.3538172,0.14894713,9.807655
695751014217,-0.5171932,0.12811509,9.861367
695770869962,-0.60685223,0.067187384,9.865087
695790725705,-0.26949576,0.11667586,9.945877
695810584758,0.16059478,0.16900389,9.95165
695830440631,0.37954894,0.19474033,9.755786
695850296374,0.13898823,0.11000534,9.605778
695870152118,-0.036888845,-0.07687416,9.685664
695890007991,-0.037957076,-0.15910608,9.679357
695909868712,-0.21400596,-0.027043052,9.727945
695929724456,-0.36470538,0.1610337,9.729877
695949580329,-0.44230822,0.091305785,9.728158
695969436200,-0.30167076,-0.114559576,9.819124
695989292072,-0.08080618,-0.040408734,10.006607
696009147817,-0.14015815,0.15806808,9.845244
696028995544,-0.3256552,0.21384084,9.652696
696048851160,-0.3231457,-0.021835838,9.58552
696068706905,-0.0882546,-0.2509707,9.833301
696088562520,0.21334068,-0.3175945,9.99512
696108432854,0.27225137,-0.32315186,9.950351
696128288855,0.10400481,-0.16036254,9.662766
696148144854,-0.061652303,-0.081180856,9.625599
696168000854,-0.027665503,-0.06535685,9.691194
696187856855,-0.17885624,-0.080325104,9.656912
696207708617,-0.28237602,0.05414405,9.751428
696227564489,-0.12289125,0.057611894,9.836652
696247420490,-0.2158689,-0.10140228,9.875179
696267276361,-0.36756018,-0.10508551,9.965177
696287132233,-0.3208194,0.09008443,9.798869
696306988106,-0.17025304,0.19382595,9.548986
696326844562,-0.07119725,0.06511021,9.547333
696346700434,-0.075053096,-0.0607106,9.6956415
696366556435,-0.17040996,-0.04778151,9.8097925
696386412306,-0.15858164,0.040960222,9.77371
696406274249,-0.18289539,0.06649719,9.793418
696426130250,-0.14755498,-0.001364103,9.879052
696445986377,-0.19003698,0.019250197,9.856532
696465842377,-0.30619887,0.07707205,9.80174
696485698378,-0.19323748,0.061031636,9.736254
696505554377,-0.192903,0.068496495,9.685527
696525410255,-0.2454081,-0.0014433146,9.676873
696545266384,-0.23480305,0.01851948,9.769537
696565122383,-0.27462828,0.001980057,9.789905
696584978383,-0.28271094,0.044618607,9.89028
696604834512,-0.32445616,0.15119638,9.883109
696624682154,-0.39287192,0.21622095,9.76035
696644538154,-0.4294043,0.20926434,9.630559
696664394155,-0.2828323,0.21107359,9.627048
696684250154,-0.14956522,0.24791816,9.607867
696704106154,-0.15874244,0.15393466,9.76112
696723962155,-0.18069239,0.13993184,9.842121
696743827705,-0.22970541,0.060375337,9.860039
696763683961,-0.22991991,0.03426913,9.813052
696783540090,-0.2824522,0.15060455,9.740349
696803396345,-0.4077706,0.19574407,9.714871
696823245383,-0.31922835,0.14771499,9.647868
696843101512,-0.18602294,-0.014864226,9.710856
696862957511,-0.13913381,-0.1317766,9.850983
696882813639,-0.14175227,-0.10828111,9.916786
696902669768,-0.19142486,-0.07336635,9.884803
696922525939,-0.1866907,-0.09263066,9.781333
696942382067,-0.07060482,-0.10519869,9.72374
696962238196,0.028901385,-0.06193558,9.710289
696982094323,0.006959093,-0.06844876,9.626162
697001950323,-0.03765432,0.016637214,9.621619
697021806452,-0.002595914,0.055524178,9.7618475
697041670294,-0.003192474,0.03271427,9.804377
697061526678,-0.14988661,-0.05387379,9.956198
697081382935,-0.094311744,0.0047682696,9.8735075
697101239318,0.09748982,0.054424983,9.776242
697121083268,0.14077824,0.048299804,9.63397
697140939269,0.12499254,0.011621799,9.784438
697160795268,0.04353637,-0.10811677,9.679334
697180651140,-0.0896378,-0.16579117,9.732237
697200507141,-0.17419684,-0.01370121,9.781664
697220363741,-0.25389615,-0.080193475,9.805327
697240219613,-0.19591832,-0.14533538,9.814291
697260075486,-0.03264664,0.017087394,9.73141
697279931357,0.078311674,0.15539117,9.641297
697299787357,0.15176387,0.30252355,9.67918
697319643230,-0.08287377,0.36824694,9.72844
697339502758,-0.5549422,0.34397435,9.7331
697359358758,-0.8000918,0.35982335,9.6646185
697379214759,-0.719421,0.5157205,9.646303
697399070758,-0.5295335,0.43367052,9.720124
697418929507,-0.36421686,0.27856743,9.656524
697438785636,-0.29840767,0.23132911,9.691556
697458641635,-0.16863295,0.22827981,9.701638
697478497635,-0.077619,0.20711057,9.740595
697498353764,-0.16304392,0.18547705,9.9648485
697518213731,-0.21208827,0.2186844,9.829539
697538069987,-0.24017116,0.17554553,9.813278
697557926116,-0.18067849,0.04046764,9.844234
697577782243,-0.13463432,-0.07207829,9.875141
697597638499,-0.07882892,-0.027186438,9.759054
697617494628,-0.022712098,-0.026462419,9.635046
697637331019,-0.044832915,-0.083323,9.67569
697657186763,-0.09380391,-0.12280883,9.735653
697677042380,-0.15393554,-0.12243316,9.890989
697696898123,-0.094912186,0.035130955,9.692127
697716763938,0.06631777,0.009796403,9.805359
697736620067,0.06004643,0.08904774,9.918768
697756476066,-0.15384601,-0.038329776,9.637284
697776332066,-0.2381661,0.033238843,9.599588
697796188067,-0.273568,0.012755639,9.777568
697816044066,-0.17242418,-0.021983394,9.730372
697835878879,-0.21417542,0.03947054,9.75372
697855734368,-0.23332478,0.20244549,9.852778
697875589983,-0.28234303,0.20200294,10.013154
697895445599,-0.27492213,0.098592885,9.794862
697915301088,-0.25472364,-0.05586255,9.624347
697935163528,-0.54181314,-0.30828658,9.477736
697955019272,-1.3171757,-0.95629764,9.683872
697974874888,-0.9962869,-0.5794409,9.823279
697994730504,0.28658828,1.6322659,9.795432
698014586248,0.73469085,2.0204146,10.241773
698034454938,0.44730234,1.3325336,9.919723
698054310810,-0.019066326,0.19801898,9.567361
698074166810,-0.30125922,-0.54553956,9.662004
698094022810,-0.19595112,-0.4597929,9.79466
698113878682,0.087899655,0.007137085,9.69284
698133735126,0.29012,0.27973956,9.644324
698153591126,0.22156744,0.25159532,9.668971
698173446998,-0.006402236,0.01358868,9.866896
698193302998,-0.115058884,-0.19524674,9.951274
698213158870,-0.15171693,-0.2580692,9.965502
698233009612,0.043174062,-0.12973881,9.753034
698252865484,0.3296317,0.12954356,9.698599
698272721228,0.4028638,0.12198243,9.641334
698292577100,0.18105511,-0.20127182,9.6274395
698312432844,-0.023599297,-0.38690326,9.693857
698332291765,-0.11566188,-0.22777455,9.830261
698352147637,-0.14855063,0.06519459,9.777476
698372003509,-0.20767587,0.18979579,9.805105
698391859381,-0.29925618,0.10243598,9.798136
698411715381,-0.19545344,-0.027228255,9.7449665
698431567175,-0.034322746,0.045792807,9.735804
698451422919,0.044733845,0.123782344,9.783653
698471278663,0.052218094,0.07283648,9.732143
698491134407,-0.05174919,0.015539066,9.729565
698510990279,-0.18874457,0.020727668,9.852546
698530845151,-0.21294434,0.009429916,9.78793
698550700895,-0.20318204,-0.016210072,9.761429
698570556639,-0.05580599,-0.00844025,9.673947
698590412383,-0.008527275,-0.005998147,9.676484
698610268127,0.054059707,0.024327403,9.7723675
698630122219,-0.020019388,0.06753435,9.88993
698649972891,-0.13272238,0.057203647,9.890401
698669828507,-0.24864678,0.13262613,9.861087
698689684251,-0.2607238,0.11192702,9.766661
698709539995,-0.14841038,0.07668233,9.641105
698729399311,-0.06751938,-0.023774303,9.692413
698749255055,0.009196078,0.027041994,9.680087
698769110927,0.09192099,-0.02226274,9.736815
698788966671,0.2368258,-0.029292215,9.746059
698808822415,0.21694995,0.013366593,9.875788
698828676384,0.12721553,0.114077024,9.845797
698848532128,-0.02394036,0.11755729,9.909733
698868387872,-0.17609876,0.14839205,9.793743
698888243616,-0.19169918,0.18958533,9.686016
698908099360,-0.12702693,0.23745704,9.635241
698927959206,-0.0069906567,0.16166587,9.577145
698947815078,0.07709544,0.091862574,9.6155815
698967670950,0.1062616,-0.01923231,9.835666
698987526822,0.015272976,-0.014942889,10.106717
699007382694,-0.2859854,0.008916775,10.073201
699027247276,-0.25689444,0.25053927,9.743385
699047103404,0.18180834,0.43430874,9.746577
699066959532,0.35044536,0.0684326,9.601929
699086815660,0.16738242,-0.24377777,9.565063
699106671660,0.039470807,-0.0047233016,9.722602
699126525776,-0.02073071,0.23227149,9.760336
699146381904,-0.07970324,0.063075006,9.812388
699166238032,0.034849886,-0.17498784,9.898339
699186094160,0.004454851,-0.007983691,9.821481
699205950288,-0.13957573,0.25446284,9.756204
699225798395,-0.15692054,0.22597212,9.777333
699245654267,-0.07643736,0.11064208,9.582387
699265510139,-0.025473448,0.06750698,9.616286
699285366011,-0.03076954,0.02960075,9.845558
699305221883,-0.07064143,-0.07020301,9.835198
699325078091,-0.055462427,-0.048426453,9.904856
699344934091,0.025492612,0.008514227,9.787577
699364789963,0.022351047,0.06261348,9.765607
699384645963,0.06488488,0.031893007,9.743416
699404501835,0.08450811,0.035113696,9.765145
699424357835,0.007383487,0.037830073,9.703272
699444211922,-0.09748916,9.173439E-4,9.680495
699464067666,-0.07417334,0.08051702,9.723973
699483923282,0.0034557835,0.059377134,9.804158
699503779026,0.08858634,0.05169499,9.751049
699523634770,0.0074264803,0.10324172,9.7175865
699543496323,-0.11716341,0.17656082,9.765762
699563352195,-0.09985975,0.1539864,9.786934
699583208067,-0.030787993,0.06419983,9.734316
699603063811,-0.082554154,0.086315624,9.574236
699622919683,-0.10886682,0.1639841,9.700526
699642742951,-0.09327295,0.24927825,9.942268
699662598183,-0.118760645,0.19423175,9.859842
699682453543,-0.10014906,0.18698677,9.813476
699702308903,-0.12147055,0.17267485,9.717365
699722164135,-0.12028776,0.21295826,9.632965
699742031391,-0.11661258,0.12902127,9.670924
699761887007,0.0066350237,0.095675536,9.810921
699781742495,-0.01036234,0.11269652,9.857697
699801598111,-0.06845113,0.059774477,9.855443
699821453599,-0.04230613,0.053499132,9.764635
699841318418,0.061280012,0.059982046,9.779957
699861174034,0.22510275,0.10868137,9.784018
699881029778,0.22982703,0.13077329,9.767501
699900885522,0.060008254,0.07682784,9.708455
699920741138,0.04267194,0.069737144,9.654279
699940611265,0.022172349,0.077464804,9.745623
699960467265,0.043973446,0.15159588,9.824086
699980323137,-0.014599702,0.17727749,9.8650055
700000179137,-0.14861678,0.14915055,9.757664
700020035137,-0.15622152,0.11759277,9.659779
700039898451,-0.04222332,0.17008755,9.647376
700059754579,-0.013647017,0.1410943,9.740205
700079610707,-0.058223646,0.23627938,9.839234
700099466835,-0.09877873,0.30420426,9.836375
700119322963,-0.04534036,0.23952068,9.766204
700139184369,-0.0076192576,0.10548575,9.786419
700159040625,0.030648738,0.15551311,9.719534
700178896881,0.034158472,0.22717002,9.739742
700198753137,0.052259855,0.09532667,9.683068
700218609265,-0.051126644,-0.039916653,9.708579
700238461228,0.006385658,-0.008570014,9.691501
700258317356,0.07510435,0.07290269,9.800681
700278173484,0.11719973,0.07794294,9.830701
700298029612,0.05190104,0.031274173,9.948235
700317885740,0.049196117,0.003050435,9.804249
700337734913,0.04567464,-0.020592503,9.659721
700357590913,0.03924106,-0.021176912,9.613174
700377446913,-0.006879269,0.13739291,9.630251
700397303041,-0.16824915,0.2415797,9.749419
700417159041,-0.18361393,0.30376932,9.809203
700437007610,-0.23444101,0.16493323,9.827842
700456863482,-0.25686207,0.074083515,9.864803
700476719354,-0.10129182,0.16020931,9.803613
700496575226,0.051840346,0.15042523,9.686352
700516431098,0.1504268,0.11370399,9.713338
700536285603,0.16784579,0.04637887,9.728696
700556141475,0.14969283,-0.0014045645,9.73688
700575997347,0.078979425,-0.05383416,9.77241
700595853219,0.081875384,-0.04875167,9.824682
700615709091,0.037514385,0.0127421785,9.813033
700635567876,0.009479524,0.085437946,9.810329
700655422640,-0.023270259,0.11035584,9.807438
700675278640,-0.06638703,0.026044976,9.730592
700695134640,-0.07405761,0.022285575,9.730357
700714990640,-0.09552566,0.11881586,9.707425
700734843208,-0.15431982,0.16445455,9.711747
700754699080,-0.19315457,0.095245734,9.80683
700774554952,-0.14424528,0.006603795,9.872782
700794410824,-0.0076962025,0.032500464,9.814691
700814266824,0.08354476,0.05825615,9.805302
700834120884,0.055253133,0.07879308,9.756752
700853976756,-0.0038468232,0.108004056,9.685991
700873832628,-0.055211008,0.13185896,9.6575775
700893688372,-0.08637258,0.119109176,9.727643
700913544244,-0.14058085,0.122663416,9.78202
700933400197,-0.1856234,0.056180477,9.818037
700953256069,-0.10421091,0.10621517,9.763546
700973111813,-0.024378125,0.19064924,9.662922
700992967685,-0.020342298,0.13880044,9.692221
701012823557,-0.07125333,0.060758322,9.70321
701032689423,-0.05354985,0.0066554924,9.811043
701052545551,0.043742493,0.07604824,9.817756
701072401679,-0.0053650094,0.19059633,9.844647
701092257807,-0.055308852,0.17533834,9.863736
701112113807,-0.07545869,0.09162365,9.831189
701131971690,-0.11056612,0.060827922,9.765783
701151827946,-0.0872121,0.10289025,9.748749
701171684074,0.031176781,0.13546269,9.670055
701191540330,0.027562171,0.12549786,9.6346035
701211396586,0.03398385,0.1414325,9.709883
701231234745,-0.003419145,0.13026628,9.852223
701251090233,0.004126044,0.12348348,9.870325
701270945721,0.0074208635,0.14388964,9.869888
701290801337,0.037631374,0.18953206,9.804487
701310656825,0.04405433,0.07044283,9.797352
701330514359,0.045320567,-0.03662212,9.749278
701350369847,0.04437829,0.042329516,9.713396
701370225463,-0.042674348,0.19572599,9.6989155
701390080951,-0.14617567,0.13965206,9.718155
701409936567,-0.15601857,-0.03173073,9.816407
701429799046,-0.14343657,-0.035177514,9.834188
701449654790,-0.12678751,0.04111988,9.82406
701469510534,-0.1116516,0.05353646,9.767285
701489366150,-0.06763222,0.06926291,9.764791
701509221894,-0.016154952,0.100127146,9.724474
701529091425,-0.03537211,0.06637293,9.660239
701548947553,-0.09224787,0.010538235,9.730145
701568803553,-0.055942047,0.026609356,9.823921
701588659681,-0.009293,0.10245766,9.895463
701608515681,0.0066635516,0.12717997,9.875616
701628371687,0.07263433,0.075218104,9.801287
701648227943,0.1424995,-0.02418752,9.716546
701668084071,0.16433693,-0.0946915,9.733987
701687940199,0.08243294,0.024803462,9.731845
701707796327,0.034697343,0.13446596,9.723481
701727662180,-0.030526334,0.02424893,9.792294
701747518564,-0.07036862,-0.036871795,9.7590475
701767375076,-0.10568504,-0.016041351,9.758642
701787231460,-0.0985262,0.07211255,9.739617
701807087844,-0.072631426,0.16822842,9.778785
701826937212,0.010042647,0.1913126,9.838206
701846793596,0.060365476,0.12812226,9.807904
701866649852,0.009689594,0.106024,9.71067
701886506236,-0.058231175,0.16492298,9.768851
701906362620,-0.15414344,0.18653713,9.868935
701926219845,-0.21615988,0.18740077,9.854781
701946076101,-0.23125802,0.19034894,9.707757
701965932485,-0.16358624,0.18716167,9.578857
701985788741,-0.13757418,0.2282258,9.584574
702005645125,-0.19341148,0.38440904,9.694087
702025502429,-0.29752767,0.3733742,9.901678
702045358685,-0.17064416,0.15086131,9.930571
702065214941,0.0012553091,-0.04568827,9.980615
702085071325,0.12213682,-0.03139039,9.854883
702104927581,0.18196633,0.17623937,9.645041
702124781952,0.20290259,0.20388666,9.537986
702144638208,0.10165412,0.045293137,9.517233
702164494464,0.014885388,0.010695495,9.798673
702184350848,0.050889064,0.12646258,9.815686
702204207104,-0.05982549,0.16324578,9.823093
702224053394,-0.14975812,0.20031682,9.793272
702243909522,-0.12765574,0.27285418,9.7932415
702263765650,-0.07704205,0.22361627,9.761689
702283621778,-0.033408847,0.23915821,9.746099
702303477778,-0.06584815,0.28305164,9.622806
702323327384,-0.13735314,0.29073814,9.641597
702343183384,-0.07666266,0.26489496,9.697447
702363039256,-0.09878008,0.21382728,9.818379
702382895256,-0.13043176,0.15535851,9.874303
702402751128,-0.13800976,0.141194,9.808044
702422602672,-0.11557143,0.058559764,9.7525215
702442458545,-0.07398776,0.020441556,9.7188015
702462314288,-0.006303091,0.08074254,9.678149
702482170160,0.031170048,0.15518394,9.746729
702502025905,0.0924429,0.16105668,9.761966
702521882251,-0.024843697,0.054423735,9.771432
702541737995,-0.13214509,-0.0370109,9.805992
702561593868,-0.13533165,0.05378015,9.835343
702581449611,-0.097147234,0.0010081996,9.809794
702601305355,0.015411208,0.056052797,9.777044
702621161228,-0.023688395,0.11320161,9.7671385
702641018646,-0.03203482,0.1096397,9.719862
702660874898,0.00153353,0.0848851,9.793478
702680730771,-0.035195354,-0.0019632038,9.816807
702700586642,-0.08255393,-0.011715176,9.864035
702720442282,-0.057127498,0.018448094,9.86463
702740298027,-0.004837366,0.067522965,9.723802
702760153770,-0.054367457,-0.012019938,9.663462
702780009642,-0.0367035,-0.04534617,9.635463
702799865387,0.023098525,-0.077702686,9.667952
702819717064,0.110189706,0.06584536,9.718707
702839572680,0.06662691,0.030810492,9.807572
702859428425,-0.015064347,-0.069771215,9.906955
702879284168,-0.05377974,-0.15323676,9.991597
702899139912,-0.044195235,0.018201469,9.749664
702918995529,-0.04359161,0.108985,9.65347
702938846499,0.014242357,0.065473475,9.651763
702958702115,0.0034010515,0.007914819,9.712179
702978557604,-0.07263924,0.10499835,9.822242
702998413219,-0.09617575,0.116507515,9.81165
703018269437,-0.07997444,-0.035924897,9.762296
703038125054,-0.014787184,0.007089881,9.904946
703057980541,0.010303685,0.19697918,9.800903
703077836157,-0.0817498,0.18427645,9.713596
703097691774,-0.043291796,0.04375217,9.746659
703117547535,-0.02571988,0.05757546,9.712945
703137403151,0.018628804,0.100466475,9.66085
703157258768,0.053911805,0.13604386,9.821731
703177114383,-0.06543002,0.055433884,9.814291
703196969999,-0.10599453,0.045407962,9.839314
703216825616,-0.089073606,0.1033625,9.88206
703236681956,-0.0034241036,0.14987223,9.675986
703256537572,-0.019821031,0.100441255,9.676818
703276393189,-0.075981945,0.12666537,9.73887
703296248804,-0.088956095,0.12107051,9.765403
703316106242,-0.044158634,0.08808283,9.730172
703335961987,-0.0042263996,0.006738766,9.806869
703355817602,-0.021229431,0.052101426,9.848302
703375673346,-0.08212593,0.12424187,9.82942
703395528963,-0.076722115,0.091334745,9.737061
703415383627,-0.042779826,0.0065900073,9.644235
703435239115,-0.035113145,0.013311749,9.712303
703455094732,-0.038660403,0.1170049,9.726129
703474950347,-0.06362247,0.054949243,9.803929
703494805835,-0.028296053,0.032741,9.829801
703514661452,-0.08459832,-1.3773366E-4,9.85491
703534529104,-0.037340824,0.058135025,9.857699
703554384848,-0.018644419,0.106222734,9.796122
703574240721,-0.025737686,0.07497406,9.74828
703594096592,-0.03031193,0.008908404,9.692794
703613961503,-0.012958675,-0.05799271,9.687713
703633817504,0.003911852,0.008615628,9.734762
703653673631,-0.05812533,0.04129448,9.862725
703673529759,-0.060895685,0.04275817,9.852731
703693385760,-0.029069515,-0.007945922,9.8352585
703713241887,-0.02126295,0.042611487,9.733266
703733097844,-0.0630118,0.03677852,9.678935
703752953973,-0.06753942,0.04439339,9.70182
703772810100,-0.09391178,0.08495591,9.682198
703792666228,-0.041455436,0.02886938,9.751969
703812522357,-0.033959784,0.076094806,9.878189
703832376795,-0.036239505,0.049667966,9.863973
703852232795,-0.080219336,0.08812615,9.874604
703872088924,-0.10096787,0.12693073,9.783202
703891944923,-0.07397894,0.07316704,9.692901
703911798142,-0.05958818,0.09795711,9.669547
703931654143,-0.036421563,0.11331688,9.718942
703951510142,-0.07617241,0.08068209,9.724817
703971366142,-0.04427825,-0.025825126,9.780309
703991222143,-0.007652532,0.014150782,9.833408
704011078142,-0.022701966,0.063961476,9.850637
704030941115,-0.09099417,0.16139978,9.820751
704050797244,-0.076811634,0.053779434,9.715078
704070653371,-0.0052312845,-0.037146147,9.718143
704090509627,0.019530777,0.035342447,9.661744
704110365756,-0.0563322,0.12946142,9.76206
704130217764,-0.08453993,0.06766346,9.845083
704150073764,-0.035127513,-0.016919086,9.786626
704169929893,-0.042490102,0.025452683,9.800706
704189786020,-0.06385761,0.13300468,9.730937
704209638072,-0.10310224,0.051693194,9.6818695
704229494201,-0.07729054,0.01777727,9.697992
704249350200,-0.042434186,0.08019343,9.818808
704269206328,-0.07916765,0.15857777,9.760348
704289062329,-0.13401471,0.11229096,9.734548
704308918328,-0.09283067,-0.02957334,9.801487
704328767044,-0.0554201,-0.019828564,9.814317
704348622917,-0.048748437,0.09294967,9.73828
704368478916,-0.08646707,0.14650707,9.7068205
704388334788,-0.02935169,0.10406399,9.671748
704408190789,0.032274816,0.05192052,9.681598
704428043081,-5.607142E-4,0.041179176,9.758681
704447898953,-0.0402515,0.08026588,9.803412
704467754826,-0.06727096,0.054077044,9.880171
704487610697,-0.032226734,0.048893552,9.848471
704507466441,-0.033037145,0.06240921,9.764914
704527322314,-0.02388539,0.13838223,9.737276
704547174546,0.005078593,0.08406222,9.699858
704567030290,-0.022403901,0.020637326,9.6635065
704586886035,-0.02218065,0.050317425,9.735889
704606741778,0.0020771807,0.093745336,9.751209
704626592225,-0.03589224,0.025078952,9.847133
704646447842,-0.057964575,-0.009262647,9.867094
704666303585,-0.07530149,0.0045964816,9.817799
704686166554,-0.014015336,0.089889064,9.756772
704706022171,-0.07053912,0.20081966,9.676664
704725875098,-0.13070327,0.15376818,9.678655
704745730586,-0.11095594,0.02660809,9.697654
704765586075,-0.0796379,-0.11634796,9.777781
704785441562,-0.08319098,-0.0424382,9.813282
704805297178,-0.10235275,0.013456609,9.752337
704825152667,-0.16094303,0.012171209,9.825465
704845000346,-0.1608775,0.12632175,9.756715
704864855706,-0.094980694,0.0910832,9.608198
704884711067,-0.041027624,0.010000978,9.721485
704904566426,-0.08147793,0.083159305,9.817022
704924423432,-0.21178633,0.20508297,9.824046
704944278793,-0.1512252,0.17867476,9.809472
704964134024,-0.058877114,0.05695853,9.856254
704983989384,-0.06883271,0.03268699,9.78
705003844617,-0.17903045,0.16445279,9.783503
705023693899,-0.15611927,0.17207195,9.713123
705043549003,-0.0791961,0.086181745,9.641034
705063404108,-0.017823612,-0.013573277,9.691815
705083259339,-0.03848016,0.115058474,9.7809925
705103114443,-0.064990945,0.04373025,9.809149
705122969548,-0.050783895,0.029966844,9.848487
705142826333,-0.008356003,-0.026817454,9.820844
705162681565,0.037108574,0.09716956,9.761258
705182536670,-0.0057032164,0.083659254,9.745435
705202391901,-0.0054606292,0.067342594,9.7261715
705222256903,0.025871823,0.04662939,9.705256
705242112264,-0.010676145,0.052189425,9.746444
705261967751,-0.1082569,0.03645895,9.777672
705281823111,-0.08188728,-0.07332075,9.806216
705301678472,-0.033822503,0.03336936,9.86458
705321533346,-0.07875122,0.09339833,9.7595415
705341388706,-0.06768325,0.06554018,9.749489
705361244067,-0.0656042,0.014349664,9.745066
705381099426,-0.078350216,0.08387192,9.690867
705400954786,-0.099918135,0.083291896,9.746427
705420810147,-0.09284018,-0.007530921,9.816671
705440672064,-0.100001246,-0.09745734,9.797806
705460527680,-0.09978227,-0.02573712,9.795652
705480383169,-0.07385765,0.035616014,9.75399
705500238656,-0.015786346,0.008746034,9.783221
705520103750,-0.01149045,0.005591906,9.745349
705539959367,-0.03763462,0.019654712,9.723879
705559815110,-0.037969377,0.00704307,9.698391
705579670854,-0.052554514,-0.028235499,9.741056
705599526471,-0.007957861,0.0019160295,9.806593
705619382214,-0.06544415,0.022640461,9.8606825
705639253946,-0.070256844,0.037376884,9.827541
705659109947,-0.047575925,0.064821914,9.827698
705678966074,-0.025208546,0.081868485,9.66171
705698822202,-0.0053626643,0.016710551,9.675376
705718678331,-0.046040185,0.08572451,9.760867
705738538176,-0.11245561,0.04561596,9.807157
705758394432,-0.03300539,2.3964386E-4,9.774863
705778250561,0.034310967,-0.043453496,9.87693
705798106816,-0.08082143,0.13104859,9.836707
705817962907,-0.15312968,0.16932857,9.60136
705837819036,0.0019416646,-0.04849079,9.638344
705857675291,0.09537286,0.021856818,9.725767
705877531547,-0.07297878,0.1439807,9.734211
705897387804,-0.20284517,0.15736459,9.876903
705917244059,-0.10554104,0.009117541,9.830071
705937098139,-0.015696261,-0.027881032,9.871286
705956954268,-0.044606477,0.17214973,9.780662
705976810523,-0.14184383,0.1976758,9.696309
705996666651,-0.04558447,0.03140165,9.653962
706016522908,0.001002273,0.08977097,9.714491
706036383144,-0.055623043,0.14949706,9.677364
706056239528,-0.067157604,0.082827054,9.778947
706076095785,-0.091188975,0.0116055375,9.841078
706095952168,-0.15935814,0.056724135,9.789804
706115811424,-0.1779188,0.08493031,9.775846
706135667809,-0.112747654,0.056809116,9.742772
706155524320,-0.07386854,0.108385034,9.699191
706175380704,-0.07929286,0.15052196,9.692521
706195237089,-0.07001643,0.108810246,9.765625
706215093472,-0.07126568,0.052131586,9.814852
706234942621,-0.07930085,0.016369792,9.762064
706254799006,-0.08029502,0.034762245,9.861936
706274655261,-0.12140684,0.09033681,9.808296
706294511517,-0.12034107,0.07843513,9.781654
706314367902,-0.08318147,0.031856854,9.739892
706334213746,-0.066178046,0.063682415,9.74421
706354069874,-0.019586692,0.0908269,9.737945
706373926003,-0.037800357,0.077471964,9.78561
706393782130,-0.017241225,0.06710209,9.728559
706413631303,-0.102255166,0.019649839,9.701224
706433487304,-0.16556695,-0.0019349749,9.901964
706453343175,-0.20679562,0.014488655,9.890634
706473199175,-0.19178832,-0.052304376,9.722412
706493055176,-0.08258119,-0.03570839,9.63921
706512911047,0.06958137,-0.0696402,9.663621
706532771454,0.05954173,0.031629488,9.79773
706552627583,0.014052323,0.12143781,9.831447
706572483582,0.028792707,0.12931873,9.774118
706592339582,0.032662276,-0.083167195,9.765691
706612195711,0.024958655,-0.024802266,9.795005
706632039367,-0.037991058,0.011885487,9.752336
706651895111,0.0027992462,0.035069987,9.646345
706671750856,0.03298241,-0.029136527,9.659128
706691609306,-0.0063163606,-0.044301093,9.721985
706711465050,-0.043276936,0.055527363,9.826833
706731320795,-0.011544443,0.039404247,9.900268
706751177026,-0.042319395,0.06747125,9.903809
706771032770,-0.093801856,0.009962233,9.754803
706790888387,-0.05954901,-0.013965057,9.657174
706810744130,-0.042258333,-0.015368297,9.73531
706830593712,0.023772791,0.05928817,9.711555
706850449329,-0.016463911,0.086057745,9.689236
706870304816,-0.042876717,0.01564697,9.798005
706890160432,-0.04342384,-0.0964266,9.832083
706910015921,-0.0421414,-0.12698393,9.922901
706929866251,-0.026023181,0.038695976,9.800608
706949721611,-0.091303624,0.02085582,9.637418
706969576972,-0.022974284,-0.10904569,9.676865
706989432459,0.074285865,0.018260626,9.702044
707009287819,0.07477371,0.1491547,9.634982
707029143180,0.023605391,0.088153675,9.795641
707049008395,-0.011832949,-0.067556396,9.80616
707068864011,-0.013607904,-0.0033914142,9.735944
707088719500,-0.03293202,0.095378526,9.73698
707108574987,-0.035583213,0.07035582,9.664781
707128434229,-0.022578958,0.052210126,9.690438
707148289846,-0.0073356,0.1760974,9.764832
707168145461,-0.028809158,0.18903556,9.665845
707188000949,-0.055670153,0.06074256,9.607157
707207856566,-0.0466165,0.060871366,9.695538
707227721149,-0.036394145,0.15041815,9.718717
707247576893,-0.12674025,0.27955112,9.607619
707267432766,-0.19601512,0.090314,9.765243
707287288509,-0.08030434,0.029182333,9.716035
707307144381,-0.08586544,0.08472995,9.441244
707327000254,-0.039588258,0.032392107,9.508266
707346857611,-0.11121551,0.028958514,9.684936
707366713483,-0.13996045,0.010427375,9.7182455
707386569356,-0.009989394,0.08147172,9.704666
707406425227,0.037504066,0.0799123,9.667726
707426280928,-0.03681815,0.09725195,9.726235
707446136801,-0.05153273,0.16179089,9.733848
707465992672,-0.05517985,0.123876855,9.647125
707485848544,-0.031952914,0.115226135,9.595202
707505704545,-0.07037958,0.097142585,9.649002
707525559404,-0.09189063,0.03847857,9.682806
707545415276,-0.05909692,0.05816999,9.655003
707565271149,-0.04431826,0.056929737,9.651921
707585127020,-0.017030198,0.0128449425,9.67802
707604982892,0.0070220195,0.056258738,9.578817
707624838765,0.009201126,0.08884981,9.548429
707644700530,0.01602032,0.022624344,9.693402
707664556530,0.01760021,-0.01359638,9.693075
707684412659,-0.02907485,0.0069886944,9.685377
707704268658,-0.04485524,0.005440454,9.7155485
707724129388,-0.085220486,0.08713681,9.706223
707743985517,-0.17696455,0.12626025,9.654811
707763841772,-0.1634366,0.076104976,9.553916
707783698028,-0.07244495,0.07255489,9.569399
707803554157,-0.048413992,0.12488423,9.608603
707823410412,-0.103949524,0.06634412,9.70733
707843263145,-0.08745525,0.07456532,9.714982
707863119274,-0.08858861,0.097811446,9.663304
707882975401,0.001443954,0.089172475,9.653715
707902831529,-0.06322449,0.09799839,9.641076
707922687786,-0.14590792,-0.0132113015,9.68123
707942542023,-0.0017981664,0.10262724,9.673026
707962398151,0.0041351723,0.11162773,9.589367
707982254152,-0.011604781,0.06344101,9.679046
708002110279,-0.03850574,0.046444803,9.709098
708021972246,-0.07100746,0.06947632,9.622181
708041828375,9.423812E-4,0.053395655,9.614447
708061684502,-0.0011968887,0.018348912,9.642008
708081540758,0.020077616,0.018952673,9.63884
708101396887,0.06658204,0.10376376,9.579108
708121253014,0.051886234,0.124269634,9.618637
708141106905,0.11572299,0.0293394,9.704867
708160963034,0.09939171,0.06450233,9.681777
708180819289,0.07948727,0.104056805,9.667025
708200675417,0.12133532,0.09170295,9.732956
708220531546,0.14649582,0.07646585,9.667008
708240380499,0.14418426,0.0751678,9.561512
708260236499,0.17401296,0.063179135,9.5724535
708280092500,0.19102387,0.08538714,9.590625
708299948499,0.24980192,0.080910444,9.643541
708319799629,0.29307055,0.11077987,9.6334915
708339655630,0.31132928,0.16488287,9.717917
708359511629,0.2708902,0.2467971,9.734617
708379367501,0.16815832,0.2679148,9.651739
708399223502,0.12071213,0.24874641,9.671705
708419079373,0.16244136,0.20096402,9.592002
708438923237,0.19700687,0.1409563,9.560961
708458778982,0.29129845,0.19696149,9.564516
708478634597,0.2971195,0.3463683,9.556999
708498490213,0.100299306,0.3691359,9.535851
708518345830,-0.05216887,0.24716035,9.613848
708538203340,-0.25623524,0.039595786,9.560766
708558058956,-0.44292268,0.0074497513,9.491818
708577914573,-0.4887778,-0.008769494,9.567767
708597770188,-0.48005757,0.02696244,9.616263
708617626566,-0.43724942,0.27840084,9.539198
708637482311,-0.5293687,0.36408296,9.6924
708657337926,-0.7260269,0.45309344,9.898257
708677193542,-0.63342196,0.3242677,9.754719
708697049287,-0.11683664,0.41992193,9.81329
708716908232,0.5342382,0.94052523,9.7627125
708736762452,0.78075755,1.1304272,9.567363
708756618069,0.55756116,0.8386285,9.689282
708776473684,-0.2776705,0.7200469,9.522
708796329300,-0.8526922,0.9552412,9.422839
708816184917,-1.0962709,0.78755057,9.472407
708836039214,-1.2149141,0.81017894,9.421545
708855894830,-0.9874959,1.0542084,9.383984
708875750447,-0.6446501,1.3053408,9.551506
708895605934,0.24209543,1.6286488,9.509676
708915463988,0.6089029,1.6391791,9.410524
708935319605,0.4321581,1.3762903,9.281111
708955175348,0.2968927,1.4597619,9.393194
708975030964,-0.17012739,1.7981963,9.284359
708994886581,-0.4536148,1.6122814,9.377946
709014742196,-0.5765576,1.4210495,9.866094
709034598854,-0.039925233,0.9417997,10.201584
709054454471,0.27145353,0.47779596,10.791504
709074310086,-0.42359108,1.5005827,11.831989
709094165702,-1.1663891,1.784079,12.620125
709114021318,-1.0815984,2.6502688,13.307118
709133876934,-1.2693961,4.61985,13.364667
709153735201,-2.2120256,6.2850347,12.737693
709173590817,-3.1189232,5.1733675,12.436781
709193446561,-3.082247,2.598136,13.070782
709213302177,-3.5330572,0.6371047,13.250189
709233157793,-4.799978,-0.7005381,10.315965
709253001816,-4.0287886,-0.8206421,6.1875167
709272857304,-2.1872582,0.40357614,8.663031
709292712664,-1.8870801,0.027997792,12.477408
709312568152,-2.0818546,-2.35704,13.6306305
709332423512,0.2500217,-4.017742,13.187161
709352282798,1.5760826,-4.581673,10.353113
709372138286,0.10696285,-0.9262634,7.807813
709391993774,-0.22917674,-0.5796951,7.810766
709411849262,0.51748925,-3.619309,7.9638934
709431704878,-1.7770991,-3.2270052,10.144642
709451564308,-3.9679914,-1.746855,10.462505
709471419796,-3.4742248,-3.9565625,5.8801203
709491275284,-1.4252436,-5.926597,2.4529076
709511130900,0.56807554,-3.6854744,2.8708436
709530986388,2.2266257,-0.992813,3.5224895
709550853908,3.0809147,-0.22817792,3.4638262
709570709652,2.1470869,0.07266837,4.0159345
709590565524,0.86883634,0.3275564,5.022811
709610421268,-0.2851926,0.58272284,6.876032
709630277012,-1.5211725,1.0123345,11.14326
709650139558,1.0139419,-2.1305065,14.527829
709669995558,3.0778658,-3.3773015,20.133333
709689851558,-3.804976,6.820306,20.318153
709709707558,-2.1642418,4.3001876,7.2851167
709729563558,1.1344731,-3.138898,4.151824
709749424507,3.3820558,-6.8716526,16.385668
709769280635,-3.0530045,-7.4695525,22.387766
709789136763,-3.5897458,-11.434055,6.3032303
709808992891,-2.8459818,-8.919596,1.7243774
709828849019,-5.01795,-8.460245,3.5968215
709848704507,-6.820263,-8.595762,7.9711885
709868560763,-4.028305,-2.7179852,14.4084835
709888416891,-1.9332365,-1.4543393,12.07234
709908273019,-0.74086887,-6.520733,6.2199206
709928129147,0.7562992,-2.6673687,6.0200696
709947985560,0.9621812,-0.46053222,6.830932
709967841688,2.0130658,-1.0089097,7.982697
709987697816,3.3302388,-0.75596243,8.349685
710007553944,2.3134484,-0.3273416,8.39028
710027410072,-1.5249269,-0.5377631,9.385942
710047272289,-6.0331645,0.5039229,10.074046
710067128545,-6.561127,0.73739225,9.935102
710086984801,-2.9154963,-3.0990133,10.908386
710106841057,-0.37868613,-6.2859,11.409736
710126697185,-4.1762905,-4.047384,10.764055
710146557738,-6.158764,-0.7360304,10.403051
710166414122,-3.7114527,-2.7492898,10.102615
710186270506,-0.46745643,-4.4930897,14.054003
710206126890,0.25983346,-4.9225206,14.958083
710225983274,-0.9897663,-4.5704737,11.114635
710245829838,-2.8184657,-4.997638,9.194469
710265686094,-1.1813656,-6.5954585,12.43965
710285542222,1.8759973,-7.0219746,14.219707
710305398478,0.49361822,-7.8253098,12.399052
710325254734,-2.4593315,-6.7607894,12.080071
710345098475,1.7451733,-3.9093947,12.500676
710364954475,4.8330407,-4.505785,10.727284
710384810475,6.719248,-4.7344155,7.1857224
710404666475,7.537183,-3.1138997,2.9503756
710424522347,7.366454,-0.6704381,1.0252074
710444374635,5.064112,1.3394219,2.2071624
710464230507,1.7827051,2.4843829,4.313822
710484086379,-0.12784901,3.0873787,5.284982
710503942251,-0.83880323,2.9401953,5.5022945
710523798123,-0.4080565,0.91929543,6.172171
710543655165,1.5083126,-0.23312473,8.178608
710563511037,2.559516,1.2933853,13.261915
710583366909,-3.1465602,-3.2053638,16.188282
710603222909,-1.0082928,-20.753504,13.472765
710623078781,5.6566334,-4.496414,8.344893
710642931315,6.6382127,18.024817,11.490331
710662787187,6.962516,9.5731125,11.409577
710682642931,4.8175983,4.7364216,5.607993
710702498803,6.218542,6.512045,5.652527
710722359494,5.3997755,3.834535,10.901532
710742220577,3.2245429,-0.09732499,13.4625845
710762076577,-0.061953716,-5.8072023,12.3965845
710781932449,2.224704,0.4387087,8.909937
710801788449,1.2640063,1.5545866,7.903087
710821644449,0.37050518,-1.7361063,7.7941504
710841486125,0.63329875,-0.4994797,7.8296375
710861341613,1.0451903,-0.1434673,7.564787
710881197229,1.8234389,0.50161576,8.019572
710901052717,2.5244927,1.8904924,8.825995
710920908333,2.6072989,1.3568196,9.766092
710940762614,1.760714,-0.9674944,10.333282
710960618102,2.372758,-2.2064915,10.349875
710980473590,3.3736677,-2.938495,10.716215
711000329078,4.238448,-2.9006658,10.896591
711020184566,4.7604284,-1.8139006,10.705454
711040041541,4.1217847,-0.33080703,10.700944
711059897029,3.3288176,-2.3055005,10.602063
711079752517,4.0115366,-4.0858855,9.667224
711099608005,4.5882063,-3.3334153,10.084163
711119463365,4.845806,-0.86537975,12.365419
711139328477,5.003247,1.6135921,11.752492
711159184093,4.1278076,1.5057855,9.968767
711179039837,1.8406167,1.4052694,9.872125
711198895581,0.19392389,1.5482646,12.254507
711218751197,-0.39550123,2.1593056,13.781103
711238615273,-1.1735753,0.11098801,13.82308
711258471017,-0.929245,-2.9360058,12.096421
711278326889,-0.51255584,-3.660512,10.617327
711298182761,-0.5369279,-2.0834417,10.576938
711318038505,-0.7538485,-0.67920536,10.539615
711337892163,-0.30367398,0.16879952,9.590172
711357748035,-0.19466183,3.832373,7.8841305
711377603779,-0.885276,3.505263,7.6756396
711397459651,-0.93994075,3.203908,7.3568807
711417315523,-1.2321715,3.0097308,5.3626676
711437176283,-1.6396843,0.11967865,5.571535
711457032155,-0.666817,-1.0402601,5.922032
711476888027,-0.090221494,-0.9263809,6.9242206
711496744027,-0.5250297,-0.6805738,7.8034587
711516599899,-0.83023036,-0.49902812,7.8048234
711536464444,-0.7974721,0.12621073,8.034841
711556320572,1.6487863,-2.7443392,9.64191
711576176700,5.9011917,-6.9335876,10.362649
711596032828,4.4864936,-5.289486,8.454186
711615888828,1.9232478,-0.8475536,6.688705
711635750690,1.2989116,2.4428742,5.5831933
711655606946,-2.1727703,5.24528,5.920878
711675463330,-1.9832746,4.4257913,7.061791
711695319714,-0.5706726,2.06686,10.873911
711715175970,-0.10800496,-2.565875,17.587465
711735040899,-1.0779165,-0.064693615,19.095343
711754897411,-2.4035034,1.1048462,17.057085
711774754051,-3.1988056,-0.9684141,12.139649
711794610563,-1.3951234,0.5507212,8.395883
711814467203,-2.541869,0.9124596,7.8775706
711834305118,-1.2985138,0.48954976,8.412058
711854161246,-0.18099292,1.7331004,10.111773
711874017502,0.26099628,2.9938095,11.612401
711893873758,0.31179923,4.2593703,11.04853
711913730014,-0.7419238,4.472854,9.053206
711933589438,-1.6032671,2.7117448,8.539916
711953445694,-1.9783506,0.82578015,9.073472
711973301822,-0.21477726,-0.80343306,10.311248
711993158078,5.697796,-6.181367,11.353173
712013014334,3.327263,-3.391044,11.261455
712032873223,0.44627658,-1.0974838,10.872061
712052729607,-1.2327199,0.033768706,10.726089
712072585863,-1.3091754,1.4728924,9.706756
712092442119,-1.517821,1.675697,9.649445
712112298375,-0.83498824,1.0383047,9.689223
712132157745,0.19113775,0.48850524,9.235187
712152014129,-0.47258168,-0.09293667,9.297876
712171870513,-1.1791555,-0.6991632,9.836007
712191726897,-0.720817,-1.4654928,10.900838
712211583153,0.96850216,-1.3542147,10.994522
712231433502,1.7306415,0.14847046,10.161399
712251289758,1.3444604,0.8290454,9.610863
712271146014,1.1616237,-0.7246571,9.542982
712291002270,1.2619393,-1.7545465,9.075643
712310858398,0.9872358,-1.5653843,8.493293
712330713775,1.4434092,-1.9924921,8.40631
712350570031,2.5721416,-1.5430542,8.629285
712370426287,2.8128953,0.5414725,8.8477125
712390282543,1.7664787,1.8801705,8.814554
712410138799,0.63541996,0.79176974,8.703079
712429995055,0.70208323,-1.0662365,8.302734
712449842649,0.94130725,-1.761409,7.9679976
712469698649,0.3715164,-1.4040527,8.244912
712489554649,-0.6853342,-0.86931545,9.09089
712509410777,-0.72994035,-0.07865662,9.751212
712529266777,-0.1880929,1.0389923,10.094867
712549118717,0.3367808,1.1078117,9.980688
712568974589,0.69771993,-1.0662941,9.650693
712588830589,0.038687363,-2.2472336,9.996064
712608686461,-0.62799525,-1.5790199,10.187219
712628542333,-0.15808219,-1.7883875,9.84627
712648397271,0.04288505,-0.21160418,10.002722
712668253143,0.8717205,0.45827925,10.778774
712688109015,1.9410449,-1.4057078,11.362966
712707964887,2.7697968,-1.777445,10.541547
712727825320,3.2200599,-1.3074919,9.539186
712747683471,2.9770422,-1.6918222,9.440923
712767539343,1.9947337,-0.5214665,9.406005
712787395215,1.2370334,0.22800285,9.515166
712807251087,0.3357302,0.28983364,9.9824915
712827107087,-0.22866316,0.5944099,10.571057
712846963579,-0.15455228,0.019791165,10.8159075
712866819451,0.13423352,-0.501905,10.61937
712886675451,0.7134123,-1.4208153,10.039081
712906531451,1.2405418,-1.5177507,9.751739
712926387323,1.2907383,-0.40757322,9.822888
712946244139,0.61539716,0.14954595,9.836401
712966100011,0.10924371,0.20735456,9.817183
712985956011,-0.20271118,-0.28788406,9.897383
713005811883,-0.35475525,-0.6587571,9.981532
713025667755,-0.10071326,-0.8391529,9.945561
713045532690,0.2389769,-0.93287444,9.899721
713065388690,0.17469504,-0.55435514,10.024568
713085244818,-0.15473223,-0.14232972,10.110847
713105100946,-0.2696014,-0.050022908,9.887313
713124956946,-0.070291996,-0.21119426,9.745105
713144813432,0.15357088,-0.28931347,9.827747
713164669560,0.16027047,-0.4158629,9.763346
713184525688,0.2535914,-0.36397478,9.513474
713204381816,0.26112333,-0.17265218,9.704463
713224238072,0.03327199,0.304125,10.048816
713244100886,-0.14994104,0.9054365,9.872469
713263957142,0.1385239,1.1293147,9.807986
713283813398,1.4785,-0.118966855,10.17316
713303669654,1.6126994,-0.8708148,10.852846
713323525910,0.5234033,0.18190916,10.523856
713343383604,0.95909363,-1.4856695,9.609254
713363239988,0.41362473,-1.8190383,9.468458
713383096372,0.21964778,-1.5807501,9.358173
713402952756,0.37349513,-1.1016346,9.429381
713422809140,0.6965787,-0.713484,9.941688
713442651790,0.92607486,-0.72766393,10.503825
713462507790,0.9707164,-0.27719128,10.56465
713482363790,0.90634686,0.3913447,10.315617
713502219790,0.44397873,0.55915266,9.824338
713522075662,0.10050365,0.31324565,9.496813
713541940999,0.05467897,-0.51988745,9.723553
713561797255,0.013638646,-0.7814435,9.799456
713581653383,0.3657684,-0.660712,9.873343
713601509639,0.70283777,-0.45913392,10.110979
713621365895,0.73042387,-0.002804496,9.929208
713641222661,0.47421357,0.807859,9.668397
713661078917,0.3181274,0.9230811,9.63949
713680935173,0.31278703,0.3661428,9.621263
713700791429,0.48540267,-0.20836857,9.708726
713720647685,0.59077144,-0.37760428,9.838424
713740507372,0.5125811,-0.23112343,9.825393
713760363756,0.42512292,0.030941946,9.769516
713780220140,0.47642073,0.051976066,9.895128
713800076524,0.50860536,-0.43130308,9.969076
713819932908,0.47547635,-0.71395636,9.964228
713839786319,0.41360152,-0.65504926,9.945685
713859642575,0.357247,-0.7384823,10.061231
713879498959,0.38817713,-0.62258935,10.190561
713899355215,0.4033528,-0.4226404,9.964666
713919211599,0.40228623,-0.39542148,9.722144
713939073305,0.38157037,-0.35414797,9.747629
713958929817,0.36189356,-0.17248556,9.785742
713978786201,0.38412297,-0.13569233,9.77326
713998642585,0.3633164,-0.12701112,9.898419
714018499097,0.2520784,-0.18713172,10.002777
714038358686,0.1769046,-0.29329178,9.991128
714058215198,0.18454306,-0.31522897,9.956681
714078071710,0.27268508,-0.31446278,9.8376
714097928222,0.3781958,-0.20956552,9.855581
714117784606,0.4564073,-0.03514652,9.916301
714137635732,0.48429155,0.0336547,9.810192
714157492116,0.35420758,-0.01971042,9.795243
714177348500,0.18449283,-0.12959112,9.766085
714197204756,0.13187754,-0.1633261,9.729787
714217061140,0.20062669,-0.21405326,9.756759
714236912233,0.24744047,-0.18969022,9.751987
714256768489,0.2030739,-0.115413144,9.710976
714276624745,0.19647638,-0.1469878,9.609519
714296481001,0.22356829,-0.141657,9.554544
714316337257,0.24597271,-0.14262931,9.755984
714336182406,0.11641182,-0.14925738,9.939663
714356038406,0.0019861246,-0.18666317,9.917439
714375894406,-0.014415805,-0.19176173,9.814299
714395750406,0.0055065304,-0.3395657,9.794858
714415606534,0.08326536,-0.40658548,9.929439
714435458005,0.15800491,-0.25780648,9.789755
714455313877,0.2634847,-0.13204342,9.608612
714475169749,0.30028963,-0.1942522,9.578297
714495025621,0.24040906,-0.24968138,9.610189
714514881493,0.2865173,-0.23955438,9.867494
714534742960,0.4690206,-0.23159842,9.926624
714554598960,0.5419128,-0.13016237,9.789852
714574454960,0.5383511,-0.19923982,9.696403
714594310960,0.5722899,-0.28206098,9.695177
714614166960,0.49854267,-0.29485607,9.671938
714634023478,0.49695605,-0.28471807,9.645761
714653879478,0.48961017,-0.29481027,9.618338
714673735606,0.5293142,-0.15798935,9.826084
714693591606,0.5074063,-0.16335812,10.042566
714713447606,0.5305477,-0.24361862,9.845052
714733308983,0.44020236,-0.20769879,9.676998
714753164983,0.31776592,-0.17923659,9.628372
714773021111,0.4277256,-0.20852661,9.638852
714792877239,0.4337144,-0.21190262,9.562687
714812733239,0.39661667,-0.2686128,9.549934
714832589993,0.37538132,-0.2362974,9.713535
714852446121,0.44292945,-0.16547818,9.908301
714872302249,0.5306725,-0.2272565,9.965563
714892158377,0.5256508,-0.26234168,9.911953
714912014505,0.43092343,-0.20324397,9.712953
714931872033,0.36003467,-0.20703286,9.685537
714951728161,0.31819287,-0.24263233,9.596603
714971584289,0.2709884,-0.28617367,9.556604
714991440417,0.22909491,-0.23281318,9.687489
715011296673,0.27506998,-0.20266584,9.8070345
715031151813,0.38388953,-0.2435028,9.88575
715051007941,0.35562357,-0.23009281,9.874976
715070863941,0.29582492,-0.20643188,9.881737
715090720069,0.26264122,-0.27131397,9.71855
715110576069,0.30236503,-0.30439323,9.599932
715130438146,0.32295907,-0.33023167,9.62023
715150294402,0.36462724,-0.31871572,9.68329
715170150530,0.3382541,-0.2290321,9.77184
715190006786,0.3480565,-0.28896832,9.802974
715209863042,0.40559313,-0.31418166,9.8522415
715229720809,0.41918716,-0.23554577,9.872869
715249577065,0.4297774,-0.22817838,9.790083
715269433193,0.37580076,-0.259479,9.599582
715289289449,0.2697251,-0.2517237,9.6403475
715309145705,0.24056101,-0.31522787,9.713373
715329004678,0.30878648,-0.2777592,9.71238
715348860934,0.3042029,-0.25360343,9.755055
715368717190,0.34135774,-0.30247173,9.801808
715388573446,0.3932979,-0.27613252,9.848935
715408429830,0.41492432,-0.22416307,9.83759
715428285799,0.4128319,-0.2496161,9.705721
715448142055,0.3623579,-0.26201615,9.577012
715467998439,0.29479063,-0.3577408,9.658871
715487854695,0.3378513,-0.4297351,9.850296
715507710951,0.39943546,-0.3974053,9.800245
715527573643,0.42723358,-0.25913683,9.673496
715547430155,0.41781956,-0.20913163,9.672976
715567286539,0.39125356,-0.218353,9.735575
715587143051,0.44951892,-0.2734684,9.751664
715606999563,0.4694521,-0.28546545,9.74153
715626859232,0.45702538,-0.25482786,9.6745825
715646715872,0.4260004,-0.23870496,9.73714
715666572512,0.3860054,-0.20520909,9.888566
715686429152,0.4405204,-0.21711959,9.635039
715706285792,0.48454252,-0.23615031,9.5696125
715726143296,0.4733182,-0.31545046,9.723557
715745999936,0.5205754,-0.27006567,9.709293
715765856576,0.4922669,-0.14219734,9.699287
715785713344,0.4883993,-0.21331081,9.721256
715805569984,0.4747763,-0.23135734,9.750041
