UPTIMENANO,Ax,Ay,Az
88541750544592,-1.1184741000000002,9.6686945,-1.2573853000000002
88541770402128,-1.1400293,9.721385,-1.3507911
88541790259536,-1.2334352,9.745335,-1.3172607
88541810130597,-1.2454101999999998,9.637559,-1.1927198
88541829988389,-1.1711646,9.604028999999999,-1.1831397
88541849846053,-1.1567944,9.474698,-1.1855347
88541869703845,-1.1520045,9.623189,-1.2669654
88541889561637,-1.0825489,9.613608000000001,-1.1999048
88541909426547,-1.1232642,9.654325,-1.2094848999999999
88541929284467,-1.1520045,9.4507475,-1.1879296999999998
88541949142387,-1.1687696,9.381292,-1.2046948999999998
88541969000435,-1.1687696,9.513017999999999,-1.2454101999999998
88541988858355,-1.1975098,9.72378,-1.1687696
88542008727112,-1.1759547,9.910591,-1.1304493
88542028585288,-1.1783496,9.865086,-1.101709
88542048443592,-1.2573853000000002,9.683064,-1.1400293
88542068301896,-1.2454101999999998,9.577683,-1.1591895
88542088160200,-1.2861254999999998,9.453142,-1.096919
88542108015334,-1.2621753,9.455538,-1.0681788
88542127873510,-1.2094848999999999,9.489068,-1.096919
88542147731814,-1.1448194,9.582474000000001,-1.2525953
88542167589990,-1.1855347,9.745335,-1.3795313
88542187448294,-1.2094848999999999,9.81,-1.2981006000000002
88542207306945,-1.1567944,9.73815,-1.2933106
88542227165121,-1.1304493,9.64714,-1.1112891000000003
88542247023297,-1.1280543,9.589659,-1.1041040000000002
88542266881473,-1.1232642,9.654325,-1.0226734
88542286739649,-0.9532178,9.702225,-1.1807446000000001
88542306597953,-0.8885523000000001,9.726174,-1.2621753
88542326467099,-0.9053174,9.711803999999999,-1.22146
88542346325659,-0.9436377,9.855506,-1.1711646
88542366184091,-1.0178833,9.745335,-1.2693603999999998
88542386042651,-1.1543995,9.575289,-1.2933106
88542405901083,-1.2430152,9.627979,-1.1927198
88542425755486,-1.1927198,9.604028999999999,-1.3004956
88542445613918,-1.1352394,9.517808,-1.334026
88542465472350,-1.1088941,9.630374,-1.4058765
88542485330783,-1.0825489,9.546548,-1.3603711
88542505189216,-1.0753639,9.558523,-1.3771361999999998
88542525035769,-1.1783496,9.6758795,-1.3651612
88542544894070,-1.1639795,9.649534,-1.3292358999999998
88542564752246,-1.1304493,9.685459,-1.2741505
88542584610550,-1.0681788,9.532178,-1.2981006000000002
88542604468854,-1.0059083,9.589659,-1.2957056999999998
88542624310883,-1.0154883,9.620794,-1.1999048
88542644169060,-0.9412427,9.510622999999999,-1.1879296999999998
88542664027109,-0.9436377,9.594449000000001,-1.2454101999999998
88542683885286,-0.9963281999999999,9.596844,-1.2765454
88542703743335,-1.0346485,9.671089,-1.2549903
88542723595964,-1.0346485,9.72857,-1.2118799999999998
88542743453885,-0.9388476999999998,9.64714,-1.2334352
88542763311934,-0.9412427,9.544153,-1.3148658000000002
88542783169983,-1.0490186000000001,9.467513,-1.3819263000000002
88542803028024,-1.1304493,9.64714,-1.4154567
88542822883779,-1.0777588,9.726174,-1.3028906999999998
88542842741699,-1.0035132,9.651928999999999,-1.3100758
88542862599747,-1.0298585,9.577683,-1.3076807
88542882457667,-0.9484278,9.6615095,-1.3939015
88542902315715,-0.92926764,9.704619000000001,-1.3723463
88542922153339,-0.99393314,9.81,-1.3364209999999999
88542942010619,-1.1088941,9.678274,-1.3196558
88542961868027,-1.2525953,9.754914999999999,-1.2310401000000002
88542981725307,-1.1975098,9.570497999999999,-1.2406201000000001
88543001582587,-1.1543995,9.560919,-1.3028906999999998
88543021431259,-1.0873389,9.515413,-1.2909156000000002
88543041288283,-1.0418334999999999,9.534574000000001,-1.2573853000000002
88543061145435,-0.96758795,9.587264,-1.2765454
88543081002459,-0.95561284,9.764495,-1.2861254999999998
88543100859483,-0.8885523000000001,9.766891000000001,-1.2885206
88543120718414,-0.9412427,9.766891000000001,-1.2454101999999998
88543140575438,-0.9029224,9.5633135,-1.219065
88543160432590,-0.9651929,9.577683,-1.2525953
88543180289614,-0.97237796,9.580078,-1.2166698999999999
88543200146638,-0.97956306,9.5561285,-1.2022998
88543220002935,-1.0753639,9.659114,-1.2334352
88543239859960,-1.0729688,9.671089,-1.2286451
88543259716985,-1.0346485,9.697434,-1.2334352
88543279573879,-1.0154883,9.812395,-1.2022998
88543299430903,-0.9963281999999999,9.656719,-1.1496094
88543319296929,-1.1041040000000002,9.644744000000001,-1.1424243
88543339154081,-1.2022998,9.599238,-1.0825489
88543359011233,-1.0849438999999999,9.580078,-1.1184741000000002
88543378868385,-1.0274634,9.697434,-1.1448194
88543398725538,-0.974773,9.623189,-1.1807446000000001
88543418584335,-0.97237796,9.72857,-1.1687696
88543438441488,-0.96040285,9.6686945,-1.1304493
88543458298769,-0.9915381,9.6686945,-1.1496094
88543478155922,-0.93405765,9.659114,-1.0753639
88543498013075,-0.85741705,9.707015,-1.0609937
88543517877438,-0.8167017,9.807606,-1.0490186000000001
88543537734847,-0.86220706,9.730965,-0.95561284
88543557592128,-0.9053174,9.553733,-0.9651929
88543577449537,-0.9532178,9.522598,-0.9388476999999998
88543597306818,-0.8813671999999999,9.5561285,-0.95561284
88543617171613,-0.90771246,9.769285,-0.8861573
88543637029150,-0.84065187,9.850716,-0.8885523000000001
88543656886687,-0.8286768,9.862691,-0.9244776
88543676744224,-0.87897223,9.716595,-0.9029224
88543696606465,-0.92926764,9.620794,-0.9651929
88543716464002,-0.96758795,9.572892999999999,-0.79754156
88543736321667,-0.8813671999999999,9.6615095,-0.82388675
88543756179204,-0.87897223,9.68067,-0.79754156
88543776036869,-0.86939216,9.869876,-0.87897223
88543795894386,-0.89573735,9.754914999999999,-1.0011181999999998
88543815756635,-1.0154883,9.862691,-1.0130934
88543835614428,-1.1400293,9.685459,-0.82388675
88543855472091,-1.1064991000000002,9.544153,-0.8095166
88543875329883,-1.0442286,9.558523,-0.94603276
88543895187676,-0.977168,9.606423,-0.84544194
88543915053742,-0.9699829,9.558523,-0.8310718
88543934911790,-1.089734,9.697434,-0.7927515
88543954769839,-1.094524,9.716595,-0.87897223
88543974627886,-0.9699829,9.620794,-0.94603276
88543994487642,-0.95561284,9.601633999999999,-0.8765772
88544014345819,-1.0921290000000001,9.606423,-0.7041358
88544034203994,-1.1543995,9.72857,-0.61073
88544054062170,-1.1184741000000002,9.831555,-0.62510014
88544073920347,-0.99393314,9.759705,-0.68976563
88544093778522,-0.86939216,9.74773,-0.728086
88544113623776,-0.80233157,9.64714,-0.7376661
88544133481697,-0.8813671999999999,9.5633135,-0.6562354
88544153339616,-0.98195803,9.613608000000001,-0.6011499
88544173197536,-1.0011181999999998,9.802814999999999,-0.60833496
88544193055457,-0.9053174,9.81958,-0.6514453
88544212904343,-0.81909674,9.70941,-0.7185059
88544232762007,-0.8669971,9.659114,-0.7448511
88544252619800,-0.9651929,9.721385,-0.7544312
88544272477463,-0.977168,9.690249,-0.68018556
88544292334351,-0.974773,9.6615095,-0.6179150999999999
88544312192016,-1.0250684,9.707015,-0.64186525
88544332045935,-0.9148975,9.726174,-0.66342044
88544351903600,-0.8813671999999999,9.651928999999999,-0.6490503000000001
88544371761265,-0.9508228000000001,9.637559,-0.62989014
88544391618930,-0.977168,9.5633135,-0.6466553
88544411480117,-0.9508228000000001,9.620794,-0.66342044
88544431337782,-0.9699829,9.845925,-0.68018556
88544451195575,-0.9196875,9.896221,-0.6490503000000001
88544471053240,-0.90771246,9.795630000000001,-0.6227050999999999
88544490911033,-0.9987232,9.666299,-0.6466553
88544510759578,-0.99393314,9.606423,-0.7113208000000001
88544530617115,-1.0418334999999999,9.632769,-0.60354495
88544550474524,-0.91729254,9.551338000000001,-0.6777906
88544570332061,-0.91729254,9.608819,-0.69695073
88544590189598,-0.8909473,9.80521,-0.7161109
88544610047135,-0.8598120000000001,9.800421,-0.74724615
88544629896026,-0.89573735,9.7740755,-0.7232959
88544649753307,-0.92926764,9.630374,-0.8047266
88544669610588,-0.97237796,9.527389,-0.7041358
88544689467869,-0.9867481,9.673484,-0.7951465
88544709318676,-1.0466236,9.821976,-0.7544312
88544729175829,-1.0250684,9.879456,-0.67539555
88544749032854,-0.91010743,9.6758795,-0.7448511
88544768890007,-0.92926764,9.630374,-0.8813671999999999
88544788747160,-0.9508228000000001,9.72378,-0.8813671999999999
88544808597082,-0.9388476999999998,9.692644,-0.7664063
88544828453978,-0.98435307,9.6758795,-0.75203615
88544848311003,-1.0178833,9.721385,-0.7927515
88544868167898,-0.93405765,9.754914999999999,-0.81909674
88544888024794,-0.9053174,9.637559,-0.87897223
88544907881819,-0.98914313,9.695039999999999,-0.91010743
88544927743986,-0.97956306,9.718989,-0.85741705
88544947601010,-0.9867481,9.639954,-0.8310718
88544967458035,-1.0466236,9.635164,-0.91250247
88544987315058,-1.0418334999999999,9.635164,-0.87178713
88545007170936,-0.974773,9.711803999999999,-0.8981324
88545027027833,-0.98435307,9.745335,-0.94603276
88545046884856,-1.0011181999999998,9.695039999999999,-0.9148975
88545066741752,-1.0274634,9.666299,-0.8981324
88545086598649,-1.0130934,9.627979,-0.8669971
88545106454386,-1.0083033000000001,9.635164,-0.86939216
88545126311282,-1.0250684,9.81,-0.8813671999999999
88545146168307,-1.0083033000000001,9.769285,-0.9148975
88545166025202,-1.0394385,9.699829,-0.9364527
88545185882098,-0.96040285,9.630374,-0.8981324
88545205738995,-0.8861573,9.472302,-0.91729254
88545225600390,-1.0490186000000001,9.565708,-0.9699829
88545245457413,-1.1232642,9.764495,-0.8262818000000001
88545265314438,-0.9627979,9.891430999999999,-0.7879615
88545285171333,-0.82388675,9.829161000000001,-0.9364527
88545305028762,-0.89573735,9.618399,-0.98435307
88545324885787,-0.92926764,9.687855,-1.0035132
88545344742810,-0.9412427,9.623189,-0.8167017
88545364599834,-0.97956306,9.580078,-0.85741705
88545384456859,-1.096919,9.635164,-0.84065187
88545404320147,-0.9987232,9.695039999999999,-0.90771246
88545424177299,-0.9388476999999998,9.7740755,-0.8981324
88545444034452,-0.96040285,9.711803999999999,-0.96040285
88545463891603,-1.0346485,9.630374,-0.9627979
88545483748755,-1.0322535,9.683064,-0.9029224
88545503606036,-1.0322535,9.596844,-0.9029224
88545523469111,-1.1232642,9.704619000000001,-0.91250247
88545543326391,-1.1376343,9.82437,-0.8095166
88545563183672,-0.9987232,9.766891000000001,-0.8909473
88545583041079,-0.9915381,9.575289,-0.9508228000000001
88545602906368,-1.0442286,9.611214,-0.9867481
88545622763777,-1.0849438999999999,9.68067,-0.8143066999999999
88545642621312,-1.0059083,9.68067,-0.78556645
88545662478848,-1.0274634,9.690249,-0.91250247
88545682336385,-0.977168,9.80521,-0.974773
88545702193792,-0.89573735,9.697434,-0.91010743
88545722056997,-0.9508228000000001,9.659114,-0.91010743
88545741914534,-0.98914313,9.642349000000001,-0.87897223
88545761772197,-1.0059083,9.632769,-0.9484278
88545781629733,-1.0394385,9.7142,-0.98435307
88545801487270,-1.0274634,9.699829,-0.9029224
88545821347060,-0.95561284,9.702225,-0.92926764
88545841204596,-0.9244776,9.6758795,-0.97237796
88545861062261,-0.9580079,9.651928999999999,-0.96758795
88545880919924,-0.9651929,9.754914999999999,-0.9268726
88545900781093,-0.91729254,9.654325,-0.97237796
88545920638886,-0.93405765,9.580078,-0.977168
88545940496677,-0.9364527,9.690249,-0.9508228000000001
88545960354469,-0.9484278,9.721385,-0.96040285
88545980212134,-0.9987232,9.78605,-0.8765772
88546000069925,-0.9412427,9.580078,-0.87897223
88546019939152,-0.977168,9.515413,-0.9412427
88546039797201,-1.0106983,9.644744000000001,-0.91729254
88546059655248,-1.0370435,9.73815,-0.80233157
88546079513424,-1.0035132,9.802814999999999,-0.87418216
88546099371473,-1.0370435,9.778865,-0.8909473
88546119225280,-0.977168,9.678274,-0.9053174
88546139083201,-0.96758795,9.699829,-0.93405765
88546158941250,-1.0322535,9.618399,-0.80712163
88546178799295,-0.9987232,9.620794,-0.80233157
88546198656855,-0.9412427,9.666299,-0.7759864000000001
88546218514904,-0.8478370000000001,9.745335,-0.84544194
88546238372823,-0.8885523000000001,9.924961,-0.82388675
88546258230872,-0.8478370000000001,9.754914999999999,-0.7664063
88546278088921,-0.85023195,9.735755000000001,-0.8382569
88546297946970,-0.8765772,9.649534,-0.8813671999999999
88546317800191,-0.977168,9.536968,-0.8598120000000001
88546337658112,-1.0370435,9.644744000000001,-0.7568262
88546357516033,-0.9364527,9.733359,-0.74724615
88546377373954,-0.8430469,9.77647,-0.8214916999999999
88546397231875,-0.86939216,9.642349000000001,-0.8861573
88546417087418,-0.8981324,9.613608000000001,-0.87178713
88546436945211,-0.8933423,9.671089,-0.76880133
88546456803132,-0.8430469,9.6686945,-0.7424561
88546476660925,-0.9532178,9.800421,-0.7951465
88546496520132,-0.8813671999999999,9.877061,-0.7807764
88546516378053,-0.7544312,9.817185,-0.87178713
88546536235974,-0.8669971,9.75252,-0.8310718
88546556093895,-0.87897223,9.572892999999999,-0.7113208000000001
88546575951688,-0.8813671999999999,9.513017999999999,-0.77359134
88546595809609,-0.9699829,9.580078,-0.852627
88546615657574,-0.8885523000000001,9.644744000000001,-0.8813671999999999
88546635515367,-0.85023195,9.79084,-0.8430469
88546655373032,-0.8334668,9.692644,-0.8861573
88546675230825,-0.91729254,9.766891000000001,-0.94603276
88546695088618,-0.9651929,9.7812605,-0.7807764
88546714937781,-0.9268726,9.608819,-0.79754156
88546734795297,-1.0035132,9.601633999999999,-0.85023195
88546754652834,-0.98435307,9.759705,-0.855022
88546774510371,-0.91250247,9.833950999999999,-0.8981324
88546794367905,-0.93405765,9.707015,-0.8430469
88546814225314,-0.9484278,9.551338000000001,-0.855022
88546834074224,-0.9268726,9.5489435,-0.855022
88546853931504,-0.9244776,9.570497999999999,-0.9196875
88546873788913,-1.0801538,9.726174,-0.86220706
88546893646192,-0.9532178,9.8866415,-0.8430469
88546913501520,-0.83586186,9.855506,-0.91729254
88546933358673,-0.9196875,9.877061,-0.97237796
88546953215952,-0.98435307,9.75731,-0.93405765
88546973073104,-1.0849438999999999,9.620794,-0.74006104
88546992930385,-0.9244776,9.491463000000001,-0.79754156
88547012789748,-0.9915381,9.472302,-0.95561284
88547032646900,-1.0011181999999998,9.730965,-0.9651929
88547052504181,-0.8430469,9.836346,-0.8669971
88547072361332,-0.7496411000000001,9.673484,-0.9508228000000001
88547092218612,-0.86939216,9.613608000000001,-1.096919
88547112075765,-0.9532178,9.606423,-1.0202783000000002
88547131937957,-1.0514137,9.704619000000001,-0.8262818000000001
88547151795237,-0.97237796,9.685459,-0.90052736
88547171652518,-0.96040285,9.72857,-0.9915381
88547191509799,-0.8933423,9.695039999999999,-1.0562036
88547211373180,-0.9148975,9.608819,-0.97237796
88547231230589,-0.92208254,9.685459,-0.96758795
88547251087868,-0.92208254,9.783655,-0.87178713
88547270945276,-0.90771246,9.745335,-0.97237796
88547290802685,-0.977168,9.7812605,-0.94603276
88547310660092,-0.87178713,9.718989,-0.96758795
88547330519205,-0.852627,9.659114,-0.9484278
88547350376742,-0.8909473,9.651928999999999,-0.99393314
88547370234151,-0.98914313,9.539363,-0.9029224
88547390091556,-0.96758795,9.584868,-0.977168
88547409949093,-0.98914313,9.601633999999999,-0.9412427
88547429808798,-0.96040285,9.833950999999999,-0.974773
88547449666206,-0.9508228000000001,9.939331,-0.9364527
88547469523743,-0.9364527,9.778865,-0.93405765
88547489381150,-0.9484278,9.735755000000001,-0.95561284
88547509242148,-1.0106983,9.635164,-0.9508228000000001
88547529099685,-1.0681788,9.568104,-0.9196875
88547548957220,-1.0753639,9.477093,-0.8669971
88547568814756,-0.9436377,9.527389,-0.974773
88547588672293,-0.9388476999999998,9.759705,-0.9651929
88547608529828,-0.8933423,9.862691,-0.8669971
88547628387866,-0.9053174,9.75731,-0.9196875
88547648245531,-0.9627979,9.690249,-0.9268726
88547668103194,-0.9915381,9.683064,-0.93405765
88547687960858,-1.0298585,9.79084,-0.8167017
88547707818395,-0.9627979,9.68067,-0.8885523000000001
88547727676058,-1.0083033000000001,9.649534,-0.87897223
88547747533722,-0.9627979,9.699829,-0.85741705
88547767391387,-0.89573735,9.651928999999999,-0.91729254
88547787249050,-0.96040285,9.7142,-0.8861573
88547807100369,-0.9699829,9.6615095,-0.8909473
88547826957906,-0.93405765,9.7142,-0.86220706
88547846815441,-0.91010743,9.853110000000001,-0.9532178
88547866672977,-0.9580079,9.730965,-0.8981324
88547886530514,-0.9388476999999998,9.64714,-0.8813671999999999
88547906388049,-0.92208254,9.467513,-0.86939216
88547926244866,-0.977168,9.560919,-0.9029224
88547946102403,-0.9915381,9.639954,-0.8095166
88547965959938,-0.97956306,9.685459,-0.85741705
88547985817474,-0.94603276,9.910591,-0.87418216
88548005675011,-0.86939216,9.8938265,-0.9316626
88548025540976,-0.9388476999999998,9.718989,-0.9364527
88548045398768,-1.0346485,9.623189,-0.8598120000000001
88548065256433,-1.0346485,9.565708,-0.75203615
88548085114224,-0.9699829,9.551338000000001,-0.8262818000000001
88548104973083,-1.0178833,9.651928999999999,-0.87178713
88548124830876,-0.98435307,9.742939999999999,-0.9436377
88548144688667,-0.89573735,9.7812605,-0.87897223
88548164546459,-0.91729254,9.73815,-0.9388476999999998
88548184404252,-0.9484278,9.6758795,-0.86939216
88548204262043,-1.0059083,9.683064,-0.87178713
88548224116173,-1.0514137,9.568104,-0.83586186
88548243973838,-1.0418334999999999,9.572892999999999,-0.85741705
88548263831629,-0.96758795,9.704619000000001,-0.8765772
88548283689294,-0.8933423,9.79084,-0.85741705
88548303546959,-0.8981324,9.704619000000001,-0.8334668
88548323403162,-0.9699829,9.635164,-0.90052736
88548343260826,-0.98435307,9.623189,-0.852627
88548363118363,-0.9867481,9.651928999999999,-0.78556645
88548382976026,-1.0298585,9.733359,-0.7664063
88548402832207,-1.0059083,9.850716,-0.8167017
88548422689872,-0.87178713,9.721385,-0.87897223
88548442542547,-0.9053174,9.671089,-0.8286768
88548462400084,-0.95561284,9.644744000000001,-0.8334668
88548482257493,-0.9412427,9.584868,-0.80712163
88548502114902,-0.9627979,9.620794,-0.8095166
88548521966319,-0.95561284,9.740545,-0.8933423
88548541823728,-0.9148975,9.857901,-0.81909674
88548561681009,-0.85741705,9.800421,-0.8214916999999999
88548581538418,-0.9244776,9.654325,-0.85023195
88548601395699,-0.9627979,9.608819,-0.8095166
88548621245812,-0.9388476999999998,9.580078,-0.85741705
88548641102965,-0.9699829,9.70941,-0.83586186
88548660960246,-0.9244776,9.711803999999999,-0.87178713
88548680817399,-0.9364527,9.759705,-0.83586186
88548700674552,-0.85023195,9.649534,-0.90052736
88548720531705,-0.88376224,9.5633135,-0.8861573
88548740390760,-1.0083033000000001,9.678274,-0.85741705
88548760247913,-1.0298585,9.726174,-0.81191164
88548780105194,-1.0394385,9.735755000000001,-0.91250247
88548799962455,-1.0035132,9.829161000000001,-0.8981324
88548819820235,-0.84544194,9.659114,-0.8981324
88548839677516,-0.8813671999999999,9.546548,-0.8909473
88548859534795,-0.9651929,9.546548,-0.855022
88548879392075,-0.9987232,9.625584,-0.855022
88548899249356,-1.0609937,9.79084,-0.86939216
88548919101744,-0.97237796,9.769285,-0.9651929
88548938958896,-0.86939216,9.800421,-0.9963281999999999
88548958816049,-0.8813671999999999,9.671089,-1.0154883
88548978673072,-1.0609937,9.606423,-0.87418216
88548998530224,-1.0705738,9.625584,-0.88376224
88549018387377,-1.0274634,9.604028999999999,-1.0035132
88549038251836,-1.0202783000000002,9.6758795,-1.0418334999999999
88549058109116,-0.98914313,9.77168,-0.92926764
88549077966397,-0.90771246,9.7812605,-1.0083033000000001
88549097823676,-0.9412427,9.72857,-1.0346485
88549117690519,-1.0298585,9.666299,-0.9867481
88549137547928,-1.0681788,9.632769,-0.94603276
88549157405463,-1.0490186000000001,9.599238,-1.0154883
88549177262999,-1.0226734,9.5561285,-1.0370435
88549197120408,-0.9867481,9.764495,-1.0106983
88549216972519,-0.8310718,9.766891000000001,-1.0346485
88549236829926,-0.8262818000000001,9.759705,-1.0609937
88549256687335,-0.94603276,9.666299,-1.0609937
88549276544614,-1.0298585,9.513017999999999,-1.0011181999999998
88549296402022,-1.0490186000000001,9.580078,-0.97956306
88549316259431,-1.0298585,9.630374,-1.0538087
88549336107220,-1.0035132,9.759705,-1.0873389
88549355964373,-0.98914313,9.798025,-1.0202783000000002
88549375821526,-0.8981324,9.699829,-1.094524
88549395678807,-0.9867481,9.625584,-1.0657837
88549415531242,-1.0705738,9.623189,-1.0825489
88549435388267,-1.1472143999999997,9.558523,-0.91010743
88549455245292,-1.0322535,9.6758795,-1.0418334999999999
88549475102317,-0.9532178,9.627979,-1.1256591999999999
88549494959342,-0.9699829,9.7740755,-1.1041040000000002
88549514816367,-0.87897223,9.376502,-1.0538087
88549534688708,-1.0274634,9.362132,-1.1256591999999999
88549554545989,-1.1496094,10.013577,-1.0130934
88549574403270,-0.9699829,10.061478,-0.91729254
88549594260551,-0.977168,9.769285,-1.2310401000000002
88549614117832,-1.1448194,9.77168,-1.1328443000000001
88549633983395,-0.92208254,9.783655,-1.0346485
88549653840932,-1.0226734,9.594449000000001,-1.0083033000000001
88549673698469,-1.1999048,9.402847,-1.1735597
88549693556006,-1.2022998,9.503438000000001,-0.9580079
88549713419583,-0.9651929,9.642349000000001,-0.98195803
88549733277248,-0.91250247,9.635164,-1.1615845
88549753134913,-0.96758795,9.77647,-1.1064991000000002
88549772992578,-0.9053174,9.733359,-1.1328443000000001
88549792850243,-0.99393314,9.678274,-1.1160791
88549812707757,-1.0609937,9.560919,-1.0849438999999999
88549832549618,-1.094524,9.7142,-1.0298585
88549852407027,-1.0370435,9.7621,-1.0106983
88549872264306,-0.9915381,9.604028999999999,-1.0705738
88549892121714,-0.9532178,9.632769,-1.1136841999999998
88549911979123,-0.90771246,9.625584,-1.0490186000000001
88549931842769,-0.9580079,9.616004,-1.0083033000000001
88549951700305,-1.0538087,9.683064,-0.97956306
88549971557842,-1.0083033000000001,9.604028999999999,-1.0514137
88549991415377,-1.0059083,9.687855,-1.0298585
88550011280552,-0.94603276,9.663903999999999,-1.1136841999999998
88550031138345,-1.0083033000000001,9.7621,-1.0322535
88550050996008,-0.98435307,9.80521,-0.96758795
88550070853800,-0.974773,9.596844,-0.97956306
88550090711465,-1.0298585,9.441168,-1.0585986
88550110569256,-1.0681788,9.520203,-1.0657837
88550130423312,-1.0250684,9.666299,-0.96040285
88550150280977,-0.98195803,9.800421,-0.9508228000000001
88550170138640,-0.9508228000000001,9.80521,-0.98435307
88550189996305,-0.93405765,9.81958,-1.1064991000000002
88550209853970,-0.98914313,9.678274,-1.0035132
88550229718267,-1.0538087,9.522598,-1.0657837
88550249576056,-1.1855347,9.599238,-0.87418216
88550269433721,-1.0609937,9.695039999999999,-0.83586186
88550289291512,-1.0609937,9.733359,-0.9053174
88550309145640,-0.9196875,9.843531,-0.96040285
88550329003433,-0.83586186,9.759705,-1.0106983
88550348861096,-0.89573735,9.642349000000001,-1.0442286
88550368718760,-1.0538087,9.604028999999999,-0.9508228000000001
88550388576425,-1.094524,9.81958,-0.8909473
88550408434216,-1.0226734,9.704619000000001,-0.91729254
88550428294714,-1.0059083,9.599238,-1.0777588
88550448152507,-1.0202783000000002,9.575289,-1.0154883
88550468010170,-0.8933423,9.620794,-1.0418334999999999
88550487867962,-0.95561284,9.7621,-0.9651929
88550507725627,-1.0562036,9.77168,-0.9580079
88550527574865,-1.0298585,9.685459,-0.9364527
88550547432401,-1.0106983,9.663903999999999,-1.0442286
88550567289938,-0.9508228000000001,9.6615095,-1.0083033000000001
88550587147473,-0.95561284,9.613608000000001,-0.95561284
88550607005009,-1.0250684,9.611214,-0.90052736
88550626862546,-0.96758795,9.604028999999999,-0.92926764
88550646715485,-0.9532178,9.68067,-0.96758795
88550666573021,-0.91729254,9.726174,-1.0083033000000001
88550686430430,-0.92208254,9.740545,-1.0202783000000002
88550706287965,-0.98914313,9.80521,-0.9364527
88550726153872,-0.97956306,9.7142,-0.91250247
88550746011665,-0.9915381,9.659114,-0.9196875
88550765869328,-0.974773,9.544153,-1.0154883
88550785727120,-1.0083033000000001,9.469908,-0.96040285
88550805584785,-0.97956306,9.625584,-0.9580079
88550825435221,-0.9580079,9.721385,-0.98914313
88550845292757,-0.99393314,9.8866415,-0.97237796
88550865150422,-0.9196875,9.855506,-0.92208254
88550885007957,-0.8885523000000001,9.64714,-0.9627979
88550904865493,-0.91010743,9.505833,-1.0130934
88550924723030,-0.99393314,9.508227999999999,-0.9915381
88550944575202,-1.0442286,9.651928999999999,-0.88376224
88550964432610,-0.9388476999999998,9.795630000000001,-0.9029224
88550984290019,-0.8909473,9.855506,-0.9867481
88551004147298,-0.855022,9.817185,-1.0130934
88551024007615,-0.8813671999999999,9.635164,-0.9484278
88551043864896,-0.8669971,9.515413,-0.974773
88551063722303,-0.9388476999999998,9.551338000000001,-0.86939216
88551083579583,-0.86220706,9.616004,-0.97956306
88551103436864,-1.0418334999999999,9.829161000000001,-0.9867481
88551123294271,-0.94603276,9.829161000000001,-0.9580079
88551143159518,-0.8382569,9.70941,-0.9412427
88551163017055,-0.8167017,9.484278,-1.0346485
88551182874590,-0.8598120000000001,9.520203,-1.0849438999999999
88551202732254,-0.8646021,9.64714,-0.93405765
88551222589791,-0.9268726,9.75731,-0.9388476999999998
88551242448448,-0.9699829,9.869876,-0.9508228000000001
88551262306112,-0.852627,9.814791,-1.0154883
88551282163777,-0.79993653,9.704619000000001,-1.1112891000000003
88551302021440,-0.88376224,9.632769,-1.0250684
88551321877891,-0.90052736,9.637559,-0.9268726
88551341735556,-0.84544194,9.611214,-0.977168
88551361593219,-0.91250247,9.592053,-1.094524
88551381450883,-0.9316626,9.644744000000001,-1.0514137
88551401308548,-0.8669971,9.72857,-0.98195803
88551421166211,-0.8143066999999999,9.726174,-0.97237796
88551441014299,-0.8861573,9.644744000000001,-1.0490186000000001
88551460871580,-0.9388476999999998,9.72378,-0.9987232
88551480728987,-0.82388675,9.627979,-0.9987232
88551500586267,-0.8981324,9.695039999999999,-0.9580079
88551520443676,-0.9029224,9.666299,-0.97956306
88551540301644,-0.8214916999999999,9.704619000000001,-1.0322535
88551560159052,-0.8598120000000001,9.656719,-1.0801538
88551580016333,-0.9148975,9.630374,-1.0442286
88551599873740,-0.91729254,9.671089,-0.9484278
88551619732184,-0.86220706,9.651928999999999,-0.9867481
88551639589593,-0.9053174,9.783655,-1.0609937
88551659447000,-0.9196875,9.867481,-0.9963281999999999
88551679304408,-0.852627,9.812395,-0.9651929
88551699161817,-0.90052736,9.582474000000001,-0.94603276
88551719019224,-0.93405765,9.498648,-0.9987232
88551738879889,-0.9268726,9.513017999999999,-0.977168
88551758737298,-0.91250247,9.654325,-0.96758795
88551778594705,-0.94603276,9.733359,-1.0035132
88551798452241,-0.89573735,9.929751,-1.0083033000000001
88551818309650,-0.8143066999999999,9.759705,-1.0418334999999999
88551838172616,-0.9196875,9.673484,-1.0370435
88551858030280,-0.98195803,9.649534,-1.0394385
88551877887945,-0.96758795,9.606423,-0.8909473
88551897745480,-0.91010743,9.644744000000001,-1.0202783000000002
88551917603144,-0.9915381,9.651928999999999,-0.96040285
88551937460809,-0.87178713,9.742939999999999,-1.0442286
88551957320526,-0.87897223,9.673484,-0.93405765
88551977178190,-0.8933423,9.589659,-1.099314
88551997035855,-1.0178833,9.711803999999999,-0.97956306
88552016893518,-0.9029224,9.733359,-1.0154883
88552036758464,-0.9484278,9.742939999999999,-1.0130934
88552056616385,-1.0298585,9.793235000000001,-1.0202783000000002
88552076474176,-0.9268726,9.695039999999999,-0.9436377
88552096332096,-0.91250247,9.560919,-1.0130934
88552116189889,-1.0442286,9.596844,-1.0394385
88552136047430,-1.0370435,9.592053,-0.8981324
88552155905222,-0.9244776,9.699829,-0.9436377
88552175763015,-0.9412427,9.79084,-1.0825489
88552195620934,-0.9987232,9.884246000000001,-0.97237796
88552215478726,-0.93405765,9.836346,-0.87418216
88552235336519,-0.8478370000000001,9.644744000000001,-0.9651929
88552255199973,-0.9244776,9.551338000000001,-0.97956306
88552275057765,-0.977168,9.553733,-0.9412427
88552294915686,-0.9987232,9.534574000000001,-0.90052736
88552314773605,-0.8981324,9.637559,-0.9196875
88552334631744,-0.8885523000000001,9.750125,-0.96040285
88552354489665,-0.85023195,9.857901,-0.97237796
88552374347584,-0.8813671999999999,9.68067,-0.92208254
88552394205632,-0.9484278,9.587264,-0.9699829
88552414063553,-0.96758795,9.632769,-0.9364527
88552433913219,-0.9268726,9.558523,-0.85023195
88552453771011,-0.9148975,9.611214,-0.9963281999999999
88552473628804,-0.9651929,9.733359,-0.9268726
88552493486595,-0.91010743,9.877061,-0.852627
88552513344387,-0.87897223,9.764495,-0.82388675
88552533202180,-0.9915381,9.601633999999999,-0.9196875
88552553056673,-1.0202783000000002,9.699829,-0.8382569
88552572914465,-0.9029224,9.769285,-0.7807764
88552592772130,-0.8646021,9.704619000000001,-0.8478370000000001
88552612629793,-0.8981324,9.826766000000001,-0.9412427
88552632478845,-0.8286768,9.711803999999999,-0.8765772
88552652336382,-0.87178713,9.589659,-0.87418216
88552672194045,-0.9699829,9.568104,-0.89573735
88552692051581,-1.0106983,9.568104,-0.78556645
88552711909246,-0.91729254,9.72378,-0.8334668
88552731768461,-0.9148975,9.769285,-0.8095166
88552751626125,-0.8909473,9.867481,-0.9436377
88552771483790,-0.8933423,9.754914999999999,-0.79035646
88552791341453,-0.92208254,9.654325,-0.85023195
88552811198989,-0.96758795,9.651928999999999,-0.7592211999999999
88552831056654,-0.93405765,9.560919,-0.79993653
88552850905645,-0.9963281999999999,9.541758999999999,-0.82388675
88552870763181,-0.96040285,9.74773,-0.79993653
88552890620718,-0.85741705,9.699829,-0.8430469
88552910478125,-0.9244776,9.678274,-0.9029224
88552930330376,-1.0083033000000001,9.740545,-0.90052736
88552950187785,-1.0585986,9.836346,-0.79993653
88552970045064,-0.977168,9.685459,-0.7951465
88552989902472,-1.0202783000000002,9.536968,-0.974773
88553009759753,-1.0801538,9.75252,-0.8262818000000001
88553029617160,-0.974773,9.7740755,-0.6825806
88553049470929,-0.94603276,9.632769,-0.8909473
88553069328210,-1.0202783000000002,9.651928999999999,-0.9963281999999999
88553089185489,-0.92926764,9.649534,-0.91250247
88553109042641,-0.9268726,9.6758795,-0.84544194
88553128899922,-1.0035132,9.697434,-0.9627979
88553148752294,-1.0753639,9.778865,-0.9651929
88553168609446,-0.98914313,9.800421,-0.9484278
88553188466471,-1.0322535,9.64714,-1.0059083
88553208323622,-1.1280543,9.639954,-0.98435307
88553228182072,-1.1088941,9.558523,-0.8765772
88553248039097,-1.0657837,9.594449000000001,-0.92926764
88553267896120,-1.0777588,9.726174,-1.0418334999999999
88553287753272,-1.1184741000000002,9.697434,-0.93405765
88553307610297,-1.0633887,9.764495,-0.87897223
88553327467320,-0.9963281999999999,9.704619000000001,-0.9244776
88553347327177,-0.98195803,9.580078,-1.0202783000000002
88553367184202,-1.0418334999999999,9.601633999999999,-0.94603276
88553387041353,-1.1088941,9.611214,-0.9316626
88553406898505,-1.1208692,9.704619000000001,-0.89573735
88553426755530,-1.0370435,9.73815,-0.9244776
88553446617425,-1.0083033000000001,9.608819,-1.0059083
88553466474577,-1.0514137,9.637559,-0.98435307
88553486331730,-1.0274634,9.685459,-0.9963281999999999
88553506188881,-1.0035132,9.601633999999999,-0.97237796
88553526052030,-1.0226734,9.707015,-0.87178713
88553545909183,-0.98914313,9.616004,-0.86939216
88553565766462,-0.9627979,9.577683,-0.91010743
88553585623742,-0.977168,9.592053,-1.0154883
88553605481023,-0.98435307,9.539363,-0.91729254
88553625338174,-0.9651929,9.524992999999998,-0.8669971
88553645201604,-0.9532178,9.558523,-0.8382569
88553665059013,-0.8813671999999999,9.68067,-0.79993653
88553684916420,-0.7376661,9.580078,-0.84065187
88553704773828,-0.6777906,9.436378,-0.9029224
88553724631237,-0.68976563,9.362132,-0.9580079
88553744492185,-0.7711963000000001,9.266331,-0.9627979
88553764349721,-0.7783814,9.429193,-0.9867481
88553784207258,-0.85741705,9.510622999999999,-1.0609937
88553804064665,-1.0729688,9.651928999999999,-1.0729688
88553823922018,-1.1520045,9.692644,-1.1064991000000002
88553843779683,-1.1639795,9.745335,-1.0322535
88553863637346,-1.2070899,9.687855,-1.1136841999999998
88553883494882,-1.3723463,9.400452,-1.1735597
88553903352547,-1.5040723,9.319021000000001,-1.1759547
88553923210082,-1.465752,9.414823,-1.223855
88553943077157,-1.4058765,9.414823,-1.22146
88553962934950,-1.3747413,9.405242,-1.1663746000000002
88553982792741,-1.1520045,9.503438000000001,-1.2669654
88554002650661,-0.9484278,9.558523,-1.3004956
88554022508454,-0.91729254,9.599238,-1.1903248
88554042366641,-0.9532178,9.508227999999999,-1.0346485
88554062224561,-0.9699829,9.493857,-0.9915381
88554082082482,-0.9364527,9.465117,-1.0657837
88554101940273,-0.96758795,9.491463000000001,-0.9867481
88554121797704,-0.974773,9.536968,-0.92208254
88554141655625,-0.94603276,9.414823,-0.98195803
88554161513544,-0.977168,9.433982,-1.096919
88554181371464,-0.9963281999999999,9.486672,-1.0753639
88554201229385,-0.977168,9.527389,-1.0130934
88554221087176,-0.96040285,9.572892999999999,-1.1184741000000002
88554240942597,-1.0178833,9.496253,-1.1496094
88554260800390,-1.0418334999999999,9.501043,-1.1711646
88554280658181,-1.0226734,9.484278,-1.096919
88554300515973,-0.9029224,9.486672,-1.1999048
88554320373766,-0.98195803,9.539363,-1.2525953
88554340227820,-1.0777588,9.505833,-1.214275
88554360085612,-1.0681788,9.606423,-1.214275
88554379943405,-0.90052736,9.551338000000001,-1.1687696
88554399801196,-0.7783814,9.429193,-1.223855
88554419658988,-0.7711963000000001,9.400452,-1.3100758
88554439516781,-0.86220706,9.457932000000001,-1.2502003000000002
88554459365831,-0.8933423,9.481883,-1.1903248
88554479223495,-0.7927515,9.505833,-1.2525953
88554499081032,-0.7711963000000001,9.441168,-1.3172607
88554518938567,-0.7831714,9.457932000000001,-1.331631
88554538795630,-0.7376661,9.474698,-1.3052857
88554558653167,-0.77359134,9.501043,-1.2765454
88554578510702,-0.8669971,9.467513,-1.2885206
88554598368366,-0.91010743,9.4435625,-1.2861254999999998
88554618225903,-0.9244776,9.503438000000001,-1.3004956
88554638073896,-0.9148975,9.486672,-1.2789403999999998
88554657931304,-0.87897223,9.441168,-1.2430152
88554677788585,-0.8310718,9.472302,-1.2765454
88554697645992,-0.8669971,9.513017999999999,-1.2861254999999998
88554717503272,-0.8813671999999999,9.503438000000001,-1.2118799999999998
88554737360681,-0.85023195,9.508227999999999,-1.1855347
88554757215674,-0.7664063,9.5561285,-1.2957056999999998
88554777072954,-0.7209009,9.582474000000001,-1.3436059999999999
88554796930107,-0.7807764,9.455538,-1.22625
88554816787386,-0.74006104,9.438772,-1.2430152
88554836641088,-0.74724615,9.422008,-1.3148658000000002
88554856498113,-0.7879615,9.426797,-1.2813355
88554876354473,-0.732876,9.417216999999999,-1.2669654
88554896211625,-0.7232959,9.405242,-1.3004956
88554916068778,-0.74006104,9.508227999999999,-1.2621753
88554935924728,-0.71371585,9.551338000000001,-1.2717555
88554955781752,-0.6514453,9.417216999999999,-1.3220508
88554975638905,-0.5676197,9.479486999999999,-1.4873072
88554995495928,-0.62031007,9.347761,-1.4010864
88555015353080,-0.64186525,9.390872,-1.2885206
88555035210105,-0.6610254,9.424402,-1.2382251
88555055078720,-0.7209009,9.431587,-1.1879296999999998
88555074936000,-0.6562354,9.390872,-1.2406201000000001
88555094793281,-0.57959473,9.378897,-1.2837305
88555114650560,-0.37362307,9.491463000000001,-1.4897022
88555134502459,-0.22513184,9.695039999999999,-1.5256275
88555154359612,-0.07903565,9.795630000000001,-1.4250367
88555174216763,-0.06945557,9.891430999999999,-1.2070899
88555194074043,-0.06945557,9.905801,-1.2358301999999999
88555213931196,-0.26345217,9.814791,-1.0729688
88555233787238,-0.4382886,9.742939999999999,-1.0346485
88555253644390,-0.6777906,9.912986,-0.88376224
88555273501671,-0.7209009,10.116563000000001,-0.5748047
88555293358822,-0.4263135,10.181229,-1.1184741000000002
88555313215974,-0.06466553,9.64714,-1.8417700000000001
88555333073255,0.06227051,9.606423,-1.7387843
88555352931491,0.081430666,9.718989,-1.2621753
88555372788643,-0.038320314,9.745335,-1.1567944
88555392645924,-0.24908204,10.049502,-1.1328443000000001
88555412503075,-0.36164796,10.157278,-1.1735597
88555432356032,-0.28979737,9.874666,-1.1208692
88555452213057,-0.2083667,9.80521,-0.42870852
88555472070080,-0.5029541000000001,10.233919,-0.014370117
88555491927233,-0.92208254,10.710527,-0.30895755
88555511784258,-0.71371585,12.20502,1.4585668999999999
88555531651904,0.098195806,12.624148,1.7076490000000002
88555551509313,0.9867481,11.838582,2.1555176
88555571366592,1.2741505,11.522439,3.4631983999999996
88555591223872,1.8321900000000002,11.340418,3.8511915
88555611081152,2.555486,10.574012,3.3218922999999996
88555630938560,2.0836669999999997,9.82437,1.7028589
88555650795797,1.1639795,11.285333,-1.465752
88555670653077,1.3627661,13.016932,-4.5792775
88555690510485,3.5566041,10.047108,-5.762417299999999
88555710367765,3.8080812000000006,9.395662,-3.671565
88555730225173,0.91250247,11.359577999999999,-0.2921924
88555750085488,-2.555486,14.920972,-0.7424561
88555769942896,-3.2692018,15.26825,2.3662794
88555789800304,-0.74006104,13.673167000000001,4.893025
88555809657712,-0.33530274,13.081597,3.1278956
88555829515120,0.39757326,12.147539,-1.2981006000000002
88555849372875,3.0153298,8.914263,-8.01613
88555869230411,2.090852,5.367239,-3.6116896
88555889087820,0.57959473,3.9398074,-2.7542725
88555908945229,-0.2778223,3.515889,-2.193838
88555928802763,-1.2933106,4.622388,0.6346801999999999
88555948664822,-1.5495777,4.9720607,2.6441016
88555968522486,-0.6825806,4.394861,1.4322218
88555988380022,-1.2454101999999998,3.5853443,0.033530276
88556008237558,-2.929109,3.4799635,0.7376661
88556028095094,-3.4392480000000005,4.011657700000001,3.187771
88556047952241,-2.4740553,6.0617947999999995,5.391189
88556067809777,-1.0466236,10.748847999999999,6.8808913
88556087667313,-1.453777,15.787970000000001,4.490661599999999
88556107524849,-1.101709,19.802023000000002,5.362449
88556127382385,3.8727467000000004,12.296031,10.554852
88556147243962,5.4223247,4.140989,4.047583
88556167101626,1.7747096000000002,10.341695,2.0669020000000002
88556186959290,1.096919,17.799785999999997,-5.3025737
88556206816954,-1.6932789000000001,16.681313,-5.242698000000001
88556226674618,-1.9016455,10.703342,5.635481400000001
88556246528959,-0.19399660000000002,4.430786,-0.47900394
88556266386495,0.040715333,6.334827,-5.4414845000000005
88556286244031,-0.50534916,11.393108,-5.757626999999999
88556306101567,-1.3388159,15.912510999999999,-6.7300053
88556325959103,-0.36164796,15.464642000000001,4.387676
88556345820558,2.318379,9.730965,1.829795
88556365678223,0.2778223,6.718030000000001,0.23231691
88556385535888,-1.2549903,7.2593045,1.7196240000000003
88556405393550,-1.453777,6.7826960000000005,-0.7209009
88556425251214,-2.0285816000000003,7.556286999999999,-1.0418334999999999
88556445103849,-3.1829810000000003,8.619676,-0.244292
88556464961385,-3.887117,8.490345,0.977168
88556484818921,-1.5280225,8.440049,1.7651293999999997
88556504676457,2.5962012000000003,9.568104,1.8561403000000003
88556524533994,3.5685792000000003,9.958491,0.3281177
88556544386257,2.8668384999999996,10.851834,-0.79993653
88556564243666,2.2704787,12.087664,0.8813671999999999
88556584101075,-0.13651612,11.716436,1.4729371
88556603958484,0.7783814,10.703342,0.76880133
88556623816021,1.0681788,10.712923,0.32332766
88556643672290,-1.3531861,13.974939000000001,-2.7542725
88556663529827,-2.1842580000000003,15.349681,-2.668052
88556683387236,0.08622070400000001,14.54256,-0.08622070400000001
88556703244773,2.2537133999999996,14.698235500000001,-2.3255641
88556723102310,2.4572902,14.889837,-2.5818312000000003
88556742959335,2.579436,15.593973000000002,0.5029541000000001
88556762816744,3.1159205,15.768809,3.3650026
88556782674153,3.1853762000000003,13.304333999999999,1.9806811999999998
88556802531676,3.8583767,12.358300999999999,-4.984036
88556822389084,4.2128396,9.956097,-7.3958205999999995
88556842239847,2.2225783,7.082072999999999,-8.823253
88556862097127,-2.2345533,4.734954,-7.082072999999999
88556881953944,-3.9829175,3.4009278,-1.4992822000000001
88556901811224,-5.671406299999999,4.9624805,2.6488917
88556921668504,-5.757626999999999,6.5072684,0.10777588
88556941525790,-5.029541,6.164780599999999,-0.36164796
88556961383070,-4.634363,6.09772,1.8441651000000001
88556981240350,-3.3745828,6.4833183,2.6656568
88557001097630,-1.1304493,7.7598634,2.3064039000000003
88557020954782,-0.9508228000000001,9.812395,3.417693
88557040817019,-0.977168,11.287727,4.4667115
88557060674299,1.2837305,15.924485,11.623031
88557080531579,7.486831,11.819422,9.477093
88557100388859,10.384805,5.518125,-3.9709425000000005
88557120246267,8.765772,8.059241,-6.212681
88557140101936,3.5877394999999996,13.929434,-8.756192
88557159959216,-3.05844,17.351917,-0.9987232
88557179816624,-11.215877,11.510465,15.045513
88557199673904,-2.8596535,4.018843,-3.5039135999999997
88557219531184,-0.60354495,6.67013,-8.672366
88557239392816,-2.1411476,12.549903,-8.789722
88557259250224,-2.6584717999999996,16.681313,-4.608018
88557279107632,-0.53169435,14.789247,4.536167
88557298964912,2.2465284,9.362132,0.91729254
88557318822320,-0.76161623,7.4652762,-0.62031007
88557338679453,-2.454895,8.396939,2.1052222
88557358536733,-2.8883936,8.988508,1.2358301999999999
88557378394142,-3.0296998,8.875943,-0.37362307
88557398251551,-3.2620167999999996,7.7550735,-1.0322535
88557418108832,-2.6009912,8.349038,1.1999048
88557437966241,-0.88376224,8.933423,0.05508545
88557457819560,1.1256591999999999,8.899892999999999,-3.056045
88557477676841,1.3723463,9.817185,-1.4801221000000002
88557497534122,0.119750984,11.053016,1.8537452
88557517391395,0.3161426,11.129655999999999,1.5471827
88557537248675,0.8981324,10.8925495,-0.15088624
88557557107038,1.8561403000000003,10.904525,-0.76880133
88557576964318,1.5352076000000001,11.02188,-0.5340894
88557596821598,0.22992188,12.276871,-0.28979737
88557616679006,-0.11496094,13.833632999999999,-1.6381934999999999
88557636536286,0.37601808,13.773757999999999,-3.295547
88557656397509,0.50534916,11.112891000000001,-3.9829175
88557676254917,-1.2166698999999999,10.483001,-4.718189
88557696112325,-2.4740553,12.672049000000001,-3.6691701
88557715969605,-2.078877,12.868441,-2.7255323
88557735827013,-2.6177563999999998,12.4541025,-0.9268726
88557755686516,-2.8141482000000004,11.675721000000001,0.63707525
88557775543924,-3.1039455,11.084151,-0.6993457
88557795401332,-3.3769777000000003,10.559642,-0.85023195
88557815258868,-1.3939015,9.307046000000001,0.9316626
88557835116276,-1.7914747,7.9538603000000005,1.22146
88557854967924,-2.4501052000000003,7.383845299999999,-0.34727785
88557874825332,-1.3843212999999999,6.5384035,-2.9913795
88557894682612,-1.1903248,6.2989016,-1.5256275
88557914540020,-0.7568262,5.240303,1.2430152
88557934397300,-0.98914313,4.8259644999999995,2.059717
88557954259531,-0.05508545,5.3408937000000005,-0.39278322
88557974117068,-0.37122804,6.952742,-1.8417700000000001
88557993974605,-1.1735597,6.8952613,0.42152345
88558013832014,-1.6022681,6.08814,1.7699194999999999
88558033689547,-1.6669337,7.2545147,4.119434
88558053550082,-1.2837305,8.737032000000001,9.692644
88558073407618,-0.7951465,9.05557,10.485396000000001
88558093265154,-0.61073,9.618399,5.0343313
88558113122690,-0.42391850000000003,10.075847999999999,-1.1807446000000001
88558132980226,0.8095166,9.479486999999999,-2.9051588
88558152842041,2.3662794,11.093731,3.0943654
88558172699577,5.877378,15.510147,4.967271
88558192557241,5.49178,16.561562,-3.5374440000000003
88558212414905,0.009580079,13.694722,-9.307046000000001
88558232272441,-6.5767240000000005,13.754598000000001,-4.5313773
88558252130739,-10.001602,11.963123,-0.8885523000000001
88558271988275,-4.8834453,5.961204,3.3051271
88558291845939,-4.7948294,5.688172,2.668052
88558311703475,-1.6884888,9.323812,-5.496569999999999
88558331561139,2.311194,11.409874,-7.134763700000001
88558351416387,0.71371585,12.106824000000001,-3.7074904
88558371273923,1.5519726999999999,11.064991000000001,1.954336
88558391131459,1.4202466,9.462723,3.7003052000000003
88558410989123,-0.8167017,8.586145,1.6310083999999998
88558430846659,-1.8944606,9.881851,0.9508228000000001
88558450694498,-1.7292042,10.241104,-0.7209009
88558470551907,-0.047900394000000006,9.860296,-2.6345215
88558490409185,-0.29698244,10.708133,-1.2813355
88558510266593,-0.8262818000000001,10.732083,0.25147706
88558530124001,-1.0298585,10.403965,0.6586304000000001
88558549982450,-1.1328443000000001,10.011182000000002,0.9915381
88558569839858,-1.2621753,9.759705,0.42391850000000003
88558589697138,-1.1472143999999997,10.104588,0.40715334
88558609554546,-1.1160791,10.576406500000001,0.5604346
88558629411954,-1.0035132,10.593172000000001,0.41194338
88558649265942,-1.5543678,10.130933,-0.17962648
88558669123222,-1.0538087,9.826766000000001,-1.0562036
88558688980630,-0.17962648,10.336905,-1.5519726999999999
88558708838038,0.21315674,10.765614,-0.9508228000000001
88558728695318,0.366438,10.166859,-0.80233157
88558748555017,-0.7113208000000001,9.716595,-0.90771246
88558768412297,-1.8465601000000003,8.998089,-1.5950831
88558788269705,-1.7962648,8.495134,-1.8681153000000001
88558808126985,-1.3220508,9.24717,-0.96758795
88558827984393,-1.1543995,9.941727,-0.57719976
88558847844018,-1.2286451,10.071057000000001,-1.3747413
88558867701426,-1.4106666,9.936936,-2.0237916
88558887556552,-1.2358301999999999,10.236314,-1.5567628
88558907413960,-0.82388675,10.576406500000001,-0.7879615
88558927271368,-0.7448511,10.171648,-0.53169435
88558947128059,-0.9699829,9.695039999999999,-0.44547364
88558966985468,-0.8478370000000001,9.441168,-0.7783814
88558986842875,-0.6346801999999999,9.5633135,-0.9532178
88559006700283,-0.488584,10.061478,-1.0250684
88559026557691,-0.57959473,10.174044,-1.2118799999999998
88559046422735,-0.9364527,9.869876,-0.977168
88559066280271,-1.2166698999999999,9.644744000000001,-1.099314
88559086137807,-1.5016773,9.601633999999999,-1.6573536
88559105995343,-1.6501685000000001,9.699829,-1.1280543
88559125852879,-1.6477735,9.692644,-1.2693603999999998
88559145707892,-1.7675245,9.541758999999999,-1.2454101999999998
88559165565428,-1.4585668999999999,9.532178,-1.3675561999999999
88559185422964,-1.1472143999999997,9.831555,-1.8776953999999997
88559205280372,-1.0585986,9.960887,-1.3388159
88559225137908,-0.8885523000000001,9.77168,-1.0202783000000002
88559244999716,-0.93405765,9.551338000000001,-1.3100758
88559264857252,-0.99393314,9.644744000000001,-1.3603711
88559284714916,-1.0609937,9.905801,-1.4465919
88559304572452,-1.2478052,10.030342,-1.1424243
88559324430116,-1.4154567,10.123747999999999,-0.74006104
88559344277977,-1.3268408999999999,10.176438000000001,-0.8334668
88559364135385,-1.0753639,10.075847999999999,-1.1783496
88559383992793,-0.8334668,10.030342,-1.1448194
88559403850329,-0.94603276,9.8938265,-0.974773
88559423707737,-1.1927198,9.663903999999999,-0.7831714
88559443564206,-1.214275,9.544153,-0.74724615
88559463421486,-1.1208692,9.524992999999998,-1.0346485
88559483278766,-1.1783496,9.565708,-1.1160791
88559503136174,-1.2070899,9.565708,-1.0226734
88559522993454,-1.2430152,9.730965,-0.9244776
88559542855275,-1.1711646,9.764495,-0.8981324
88559562712683,-1.1567944,9.769285,-0.92926764
88559582570091,-1.2022998,9.798025,-0.855022
88559602427499,-1.099314,9.726174,-0.7161109
88559622284907,-1.0322535,9.601633999999999,-0.7544312
88559642142996,-1.0705738,9.529783,-0.7783814
88559662000404,-1.0729688,9.524992999999998,-0.75203615
88559681857940,-1.0777588,9.630374,-0.7831714
88559701715348,-0.977168,9.845925,-0.7185059
88559721572756,-0.79754156,9.853110000000001,-0.8981324
88559741433705,-0.85023195,9.678274,-0.9316626
88559761291241,-0.90052736,9.582474000000001,-0.7759864000000001
88559781148905,-0.977168,9.433982,-0.8047266
88559801006441,-1.0753639,9.666299,-0.71371585
88559820863977,-1.0681788,9.83874,-0.8262818000000001
88559840718111,-0.9364527,9.735755000000001,-0.855022
88559860575775,-0.9580079,9.625584,-0.9244776
88559880433311,-1.0178833,9.77647,-0.8981324
88559900290847,-0.9268726,9.6615095,-0.8478370000000001
88559920148383,-1.0154883,9.649534,-0.7783814
88559940006712,-1.0585986,9.565708,-0.84544194
88559959864376,-0.9963281999999999,9.635164,-0.80233157
88559979721912,-0.8861573,9.726174,-0.8143066999999999
88559999579448,-0.8813671999999999,9.692644,-0.85023195
88560019436984,-0.8981324,9.687855,-0.8382569
88560039291710,-0.9196875,9.754914999999999,-0.8765772
88560059149118,-0.9148975,9.783655,-0.77359134
88560079006654,-1.0250684,9.8938265,-0.72569096
88560098864062,-1.0106983,9.673484,-0.732876
88560118721470,-1.0226734,9.572892999999999,-0.7711963000000001
88560138576293,-1.0394385,9.704619000000001,-0.7568262
88560158433701,-1.0178833,9.754914999999999,-0.8047266
88560178291109,-1.0633887,9.654325,-0.74724615
88560198148517,-1.0657837,9.604028999999999,-0.7783814
88560218005925,-1.0777588,9.733359,-0.79035646
88560237857724,-1.0777588,9.718989,-0.82388675
88560257715004,-1.0729688,9.742939999999999,-0.7448511
88560277572156,-1.0250684,9.718989,-0.76161623
88560297429436,-0.9867481,9.644744000000001,-0.80712163
88560317286716,-1.0083033000000001,9.64714,-0.6849755999999999
88560337143868,-0.98914313,9.620794,-0.7592211999999999
88560357001690,-0.9915381,9.570497999999999,-0.7448511
88560376858970,-1.0849438999999999,9.77168,-0.73527104
88560396716250,-0.9963281999999999,9.80521,-0.68976563
88560416573530,-0.9508228000000001,9.79084,-0.74006104
88560436430810,-0.9316626,9.685459,-0.7711963000000001
88560456284067,-0.9029224,9.671089,-0.78556645
88560476141219,-0.9364527,9.649534,-0.7232959
88560495998371,-0.98195803,9.702225,-0.6777906
88560515855523,-0.9915381,9.798025,-0.68976563
88560535712675,-0.9532178,9.848321,-0.77359134
88560555573356,-0.8885523000000001,9.656719,-0.78556645
88560575430508,-0.9244776,9.83874,-0.8334668
88560595287660,-0.9436377,9.788445,-0.75203615
88560615144812,-0.97956306,9.77647,-0.6322852
88560635002092,-0.87897223,9.879456,-0.8095166
88560654852520,-0.8167017,9.75252,-1.0202783000000002
88560674709672,-0.92926764,9.627979,-0.90052736
88560694566824,-0.99393314,9.618399,-0.8310718
88560714423848,-0.9580079,9.580078,-0.81191164
88560734281000,-0.9148975,9.64714,-0.9963281999999999
88560754123206,-0.92926764,9.690249,-1.0681788
88560773980102,-0.9699829,9.690249,-1.0035132
88560793836870,-0.9915381,9.639954,-1.0035132
88560813693638,-0.974773,9.627979,-0.9987232
88560833550534,-0.9867481,9.627979,-1.0394385
88560853416578,-1.0154883,9.577683,-0.98435307
88560873273474,-1.096919,9.692644,-0.8981324
88560893130498,-0.99393314,9.750125,-0.84544194
88560912990258,-0.96758795,9.618399,-0.9651929
88560932847282,-0.9316626,9.582474000000001,-1.0250684
88560952698983,-0.9580079,9.6758795,-0.9196875
88560972555879,-0.89573735,9.733359,-0.79754156
88560992412647,-0.9029224,9.692644,-0.7927515
88561012269415,-0.97956306,9.699829,-0.7927515
88561032126183,-0.98435307,9.833950999999999,-0.87178713
88561051988174,-0.9364527,9.754914999999999,-0.8167017
88561071845070,-1.0059083,9.766891000000001,-0.77359134
88561091701966,-1.0370435,9.798025,-0.7376661
88561111558862,-0.96040285,9.613608000000001,-0.6682104999999999
88561131415630,-0.93405765,9.553733,-0.77359134
88561151236410,-1.0250684,9.572892999999999,-0.86939216
88561171092538,-1.1112891000000003,9.72378,-0.73527104
88561190948794,-1.0633887,9.7812605,-0.7089258
88561210805050,-1.0394385,9.707015,-0.80712163
88561230661306,-1.1041040000000002,9.721385,-0.80233157
88561250533665,-1.0538087,9.683064,-0.7544312
88561270390177,-0.977168,9.649534,-0.73527104
88561290246689,-0.91250247,9.575289,-0.728086
88561310103074,-1.0514137,9.807606,-0.7089258
88561329959587,-1.0538087,9.934542,-0.65384036
88561349822075,-0.93405765,9.721385,-0.64186525
88561369678715,-0.96758795,9.575289,-0.7161109
88561389535227,-0.9651929,9.5561285,-0.7831714
88561409391867,-0.9053174,9.616004,-0.76880133
88561429248507,-0.9580079,9.896221,-0.7041358
88561449112747,-0.90052736,9.80521,-0.67539555
88561468969388,-0.96758795,9.604028999999999,-0.76401126
88561488826029,-0.99393314,9.635164,-0.78556645
88561508682798,-0.91729254,9.80521,-0.7113208000000001
88561528539439,-0.8047266,9.68067,-0.6490503000000001
88561548413700,-0.7927515,9.498648,-0.60354495
88561568270725,-0.8598120000000001,9.565708,-0.6490503000000001
88561588127750,-0.8981324,9.702225,-0.7232959
88561607984775,-0.87178713,9.788445,-0.6706055000000001
88561627841800,-0.80712163,9.83874,-0.6394701999999999
88561647709557,-0.77359134,9.663903999999999,-0.6945557
88561667566838,-0.8334668,9.604028999999999,-0.7185059
88561687424119,-0.8861573,9.73815,-0.7232959
88561707281400,-0.8813671999999999,9.75731,-0.6658155
88561727138681,-0.9053174,9.81958,-0.66342044
88561747008658,-0.8861573,9.745335,-0.7424561
88561766866195,-0.9268726,9.692644,-0.7807764
88561786723732,-0.82388675,9.788445,-0.7232959
88561806581269,-0.732876,9.620794,-0.7568262
88561826438806,-0.76880133,9.620794,-0.80712163
88561846297123,-0.78556645,9.642349000000001,-0.88376224
88561866154787,-0.8334668,9.800421,-0.8598120000000001
88561886012451,-0.8478370000000001,9.79084,-0.7879615
88561905869987,-0.9029224,9.685459,-0.7759864000000001
88561925727651,-0.9388476999999998,9.687855,-0.87178713
88561945594127,-0.91010743,9.697434,-0.974773
88561965451919,-0.98195803,9.589659,-0.98435307
88561985309839,-1.0562036,9.596844,-0.974773
88562005167631,-1.089734,9.575289,-1.0202783000000002
88562025025423,-1.1088941,9.750125,-0.9580079
88562044889584,-1.0370435,9.795630000000001,-0.97237796
88562064747632,-1.0011181999999998,9.639954,-1.0178833
88562084605680,-1.0154883,9.630374,-1.0585986
88562104463728,-0.93405765,9.623189,-1.0202783000000002
88562124321776,-0.9029224,9.77647,-1.0035132
88562144186905,-0.8933423,9.821976,-0.9963281999999999
88562164045337,-0.90771246,9.6615095,-1.0154883
88562183903641,-0.9196875,9.620794,-1.0490186000000001
88562203761945,-0.9436377,9.546548,-1.1256591999999999
88562223620249,-0.98195803,9.623189,-1.0394385
88562243473433,-0.9915381,9.83874,-1.0083033000000001
88562263331610,-0.96758795,9.769285,-1.0394385
88562283189915,-0.9412427,9.6615095,-1.1328443000000001
88562303048089,-0.9484278,9.699829,-1.1831397
88562322906393,-1.0250684,9.72378,-1.1448194
88562342754402,-1.099314,9.649534,-1.0178833
88562362612322,-1.1184741000000002,9.606423,-1.0466236
88562382470370,-1.0825489,9.620794,-1.1208692
88562402328290,-1.0442286,9.6615095,-1.1184741000000002
88562422186339,-0.96758795,9.707015,-1.0753639
88562442044272,-0.9412427,9.687855,-1.1041040000000002
88562461902449,-0.9627979,9.5489435,-1.1256591999999999
88562481760498,-1.0130934,9.637559,-1.0681788
88562501618547,-1.0035132,9.644744000000001,-1.0322535
88562521476724,-0.977168,9.68067,-0.98195803
88562541336949,-0.92208254,9.6758795,-1.0514137
88562561195126,-0.86220706,9.64714,-1.0753639
88562581053303,-0.91010743,9.64714,-1.1064991000000002
88562600911480,-0.91010743,9.64714,-1.0562036
88562620769657,-0.9436377,9.651928999999999,-1.0921290000000001
88562640627834,-1.0106983,9.678274,-1.0705738
88562660482005,-1.0466236,9.683064,-0.96758795
88562680340182,-1.0777588,9.836346,-0.92208254
88562700198359,-1.0178833,9.77647,-0.93405765
88562720056536,-0.9412427,9.70941,-0.91010743
88562739914841,-0.9532178,9.72857,-0.9196875
88562759745174,-0.96758795,9.687855,-0.90771246
88562779602438,-0.98914313,9.75731,-0.86220706
88562799459719,-0.9484278,9.6686945,-0.9388476999999998
88562819317126,-0.9580079,9.702225,-0.99393314
88562839174784,-0.92926764,9.666299,-0.9627979
88562859032065,-0.9484278,9.7142,-0.91250247
88562878889344,-0.96758795,9.608819,-0.9532178
88562898746752,-1.0178833,9.589659,-0.974773
88562918604033,-0.9987232,9.5489435,-0.9029224
88562938460666,-0.9484278,9.877061,-0.8981324
88562958317946,-0.8765772,9.853110000000001,-0.96040285
88562978175099,-0.89573735,9.7621,-0.95561284
88562998032378,-0.8262818000000001,9.558523,-0.97237796
88563017889658,-0.8813671999999999,9.472302,-0.9508228000000001
88563037746811,-0.98914313,9.6615095,-0.9196875
88563057607474,-1.0250684,9.766891000000001,-0.9436377
88563077464626,-0.96758795,9.683064,-1.0226734
88563097321907,-0.9244776,9.637559,-0.9867481
88563117179186,-0.8981324,9.857901,-0.9532178
88563137040422,-0.9268726,9.70941,-1.0106983
88563156897831,-0.974773,9.522598,-0.96758795
88563176755110,-1.0585986,9.613608000000001,-0.9627979
88563196612518,-1.0298585,9.68067,-0.9580079
88563216469927,-0.9532178,9.671089,-0.977168
88563236331034,-0.9148975,9.7142,-0.98914313
88563256188442,-0.9412427,9.64714,-1.0370435
88563276045851,-0.94603276,9.6686945,-0.8885523000000001
88563295903386,-0.9532178,9.654325,-0.974773
88563315760794,-1.0274634,9.659114,-1.0083033000000001
88563335618203,-0.9484278,9.7142,-0.93405765
88563355475183,-0.9268726,9.649534,-0.9388476999999998
88563375332720,-0.90771246,9.687855,-1.0202783000000002
88563395190257,-0.91010743,9.7142,-1.0059083
88563415047666,-0.8885523000000001,9.649534,-0.8861573
88563434898929,-0.9196875,9.649534,-0.9580079
88563454756210,-0.90052736,9.673484,-0.98195803
88563474613491,-0.9196875,9.783655,-0.977168
88563494470772,-0.8981324,9.74773,-0.91729254
88563514328181,-0.9268726,9.699829,-1.0011181999999998
88563534185462,-0.9412427,9.6686945,-0.97237796
88563554045887,-0.8646021,9.580078,-0.97956306
88563573903296,-0.89573735,9.599238,-0.9627979
88563593760705,-0.9412427,9.635164,-0.9987232
88563613618114,-0.9412427,9.72378,-1.0274634
88563633475523,-0.9484278,9.81,-1.0178833
88563653335960,-0.9268726,9.735755000000001,-0.94603276
88563673193497,-0.8478370000000001,9.766891000000001,-0.9508228000000001
88563693051034,-0.91010743,9.678274,-1.0322535
88563712908443,-0.97237796,9.575289,-0.97956306
88563732765100,-0.974773,9.637559,-0.9268726
88563752622637,-0.91729254,9.759705,-0.9963281999999999
88563772480046,-0.9053174,9.72378,-1.0418334999999999
88563792337564,-0.87418216,9.654325,-0.9915381
88563812195101,-0.88376224,9.508227999999999,-1.0059083
88563832052636,-0.9388476999999998,9.577683,-1.0106983
88563851896697,-1.0011181999999998,9.70941,-1.0250684
88563871753978,-1.0657837,9.891430999999999,-1.0083033000000001
88563891611129,-1.0011181999999998,9.726174,-1.094524
88563911468409,-1.0106983,9.618399,-1.094524
88563931325690,-1.0394385,9.7740755,-1.0801538
88563951161794,-1.0346485,9.654325,-1.0346485
88563971018562,-1.096919,9.551338000000001,-0.9987232
88563990875331,-1.0873389,9.553733,-0.974773
88564010732226,-1.0130934,9.575289,-1.0585986
88564030596010,-0.9388476999999998,9.721385,-1.0729688
88564050452907,-0.9268726,9.7621,-1.0418334999999999
88564070309802,-0.9580079,9.721385,-1.0418334999999999
88564090166570,-1.0226734,9.656719,-1.0633887
88564110023467,-1.0370435,9.690249,-1.0298585
88564129880362,-1.0370435,9.6686945,-1.0106983
88564149744588,-1.0298585,9.685459,-0.974773
88564169601613,-0.92926764,9.699829,-1.0106983
88564189458638,-0.90052736,9.68067,-1.0490186000000001
88564209315660,-0.8813671999999999,9.560919,-1.0466236
88564229172813,-0.9508228000000001,9.630374,-1.0130934
88564249040080,-0.977168,9.649534,-1.0154883
88564268897360,-1.0442286,9.742939999999999,-0.94603276
88564288754513,-0.97956306,9.764495,-0.9987232
88564308611664,-0.9412427,9.742939999999999,-0.9963281999999999
88564328468494,-0.9388476999999998,9.745335,-0.93405765
88564348325647,-0.9388476999999998,9.6758795,-0.91010743
88564368182672,-1.0059083,9.582474000000001,-0.88376224
88564388039825,-0.9627979,9.575289,-0.852627
88564407896978,-0.974773,9.642349000000001,-0.8861573
88564427754131,-0.974773,9.733359,-0.8095166
88564447608980,-0.8981324,9.862691,-0.8813671999999999
88564467466005,-0.8981324,9.77647,-0.95561284
88564487323158,-0.9580079,9.707015,-0.9412427
88564507180183,-1.0681788,9.611214,-0.9029224
88564527037208,-1.0753639,9.604028999999999,-0.80712163
88564546902179,-1.0442286,9.671089,-0.7951465
88564566759332,-0.9963281999999999,9.798025,-0.81909674
88564586616613,-0.9867481,9.81,-0.9508228000000001
88564606473766,-0.94603276,9.606423,-0.8430469
88564626331047,-0.91729254,9.5561285,-0.86220706
88564646188200,-0.9963281999999999,9.570497999999999,-0.8478370000000001
88564666047711,-1.0657837,9.733359,-0.7448511
88564685904992,-1.0154883,9.934542,-0.76161623
88564705762273,-0.9268726,9.783655,-0.8765772
88564725619554,-0.9268726,9.637559,-0.9987232
88564745477275,-0.9436377,9.795630000000001,-0.91250247
88564765334684,-0.9436377,9.64714,-0.8143066999999999
88564785191945,-1.0154883,9.606423,-0.7568262
88564805049353,-1.0514137,9.5633135,-0.7879615
88564824906634,-1.0729688,9.659114,-0.83586186
88564844767716,-0.9580079,9.75731,-0.8478370000000001
88564864625124,-0.9484278,9.77168,-0.78556645
88564884482661,-0.88376224,9.683064,-0.7496411000000001
88564904340196,-0.9508228000000001,9.6686945,-0.8813671999999999
88564924197604,-1.0633887,9.685459,-0.8167017
88564944055141,-1.1328443000000001,9.6758795,-0.7879615
88564963911003,-1.1352394,9.632769,-0.76161623
88564983768539,-1.0466236,9.72378,-0.6610254
88565003626076,-0.9148975,9.733359,-0.6322852
88565023483611,-0.8885523000000001,9.7142,-0.728086
88565043345325,-0.95561284,9.589659,-0.84544194
88565063202862,-1.0609937,9.536968,-0.74006104
88565083060525,-1.0873389,9.716595,-0.6490503000000001
88565102918061,-1.0035132,9.764495,-0.62031007
88565122775726,-0.9148975,9.740545,-0.7113208000000001
88565142637441,-0.8646021,9.707015,-0.74724615
88565162495105,-0.9484278,9.699829,-0.7113208000000001
88565182352898,-0.97237796,9.769285,-0.62749517
88565202210561,-0.8885523000000001,9.666299,-0.67539555
88565222068353,-0.91250247,9.692644,-0.67539555
88565241926018,-0.92926764,9.692644,-0.7113208000000001
88565261790313,-0.9268726,9.642349000000001,-0.73527104
88565281648234,-0.9053174,9.6758795,-0.7065308000000001
88565301506155,-0.89573735,9.620794,-0.69216067
88565321364076,-0.9508228000000001,9.707015,-0.62749517
88565341221623,-0.9244776,9.73815,-0.62510014
88565361079544,-0.9316626,9.730965,-0.67539555
88565380937593,-0.9388476999999998,9.74773,-0.67539555
88565400795642,-0.8933423,9.711803999999999,-0.6777906
88565420653563,-0.89573735,9.644744000000001,-0.6586304000000001
88565440503500,-0.8981324,9.596844,-0.67539555
88565460361293,-0.9029224,9.560919,-0.63707525
88565480219086,-0.9268726,9.82437,-0.6059399999999999
88565500076879,-0.8861573,10.056687,-0.6706055000000001
88565519934672,-0.7927515,9.845925,-0.7448511
88565539792465,-0.8478370000000001,9.632769,-0.8095166
88565559641146,-0.9508228000000001,9.637559,-0.7879615
88565579498555,-1.0418334999999999,9.601633999999999,-0.68737066
88565599355964,-0.98435307,9.659114,-0.65384036
88565619213373,-0.974773,9.687855,-0.80712163
88565639071604,-0.9627979,9.711803999999999,-0.8430469
88565658929141,-0.89573735,9.79084,-0.8765772
88565678786550,-0.76880133,9.857901,-0.852627
88565698643959,-0.7065308000000001,9.656719,-0.8861573
88565718501496,-0.9316626,9.498648,-0.9029224
88565738358883,-1.0322535,9.596844,-0.83586186
88565758224832,-0.9867481,9.711803999999999,-0.79035646
88565778082369,-0.87178713,9.814791,-0.8262818000000001
88565797940034,-0.8143066999999999,9.671089,-0.9364527
88565817797568,-0.8382569,9.699829,-0.9508228000000001
88565837655233,-0.8214916999999999,9.73815,-0.94603276
88565857515066,-0.80233157,9.678274,-0.87418216
88565877372858,-0.8885523000000001,9.726174,-0.8382569
88565897230651,-0.9532178,9.764495,-0.91250247
88565917088314,-0.96040285,9.7621,-0.90771246
88565936943010,-0.89573735,9.72378,-0.88376224
88565956800675,-0.8286768,9.611214,-0.92926764
88565976658466,-0.87178713,9.742939999999999,-0.9388476999999998
88565996516130,-0.8813671999999999,9.685459,-0.9268726
88566016373795,-0.9244776,9.654325,-0.8430469
88566036231586,-0.9388476999999998,9.651928999999999,-0.9148975
88566056093005,-0.95561284,9.702225,-0.91250247
88566075950798,-0.9651929,9.7812605,-0.9388476999999998
88566095808461,-0.92926764,9.778865,-0.8765772
88566115666253,-0.9484278,9.572892999999999,-0.87897223
88566135524046,-0.9244776,9.572892999999999,-0.8885523000000001
88566155386675,-0.9484278,9.632769,-0.8981324
88566175244595,-1.0178833,9.82437,-0.79035646
88566195102388,-0.9532178,9.934542,-0.855022
88566214960309,-0.91729254,9.764495,-0.87418216
88566234819380,-0.8765772,9.644744000000001,-0.86939216
88566254677301,-0.8310718,9.481883,-0.85023195
88566274535220,-0.9388476999999998,9.632769,-0.8095166
88566294393140,-1.0322535,9.742939999999999,-0.7664063
88566314251061,-0.9915381,9.79084,-0.7496411000000001
88566334108980,-0.9053174,9.704619000000001,-0.9268726
88566353964052,-0.8765772,9.659114,-0.91250247
88566373821973,-0.98435307,9.778865,-0.85023195
88566393679766,-0.97237796,9.608819,-0.71371585
88566413537687,-1.0394385,9.575289,-0.77359134
88566433395480,-1.0585986,9.6686945,-0.8095166
88566453242543,-0.9987232,9.683064,-0.7711963000000001
88566473100208,-0.9148975,9.78605,-0.7711963000000001
88566492957873,-0.84065187,9.7621,-0.76401126
88566512815410,-0.8885523000000001,9.632769,-0.82388675
88566532673075,-0.8813671999999999,9.70941,-0.7544312
88566552530740,-0.9148975,9.687855,-0.7711963000000001
88566572381059,-0.98914313,9.656719,-0.7065308000000001
88566592238468,-0.9316626,9.733359,-0.7783814
88566612096005,-0.87418216,9.733359,-0.7927515
88566631953414,-0.87897223,9.769285,-0.77359134
88566651803021,-0.8478370000000001,9.649534,-0.77359134
88566671660430,-0.96758795,9.568104,-0.8095166
88566691517711,-1.0178833,9.685459,-0.73048097
88566711374992,-0.99393314,9.716595,-0.7544312
88566731232273,-1.0226734,9.812395,-0.7496411000000001
88566751086146,-0.9508228000000001,9.7621,-0.7807764
88566770943299,-0.9148975,9.6758795,-0.80233157
88566790800580,-0.88376224,9.697434,-0.7568262
88566810657861,-0.974773,9.560919,-0.73048097
88566830514993,-1.0346485,9.659114,-0.69216067
88566850372274,-0.93405765,9.711803999999999,-0.6945557
88566870227621,-0.9364527,9.721385,-0.84544194
88566890084901,-0.8909473,9.81,-0.8095166
88566909942054,-0.8981324,9.72857,-0.7927515
88566929799333,-0.9196875,9.666299,-0.7831714
88566949653201,-0.99393314,9.592053,-0.7927515
88566969510354,-1.0514137,9.606423,-0.7951465
88566989368749,-0.9867481,9.754914999999999,-0.73527104
88567009225901,-0.93405765,9.740545,-0.80712163
88567029082926,-0.9244776,9.783655,-0.82388675
88567048936530,-0.87897223,9.735755000000001,-0.7711963000000001
88567068793554,-0.8813671999999999,9.580078,-0.7783814
88567088650579,-0.99393314,9.510622999999999,-0.79993653
88567108507474,-1.0729688,9.733359,-0.73048097
88567128364498,-0.99393314,9.814791,-0.74006104
88567148221395,-0.9148975,9.7740755,-0.80233157
88567168075322,-0.8861573,9.654325,-0.8669971
88567187932218,-0.9580079,9.673484,-0.8143066999999999
88567207789115,-0.9436377,9.6686945,-0.6610254
88567227645882,-1.0154883,9.64714,-0.7568262
88567247504865,-1.0106983,9.695039999999999,-0.8047266
88567267361762,-0.9316626,9.663903999999999,-0.79035646
88567287218659,-0.9148975,9.793235000000001,-0.7568262
88567307075428,-0.8933423,9.795630000000001,-0.75203615
88567326932325,-0.9436377,9.508227999999999,-0.76880133
88567346787746,-0.9699829,9.536968,-0.728086
88567366644642,-0.974773,9.589659,-0.74006104
88567386501539,-1.0106983,9.766891000000001,-0.76880133
88567406358306,-0.8813671999999999,9.81958,-0.7448511
88567426215202,-0.8933423,9.81958,-0.83586186
88567446072099,-0.94603276,9.817185,-0.8143066999999999
88567465934920,-1.0011181999999998,9.6758795,-0.75203615
88567485791945,-0.9867481,9.520203,-0.73048097
88567505648842,-0.9651929,9.524992999999998,-0.7592211999999999
88567525505739,-1.0274634,9.582474000000001,-0.8047266
88567545370054,-1.0083033000000001,9.764495,-0.77359134
88567565227079,-0.91729254,9.857901,-0.77359134
88567585084104,-0.8598120000000001,9.83874,-0.80712163
88567604941129,-0.9029224,9.711803999999999,-0.9316626
88567624798154,-0.97237796,9.601633999999999,-0.84544194
88567644655179,-1.0442286,9.606423,-0.8286768
88567664514514,-1.096919,9.64714,-0.79754156
88567684371539,-1.1064991000000002,9.635164,-0.8143066999999999
88567704228692,-1.1041040000000002,9.699829,-0.8478370000000001
88567724085845,-0.99393314,9.716595,-0.7711963000000001
88567743942998,-0.92926764,9.7142,-0.85741705
88567763807585,-0.9148975,9.707015,-0.8861573
88567783664866,-0.9627979,9.601633999999999,-0.89573735
88567803522275,-1.0370435,9.606423,-0.8167017
88567823379537,-1.0130934,9.718989,-0.7927515
88567843239177,-1.0562036,9.764495,-0.90052736
88567863096586,-1.0466236,9.778865,-0.90052736
88567882953993,-0.9651929,9.6758795,-0.8885523000000001
88567902811401,-0.9915381,9.611214,-0.86939216
88567922668938,-1.0538087,9.606423,-0.8933423
88567942526345,-1.0849438999999999,9.604028999999999,-0.852627
88567962392360,-1.0418334999999999,9.750125,-0.8646021
88567982250025,-0.9651929,9.75731,-0.9316626
88568002107688,-0.9699829,9.74773,-0.91250247
88568021965352,-0.95561284,9.821976,-0.92208254
88568041823017,-0.98195803,9.639954,-0.8885523000000001
88568061680488,-1.0370435,9.553733,-0.85741705
88568081538280,-1.0538087,9.637559,-0.855022
88568101395945,-1.0346485,9.613608000000001,-0.8646021
88568121253608,-1.0106983,9.726174,-0.89573735
88568141111475,-0.9436377,9.735755000000001,-0.93405765
88568160969140,-0.9508228000000001,9.716595,-0.9268726
88568180826803,-0.96040285,9.697434,-0.9316626
88568200684595,-1.0011181999999998,9.6758795,-0.8861573
88568220542260,-1.0490186000000001,9.656719,-0.83586186
88568240399923,-1.0226734,9.673484,-0.7927515
88568260264536,-0.9699829,9.6758795,-0.84065187
88568280122329,-0.92208254,9.766891000000001,-0.87897223
88568299980122,-0.92208254,9.699829,-0.8310718
88568319837912,-0.9388476999999998,9.685459,-0.77359134
88568339695705,-0.91010743,9.673484,-0.79754156
88568359546917,-0.9580079,9.618399,-0.8478370000000001
88568379404581,-1.0035132,9.699829,-0.79993653
88568399262374,-0.9915381,9.7740755,-0.7544312
88568419120037,-0.9580079,9.766891000000001,-0.7424561
88568438972782,-0.9029224,9.697434,-0.7951465
88568458830319,-0.9436377,9.651928999999999,-0.80712163
88568478687984,-1.0059083,9.702225,-0.75203615
88568498545649,-0.9963281999999999,9.68067,-0.69695073
88568518403186,-0.977168,9.678274,-0.6993457
88568538260846,-0.9699829,9.6686945,-0.76880133
88568558113256,-0.9627979,9.718989,-0.76161623
88568577970793,-0.9316626,9.788445,-0.6945557
88568597828328,-0.91010743,9.726174,-0.7065308000000001
88568617685864,-0.9244776,9.616004,-0.73048097
88568637543401,-1.0130934,9.620794,-0.73527104
88568657396937,-1.0274634,9.716595,-0.6993457
88568677254345,-1.0154883,9.75252,-0.7065308000000001
88568697111882,-1.0202783000000002,9.79084,-0.7711963000000001
88568716969289,-0.96040285,9.754914999999999,-0.728086
88568736826697,-0.8933423,9.635164,-0.70174074
88568756684106,-0.9053174,9.541758999999999,-0.7209009
88568776542604,-1.0083033000000001,9.501043,-0.76161623
88568796400012,-1.1232642,9.766891000000001,-0.66342044
88568816257421,-0.9963281999999999,10.025552000000001,-0.64186525
88568836114828,-0.90771246,9.745335,-0.76161623
88568855962404,-0.9436377,9.639954,-0.80233157
88568875819685,-0.89573735,9.616004,-0.7185059
88568895676836,-0.9580079,9.5633135,-0.66342044
88568915534116,-1.089734,9.632769,-0.6586304000000001
88568935391269,-1.094524,9.716595,-0.68018556
88568955241441,-0.9915381,9.685459,-0.78556645
88568975096096,-0.98195803,9.807606,-0.7879615
88568994953121,-0.97237796,9.699829,-0.74724615
88569014810144,-1.0298585,9.932146000000001,-0.7041358
88569034667040,-0.92208254,9.613608000000001,-0.69216067
88569054524065,-1.0729688,9.472302,-0.8669971
88569074379138,-1.1352394,9.582474000000001,-0.71371585
88569094236162,-1.0777588,9.601633999999999,-0.6466553
88569114093059,-0.96758795,9.72857,-0.73527104
88569133950084,-0.9532178,9.82437,-0.86220706
88569153813505,-1.0130934,9.726174,-0.91010743
88569173670658,-0.9651929,9.666299,-0.7783814
88569193527811,-0.9699829,9.64714,-0.7951465
88569213384836,-1.0633887,9.587264,-0.80712163
88569233241989,-1.1280543,9.575289,-0.8047266
88569253103392,-1.0705738,9.587264,-0.8214916999999999
88569272960545,-1.0466236,9.735755000000001,-0.7927515
88569292817698,-0.9436377,9.850716,-0.8430469
88569312674851,-0.9484278,9.75252,-0.91250247
88569332531876,-1.0346485,9.611214,-0.80233157
88569352389029,-1.0681788,9.639954,-0.76401126
88569372248606,-1.0346485,9.663903999999999,-0.79035646
88569392105759,-1.0705738,9.695039999999999,-0.8765772
88569411962912,-1.0921290000000001,9.687855,-0.9244776
88569431820065,-1.0394385,9.692644,-0.97237796
88569451679272,-0.974773,9.759705,-0.9196875
88569471536425,-0.9388476999999998,9.618399,-0.92208254
88569491393706,-1.0490186000000001,9.505833,-0.9388476999999998
88569511250859,-1.1520045,9.582474000000001,-0.9436377
88569531108012,-1.1352394,9.666299,-0.7951465
88569550965165,-1.0585986,9.81,-0.8167017
88569570817961,-1.0059083,9.843531,-0.9627979
88569590675114,-0.977168,9.721385,-0.8885523000000001
88569610532267,-0.9364527,9.644744000000001,-0.855022
88569630389420,-0.99393314,9.568104,-0.87418216
88569650246573,-1.101709,9.623189,-0.81909674
88569670110504,-1.1208692,9.718989,-0.8095166
88569689967785,-1.0226734,9.707015,-0.8214916999999999
88569709825066,-0.96040285,9.678274,-0.8813671999999999
88569729682347,-0.977168,9.733359,-0.90771246
88569749539914,-0.98195803,9.750125,-0.86939216
88569769397067,-1.0178833,9.666299,-0.8286768
88569789254348,-1.0442286,9.639954,-0.8765772
88569809111629,-1.0585986,9.544153,-0.90771246
88569828968910,-1.0657837,9.627979,-0.855022
88569848826178,-1.0514137,9.711803999999999,-0.8669971
88569868693607,-0.98914313,9.666299,-0.8646021
88569888551144,-0.98195803,9.616004,-0.9268726
88569908408679,-0.98435307,9.596844,-0.9388476999999998
88569928266343,-1.0322535,9.726174,-0.87178713
88569948123880,-1.0035132,9.692644,-0.8214916999999999
88569967985750,-0.9508228000000001,9.587264,-0.855022
88569987843414,-0.97956306,9.613608000000001,-0.86220706
88570007701079,-1.0609937,9.73815,-0.855022
88570027558742,-1.0490186000000001,9.75731,-0.7544312
88570047419001,-0.9532178,9.742939999999999,-0.79035646
88570067276666,-0.95561284,9.627979,-0.9268726
88570087134457,-1.0729688,9.699829,-0.86220706
88570106992121,-1.0466236,9.766891000000001,-0.86220706
88570126849914,-0.9867481,9.77168,-0.8909473
88570146707577,-0.9699829,9.7142,-0.9699829
88570166561169,-1.0298585,9.690249,-1.0514137
88570186418834,-1.089734,9.6615095,-0.9580079
88570206276497,-1.0298585,9.659114,-0.9196875
88570226134162,-0.9987232,9.608819,-0.9364527
88570245991827,-0.98195803,9.642349000000001,-1.0466236
88570265853572,-0.9915381,9.72378,-1.0801538
88570285711233,-0.9484278,9.707015,-1.0442286
88570305569026,-0.91250247,9.673484,-1.0083033000000001
88570325426689,-0.9364527,9.6686945,-1.0609937
88570345284481,-0.974773,9.666299,-1.0538087
88570365142274,-1.0130934,9.64714,-1.0370435
88570385003606,-1.0394385,9.616004,-1.0585986
88570404861526,-1.0178833,9.673484,-0.9699829
88570424719319,-0.9244776,9.72857,-0.98435307
88570444577240,-0.9196875,9.769285,-1.0418334999999999
88570464424867,-0.91010743,9.6615095,-0.9699829
88570484282532,-0.9053174,9.635164,-0.95561284
88570504140197,-0.852627,9.544153,-0.9412427
88570523997862,-0.92926764,9.690249,-0.9316626
88570543855527,-0.91729254,9.860296,-0.8933423
88570563705596,-0.86939216,9.898616,-0.92926764
88570583563005,-0.8885523000000001,9.704619000000001,-0.977168
88570603420542,-0.97237796,9.616004,-1.0322535
88570623277951,-0.9915381,9.618399,-0.95561284
88570643135488,-0.96758795,9.683064,-0.81191164
88570662992897,-0.91250247,9.611214,-0.9244776
88570682843498,-0.9987232,9.577683,-1.0154883
88570702700779,-1.096919,9.666299,-1.0059083
88570722558060,-1.0753639,9.766891000000001,-0.9029224
88570742415341,-0.9699829,9.845925,-0.8813671999999999
88570762272798,-0.9364527,9.690249,-1.0705738
88570782130079,-1.0442286,9.433982,-1.1088941
88570801987343,-1.1472143999999997,9.558523,-0.87897223
88570821844623,-1.1184741000000002,9.611214,-0.8286768
88570841701904,-1.0538087,9.580078,-0.8167017
88570861552259,-1.0226734,9.68067,-0.9316626
88570881409411,-0.9867481,9.759705,-0.96758795
88570901266564,-0.96040285,9.764495,-0.8909473
88570921123843,-1.0035132,9.764495,-0.8047266
88570940980995,-1.0609937,9.644744000000001,-0.8310718
88570960838148,-1.101709,9.580078,-0.77359134
88570980697957,-1.0681788,9.637559,-0.7041358
88571000553646,-1.0130934,9.663903999999999,-0.84544194
88571020410799,-1.0298585,9.77168,-0.8262818000000001
88571040267950,-0.95561284,9.872271000000001,-0.8382569
88571060124464,-0.8669971,9.831555,-0.8598120000000001
88571079981745,-0.8478370000000001,9.726174,-0.89573735
88571099838896,-0.8885523000000001,9.584868,-0.9651929
88571119696048,-1.0011181999999998,9.510622999999999,-0.9436377
88571139553329,-1.0705738,9.608819,-0.852627
88571159410480,-1.0250684,9.618399,-0.9196875
88571179265863,-0.91010743,9.6758795,-0.9268726
88571199122888,-0.77359134,9.759705,-1.0154883
88571218980039,-0.7951465,9.718989,-1.096919
88571238837063,-0.8813671999999999,9.7621,-0.9915381
88571258694088,-0.93405765,9.671089,-0.99393314
88571278559197,-0.97237796,9.577683,-0.96758795
88571298416349,-0.9580079,9.601633999999999,-0.9244776
88571318273630,-0.9508228000000001,9.718989,-1.0178833
88571338130781,-0.92926764,9.726174,-1.101709
88571357980964,-0.87897223,9.702225,-1.1041040000000002
88571377838117,-0.8669971,9.649534,-1.1160791
88571397695142,-0.89573735,9.635164,-1.0657837
88571417552167,-0.97237796,9.699829,-1.0202783000000002
88571437409192,-0.98435307,9.687855,-0.98435307
88571457266217,-0.974773,9.716595,-1.0298585
88571477124108,-0.9436377,9.673484,-1.101709
88571496981133,-0.8981324,9.7740755,-1.1448194
88571516838158,-0.9053174,9.707015,-1.1304493
88571536695183,-0.9268726,9.623189,-1.1184741000000002
88571556552336,-1.0562036,9.508227999999999,-1.1448194
88571576412219,-1.1520045,9.678274,-1.1328443000000001
88571596269372,-1.1831397,9.654325,-1.1591895
88571616126525,-1.0921290000000001,9.618399,-1.1400293
88571635983678,-1.0514137,9.6686945,-1.1328443000000001
88571655840575,-0.98435307,9.742939999999999,-1.1567944
88571675697728,-0.97956306,9.7142,-1.1208692
88571695554881,-0.9436377,9.666299,-1.1280543
88571715412034,-1.0202783000000002,9.565708,-1.1663746000000002
88571735269187,-1.0657837,9.592053,-1.0418334999999999
88571755126340,-1.0322535,9.616004,-1.0130934
88571774988833,-0.95561284,9.697434,-1.0585986
88571794846114,-0.91729254,9.750125,-1.0921290000000001
88571814703267,-0.91729254,9.745335,-1.0562036
88571834560526,-0.974773,9.697434,-1.0849438999999999
88571854417807,-1.0514137,9.685459,-1.0705738
88571874280953,-1.0442286,9.604028999999999,-1.0178833
88571894138361,-1.0849438999999999,9.611214,-0.9915381
88571913995770,-1.0490186000000001,9.616004,-0.9915381
88571933853305,-1.0130934,9.656719,-1.0154883
88571953719048,-0.97237796,9.75252,-1.0274634
88571973576713,-0.9580079,9.74773,-1.0178833
88571993434376,-0.974773,9.654325,-0.99393314
88572013292040,-0.9915381,9.575289,-0.9484278
88572033149705,-0.9915381,9.611214,-0.9316626
88572053007368,-0.98914313,9.742939999999999,-0.91729254
88572072865588,-0.9627979,9.6686945,-0.93405765
88572092723253,-0.93405765,9.666299,-0.9580079
88572112580916,-0.87897223,9.625584,-0.98195803
88572132438580,-0.81191164,9.718989,-0.91729254
88572152296245,-0.85023195,9.685459,-0.98195803
88572172150690,-0.9388476999999998,9.632769,-0.92926764
88572192008226,-0.9268726,9.608819,-0.8885523000000001
88572211865891,-0.8813671999999999,9.750125,-0.92926764
88572231723426,-0.9412427,9.831555,-0.974773
88572251581091,-0.9580079,9.742939999999999,-0.89573735
88572271438628,-0.91250247,9.6758795,-0.88376224
88572291301843,-0.89573735,9.582474000000001,-0.90771246
88572311159507,-0.94603276,9.522598,-0.9053174
88572331017172,-1.0106983,9.639954,-0.87178713
88572350874963,-0.98435307,9.635164,-0.8813671999999999
88572370731717,-0.9508228000000001,9.750125,-0.88376224
88572390589382,-0.94603276,9.826766000000001,-0.98195803
88572410447173,-0.93405765,9.7740755,-0.9436377
88572430304838,-0.89573735,9.68067,-0.88376224
88572450162631,-0.9053174,9.505833,-0.92208254
88572470008750,-1.0154883,9.465117,-0.92208254
88572489866159,-0.9915381,9.572892999999999,-0.8909473
88572509723568,-0.9963281999999999,9.596844,-0.93405765
88572529581105,-0.9436377,9.7740755,-0.94603276
88572549438514,-0.94603276,9.83874,-0.9699829
88572569295923,-0.92208254,9.812395,-0.92208254
88572589149138,-0.94603276,9.683064,-0.9148975
88572609006547,-0.9508228000000001,9.532178,-0.9316626
88572628863956,-1.0250684,9.460327000000001,-0.91250247
88572648721237,-1.0035132,9.517808,-0.86939216
88572668575362,-0.9627979,9.730965,-0.977168
88572688432643,-0.9580079,9.80521,-1.0346485
88572708289924,-0.974773,9.845925,-1.0035132
88572728147205,-0.97956306,9.742939999999999,-1.0035132
88572748004486,-0.95561284,9.697434,-0.96040285
88572767862673,-1.0250684,9.666299,-1.0538087
88572787719937,-1.1496094,9.589659,-1.0106983
88572807577218,-1.1496094,9.529783,-1.0106983
88572827434497,-1.0106983,9.601633999999999,-1.0633887
88572847291905,-0.97237796,9.522598,-1.2286451
88572867149186,-1.0274634,9.5633135,-1.1543995
88572887001785,-1.0418334999999999,9.800421,-1.1184741000000002
88572906859065,-0.9963281999999999,9.910591,-1.0538087
88572926716346,-0.99393314,9.750125,-1.1496094
88572946573625,-1.0298585,9.551338000000001,-1.1615845
88572966425182,-1.0729688,9.522598,-1.1041040000000002
88572986282335,-1.0514137,9.539363,-1.0442286
88573006139486,-1.0609937,9.666299,-1.1448194
88573025997893,-1.0849438999999999,9.735755000000001,-1.1400293
88573045855046,-1.0585986,9.745335,-1.1472143999999997
88573065707876,-0.9364527,9.73815,-1.22146
88573085564900,-1.0154883,9.568104,-1.2645704
88573105421925,-1.1639795,9.565708,-1.1975098
88573125278948,-1.2430152,9.553733,-1.1687696
88573145135844,-1.2094848999999999,9.632769,-1.1328443000000001
88573164992869,-1.1879296999999998,9.7621,-1.2621753
88573184849100,-1.2166698999999999,9.836346,-1.2861254999999998
88573204705997,-1.1999048,9.795630000000001,-1.2454101999999998
88573224563022,-1.2118799999999998,9.690249,-1.2693603999999998
88573244419916,-1.1711646,9.589659,-1.3124708
88573264278648,-1.2118799999999998,9.508227999999999,-1.2765454
88573284135545,-1.1663746000000002,9.524992999999998,-1.2022998
88573303992440,-1.2166698999999999,9.558523,-1.2621753
88573323849336,-1.2286451,9.541758999999999,-1.2693603999999998
88573343706233,-1.1472143999999997,9.608819,-1.2286451
88573363563128,-1.094524,9.692644,-1.2573853000000002
88573383427458,-1.1184741000000002,9.73815,-1.2789403999999998
88573403284483,-1.214275,9.666299,-1.2861254999999998
88573423141506,-1.2310401000000002,9.582474000000001,-1.2358301999999999
88573442998530,-1.2118799999999998,9.534574000000001,-1.2765454
88573462855555,-1.1711646,9.529783,-1.3148658000000002
88573482720849,-1.1759547,9.5633135,-1.3268408999999999
88573502578001,-1.1400293,9.553733,-1.2669654
88573522435154,-1.1160791,9.5633135,-1.2789403999999998
88573542292305,-1.0849438999999999,9.613608000000001,-1.2909156000000002
88573562147810,-1.0801538,9.623189,-1.2478052
88573582004963,-1.0154883,9.575289,-1.1975098
88573601862242,-1.0106983,9.568104,-1.22625
88573621719394,-1.0059083,9.465117,-1.1999048
88573641576547,-0.97956306,9.520203,-1.1831397
88573661433826,-0.9963281999999999,9.467513,-1.1927198
88573681299188,-1.0346485,9.455538,-1.1041040000000002
88573701156597,-0.9963281999999999,9.491463000000001,-1.1400293
88573721014004,-1.0178833,9.558523,-1.1448194
88573740871284,-1.0849438999999999,9.515413,-1.1088941
88573760728693,-1.1160791,9.457932000000001,-1.1855347
88573780586998,-1.0801538,9.508227999999999,-1.1807446000000001
88573800444406,-1.1232642,9.568104,-1.2070899
88573820301815,-1.2022998,9.663903999999999,-1.1807446000000001
88573840159222,-1.1999048,9.6615095,-1.1184741000000002
88573860016630,-1.2046948999999998,9.627979,-1.0705738
88573879874039,-1.2046948999999998,9.639954,-1.1352394
88573899726563,-1.1400293,9.587264,-1.1711646
88573919583971,-1.0059083,9.489068,-1.2022998
88573939441380,-0.9316626,9.5561285,-1.2334352
88573959298787,-0.8885523000000001,9.692644,-1.1975098
88573979159700,-0.9029224,9.726174,-1.1160791
88573999017237,-0.9388476999999998,9.601633999999999,-1.2406201000000001
88574018874772,-1.0657837,9.5561285,-1.22625
88574038732308,-1.1232642,9.527389,-1.2166698999999999
88574058589845,-1.1328443000000001,9.498648,-1.1472143999999997
88574078443906,-1.1424243,9.441168,-1.2118799999999998
88574098301442,-1.1855347,9.431587,-1.2573853000000002
88574118158851,-1.1567944,9.469908,-1.2573853000000002
88574138016258,-1.1184741000000002,9.570497999999999,-1.2094848999999999
88574157873666,-1.1160791,9.5489435,-1.1879296999999998
88574177731075,-1.1687696,9.496253,-1.2286451
88574197593189,-1.1903248,9.448353,-1.2549903
88574217450725,-1.1735597,9.381292,-1.1831397
88574237308134,-1.1232642,9.314231,-1.1639795
88574257165669,-1.101709,9.326205999999999,-1.2022998
88574277032354,-1.0705738,9.374106,-1.1520045
88574296890147,-1.0226734,9.460327000000001,-1.1783496
88574316747810,-1.094524,9.532178,-1.1999048
88574336605474,-1.1352394,9.553733,-1.1807446000000001
88574356463139,-1.1687696,9.560919,-1.1615845
88574376317448,-1.2094848999999999,9.551338000000001,-1.1639795
88574396175112,-1.2502003000000002,9.5633135,-1.0801538
88574416032777,-1.1903248,9.651928999999999,-1.0729688
88574435890440,-1.1520045,9.64714,-1.1472143999999997
88574455748104,-1.1472143999999997,9.5633135,-1.1328443000000001
88574475605769,-1.1352394,9.517808,-1.1256591999999999
88574495440648,-1.1567944,9.501043,-1.0753639
88574515297928,-1.1927198,9.448353,-1.0394385
88574535155081,-1.2406201000000001,9.328602,-1.0370435
88574555012360,-1.2166698999999999,9.314231,-1.1256591999999999
88574574856925,-1.1735597,9.419611999999999,-1.1232642
88574594713822,-1.1424243,9.5633135,-1.1472143999999997
88574614570717,-1.1424243,9.70941,-1.1304493
88574634427741,-1.223855,9.8938265,-1.0562036
88574654284638,-1.2549903,9.901011,-1.0083033000000001
88574674137833,-1.2837305,9.704619000000001,-1.1352394
88574693994601,-1.3004956,9.486672,-1.0083033000000001
88574713851370,-1.1591895,9.297466,-0.8981324
88574733708137,-1.0609937,9.338181500000001,-0.977168
88574753565033,-1.101709,9.388477,-1.0681788
88574773421802,-1.1256591999999999,9.508227999999999,-1.0154883
88574793287273,-1.1232642,9.697434,-0.9484278
88574813144169,-1.1041040000000002,9.769285,-0.8430469
88574833001066,-1.0130934,9.656719,-0.7879615
88574852857961,-1.0083033000000001,9.577683,-0.85741705
88574872698918,-1.1304493,9.4435625,-0.8813671999999999
88574892555559,-1.1783496,9.4507475,-0.82388675
88574912412070,-1.1136841999999998,9.484278,-0.79035646
88574932268710,-1.0562036,9.594449000000001,-0.73048097
88574952125223,-0.99393314,9.671089,-0.7185059
88574971981734,-0.95561284,9.663903999999999,-0.8095166
88574991844492,-0.99393314,9.572892999999999,-0.80233157
88575011701133,-1.0585986,9.505833,-0.7209009
88575031557772,-1.1184741000000002,9.517808,-0.62749517
88575051411585,-1.1184741000000002,9.541758999999999,-0.58677983
88575071268226,-1.096919,9.580078,-0.58198977
88575091138744,-1.0633887,9.589659,-0.58198977
88575110995640,-1.0514137,9.692644,-0.4622388
88575130852665,-1.0250684,9.798025,-0.21794678
88575150709688,-0.96758795,9.745335,0.0023950195999999997
88575170567445,-0.9053174,9.68067,0.14370118
88575190424342,-0.87178713,9.848321,0.2945874
88575210281237,-0.79993653,10.027947,0.57001466
88575230138133,-0.69216067,9.936936,0.86220706
88575249995158,-0.49816409999999994,9.5489435,0.85741705
88575269852053,-0.44307864,9.625584,0.6394701999999999
88575289725412,-0.49337405,10.327325,0.5628295999999999
88575309582693,-0.49097902,10.899734500000001,0.35925296
88575329439972,-0.5987549,11.302097,0.63707525
88575349297252,-0.852627,11.03625,1.6932789000000001
88575369154532,0.043110352000000005,10.597961,-1.0609937
88575389016004,1.1759547,10.212363,-2.6464967999999995
88575408873412,-0.14130616,10.550061,0.96758795
88575428730820,-0.45984375,10.576406500000001,1.3531861
88575448588228,-0.90052736,10.030342,1.4034815
88575468445636,-1.7220191000000002,9.570497999999999,1.7890796999999998
88575488303666,-1.2957056999999998,9.295072,2.4836354
88575508161074,-0.29698244,9.019644,2.929109
88575528018354,0.0023950195999999997,8.933423,3.1231055
88575547875762,0.11256592,8.832832000000002,3.4512233999999995
88575567733042,0.5891748,8.629255,3.5901343999999997
88575587597124,1.2166698999999999,8.423283999999999,3.666775
88575607454660,1.1064991000000002,8.097562,4.138594
88575627312196,0.4622388,7.7694434999999995,4.7972245000000004
88575647169732,0.117355965,7.4125857,5.599556
88575667027140,0.20118165,7.4772515,5.9324636
88575686890698,0.7759864000000001,7.558682000000001,6.1216702000000005
88575706748362,0.7664063,7.1658990000000005,5.992339
88575726606026,0.5891748,6.5000834,6.5072684
88575746463690,0.87897223,6.0689797,8.018526
88575766321354,0.74006104,5.8270826,9.800421
88575786189672,0.8981324,5.357659,9.855506
88575806047592,1.0777588,5.0367265,7.9921803
88575825905512,-0.366438,6.0019193,4.7876444000000005
88575845763560,-2.9051588,6.1695704000000005,-3.4799635
88575865621480,-7.345525299999999,15.498172,-1.6118482
88575885486073,-8.653205999999999,26.239835999999997,12.221786
88575905344377,0.4167334,7.973020599999999,-0.32572266
88575925202553,0.3903882,1.4322218,-3.7601807000000003
88575945060857,0.2921924,7.3551054,-0.9532178
88575964919161,1.1855347,10.303374,-1.1041040000000002
88575984778757,-0.6490503000000001,10.633887,-3.0344898999999996
88576004637189,0.19160157,12.394227,-0.8430469
88576024495493,-0.043110352000000005,12.27208,1.1064991000000002
88576044353925,-1.575923,10.257869,0.11496094
88576064212357,-0.083825685,9.666299,-0.87178713
88576084058489,0.17723145,9.395662,0.80712163
88576103916537,-0.8310718,7.822133999999999,2.5818312000000003
88576123774713,0.045505375,8.068821,1.6022681
88576143632761,-0.07185059,9.347761,0.364043
88576163490809,-0.74006104,8.840017,1.1927198
88576183344432,-0.122146,8.816068,-0.1580713
88576203202352,-0.2562671,8.940608000000001,-0.29937744
88576223060272,-1.4322218,8.346642999999998,0.21315674
88576242918320,-1.0394385,7.9897857000000005,-0.79754156
88576262776240,0.06706055,8.413704,-0.0023950195999999997
88576282637628,1.1855347,9.477093,0.90052736
88576302495548,1.8705102999999998,10.542876,0.30416748
88576322353596,1.0346485,11.646980000000001,0.9508228000000001
88576342211644,-0.73048097,12.78222,3.3817677
88576362069564,-1.3196558,12.418177,3.2141162999999997
88576381927380,-0.33290774,12.485237,0.45026368
88576401785428,1.1400293,13.397739000000001,-2.2129982000000004
88576421643604,1.2669654,14.427598000000001,-1.8872755
88576441501652,0.5939649,14.334192000000002,-0.84544194
88576461359700,0.89573735,11.333233,-1.2310401000000002
88576481196197,1.8992506000000002,10.073453,0.07185059
88576501053733,0.22273682,13.543835999999999,-2.074087
88576520911269,-0.44547364,15.402370999999999,-1.1543995
88576540768677,0.8382569,13.986915,6.073769599999999
88576560626213,3.178191,13.155842999999999,3.791316
88576580469313,3.2811767999999994,10.245894,-4.9217653
88576600326465,2.411785,7.810159,-7.654483
88576620183617,1.3268408999999999,7.335945,-4.984036
88576640040769,0.9651929,6.983877000000001,-2.4956105
88576659898049,-0.25387207,6.1575956,-1.7124390999999999
88576679753458,-1.6453785,5.5492606,-3.0081446
88576699610610,-3.1614258,4.2918754,-2.5770411
88576719467762,-4.404441,4.1002736,-0.49337405
88576739324914,-5.429509599999999,5.724097,0.17723145
88576759182066,-4.140989,6.940767,1.0226734
88576779039242,-0.8430469,8.610096,2.0381618
88576798896394,-1.9471509999999999,11.994258,4.6631029999999996
88576818753418,-4.9457154,15.16766,3.3242872
88576838610570,-1.9303858,11.819422,22.683231
88576858467594,4.524192,8.952583,8.952583
88576878319559,11.263778,9.685459,-21.445005
88576898176583,7.2760696,13.6851425,-11.558365
88576918033479,-2.0669020000000002,13.117522,-0.37601808
88576937890503,-4.3733059999999995,10.451866,11.349998
88576957747527,0.18441652,10.351274499999999,-9.204061
88576977604551,-0.86220706,11.206297,-6.979087400000001
88576997461245,-6.219866000000001,13.067227,1.2693603999999998
88577017318141,-2.308799,11.467353999999998,-1.0729688
88577037175037,-0.035925295,9.465117,-1.2597803
88577057032061,-0.17244141,7.443721000000001,0.08622070400000001
88577076873922,-1.9423609,7.551497,0.1580713
88577096725928,-2.3806496,6.9216065,-2.4668702999999996
88577116582696,-1.7794994999999998,6.9862722999999995,-2.0501368
88577136439464,-3.168611,8.737032000000001,0.87178713
88577156296360,-0.8909473,9.148975,2.9482691
88577176153128,1.0921290000000001,9.477093,1.4873072
88577196014430,0.96758795,9.393267,0.18441652
88577215871326,-0.0071850587,9.285491,-2.0932472
88577235728222,0.33769777,9.742939999999999,-3.6883302000000002
88577255584990,0.855022,11.896063,0.32093263
88577275441886,-0.31135255,13.050462,3.4919385999999997
88577295306515,-2.3710694,12.691208999999999,2.3590944
88577315163539,-0.9987232,12.207415,0.38559815
88577335020563,0.24908204,12.904366,-0.63707525
88577354877459,0.48379397,13.625267000000001,-1.8657203000000002
88577374734483,0.16286133,13.222903,-1.8705102999999998
88577394597260,0.75203615,13.522281,-1.2478052
88577414454412,2.2321582,11.02667,-0.28979737
88577434311436,3.0416749,12.334352,-1.8010547
88577454168588,0.8310718,14.968873,-3.3003370000000003
88577474025740,0.6490503000000001,14.135406,-3.302732
88577493885249,1.4873072,13.694722,-0.05269043
88577513742401,1.2070899,13.110337,2.7135572
88577533599681,1.5926881000000002,11.984678,1.7747096000000002
88577553456833,1.8729054,10.317744,-2.0932472
88577573313985,3.0416749,8.236472000000001,-6.514453400000001
88577593174702,2.6872119999999997,7.414981,-6.4928985
88577613031982,0.92926764,6.2941117,-6.2797413
88577632889262,-0.8334668,5.1947975,-3.6068995000000004
88577652746542,-3.772156,5.094207,0.05269043
88577672603822,-5.144501999999999,5.2091675,0.6777906
88577692466330,-4.057163200000001,5.1061816,0.75203615
88577712323738,-4.112248999999999,5.283413400000001,1.22625
88577732181146,-3.8847218,6.339617,1.8585353
88577752038426,-1.9663111,8.308323,1.4585668999999999
88577771895834,-1.710044,10.732083,2.5171657000000005
88577791759879,-2.929109,11.833791999999999,4.423601000000001
88577811617415,-3.8320315000000003,16.228653,12.255316
88577831474951,4.967271,16.226257,16.037052
88577851332487,14.877862,8.339458,-1.3891114
88577871190023,12.861256,9.038803999999999,-5.755232299999999
88577891050526,2.8476784,15.16766,-4.0356083
88577910908318,-0.7448511,14.446757999999999,-6.586303999999999
88577930765982,-4.3421707000000005,8.162227,0.9436377
88577950623774,-6.959927,2.9003687,7.1299734
88577970481438,-6.011499400000001,4.8068040000000005,-2.8764186
88577990342868,-5.647456,9.228010000000001,-5.0415163
88578010200660,-6.09772,11.848162,-4.3493557
88578030058580,-3.1326857000000006,13.215717999999999,-10.123747999999999
88578049916372,-0.68976563,12.569063,-3.7793410000000005
88578069774292,1.4034815,12.655284,7.1084185
88578089622848,2.6536817999999998,10.358459,0.9148975
88578109480512,-0.19878663,8.938213000000001,1.7747096000000002
88578129338176,-0.96758795,8.157437,3.9230419999999997
88578149195840,-1.1208692,8.993299,1.0394385
88578169053504,-1.2693603999999998,8.57417,-1.583108
88578188906224,-1.2741505,7.9921803,-2.2129982000000004
88578208763760,-1.2118799999999998,8.662786500000001,-2.5866213
88578228621168,-1.2022998,8.772957,-1.5735278999999998
88578248478704,-0.6777906,8.837622999999999,0.30895755
88578268336240,-0.011975098,9.865086,2.6321266
88578288201614,0.57001466,10.617122,3.6931202000000005
88578308059278,0.7065308000000001,10.643467,1.2621753
88578327916942,0.76161623,9.968072,-0.016765138
88578347774606,1.0514137,10.717711999999999,0.48379397
88578367632271,0.32332766,12.111614,-0.13651612
88578387487254,-1.1520045,12.102035,-1.8633252
88578407344919,-3.5757644,13.232484,-1.9160157
88578427202580,-3.0871804,12.504397,-1.4825171
88578447060244,-2.5914113999999997,10.435101,-4.912185
88578466917908,-1.7435743000000001,11.407478,-5.716912000000001
88578486770160,-0.78556645,13.016932,-0.4167334
88578506627568,-0.73527104,13.654007,2.5075855
88578526485105,-0.50774413,12.075689,0.36164796
88578546342642,-1.3795313,10.051897,-1.3220508
88578566200051,-2.327959,9.101074,0.040715333
88578586052400,-2.1531227000000004,8.3179035,-0.19878663
88578605909681,-1.8872755,6.7515600000000004,-0.70174074
88578625767090,-1.6310083999999998,5.8845634,-0.16046631
88578645624499,-2.2513185,5.973179,0.8598120000000001
88578665481908,-2.2393433999999997,5.647456,2.2872437999999997
88578685332539,-1.2502003000000002,4.991221,1.5016773
88578705189692,-1.6214283,6.06419,-1.0322535
88578725046845,-2.1363575,7.513176400000001,-2.2896388
88578744904126,-1.8896705000000003,8.308323,-0.6993457
88578764761279,-1.954336,9.026829,1.3076807
88578784605886,-1.2094848999999999,11.802657,5.429509599999999
88578804462782,1.8106349,14.01805,13.606107000000002
88578824319678,4.3230104,11.60387,5.846243
88578844176702,1.9854711999999999,8.878338000000001,-4.366121
88578864033598,0.20357667,7.391031,-1.2502003000000002
88578883890462,-0.21315674,9.407638,2.7255323
88578903747358,0.3161426,14.243182000000001,3.5925295
88578923604254,1.0801538,17.660875,0.33769777
88578943461150,-2.7303224,15.450272,-4.88584
88578963318174,-4.864285,11.424244,-2.6321266
88578983180738,-2.5147705,7.082072999999999,0.87178713
88579003037762,-2.7159522000000003,5.6522464999999995,2.2944287999999995
88579022894786,-2.8764186,8.468789,-1.7747096000000002
88579042751810,-0.46463382,11.747571,-2.9338992000000004
88579062608834,1.1112891000000003,13.119917999999998,-3.7098854
88579082461835,1.3292358999999998,11.6876955,-3.4464333
88579102321328,-0.34727785,10.085427000000001,0.8430469
88579122178225,-1.6908839,9.448353,3.3889527000000004
88579142035120,-2.5004005,9.845925,1.2022998
88579161892016,-1.2549903,8.5119,-0.488584
88579181754879,-0.5460645000000001,9.022039,-1.4753321000000001
88579201611775,-0.29698244,10.5692215,-1.9711011999999999
88579221468799,-0.20597169,10.724898,-0.7041358
88579241325823,-0.45744875,9.539363,0.45505372
88579261182848,-0.8813671999999999,9.486672,0.7089258
88579281043107,-1.1807446000000001,10.509346,1.3028906999999998
88579300900260,-1.2741505,10.6817875,1.0322535
88579320757285,-1.1256591999999999,9.898616,0.26584718
88579340614438,-0.49097902,9.060359,-0.9987232
88579360471463,-0.16525635,9.060359,-1.8896705000000003
88579380330834,-0.9651929,9.592053,-1.9016455
88579400187987,-1.9160157,11.218272,-1.0729688
88579420045140,-1.6142433,12.602592999999999,0.8143066999999999
88579439902293,-0.974773,11.776311999999999,0.9268726
88579459759446,-1.0609937,10.643467,-0.6490503000000001
88579479622901,-1.710044,9.134604,-1.9615209999999998
88579499480182,-2.189048,8.052056,-1.9567311
88579519337463,-1.5639478,8.143066000000001,-0.5125342
88579539194616,-0.3305127,8.998089,-0.13172609
88579559051897,0.30416748,9.877061,-0.84065187
88579578909178,0.19639161,10.562036500000001,-1.3483961000000002
88579598769809,-0.5508545,10.533297,-0.8909473
88579618627090,-1.0705738,10.36325,-0.040715333
88579638484499,-1.3268408999999999,10.380015,0.26105714
88579658341780,-1.6070582,10.224339,0.18920656
88579678199189,-1.7794994999999998,9.850716,0.10538086
88579698055768,-1.7172291000000002,9.606423,0.29698244
88579717913028,-1.3939015,9.601633999999999,0.24908204
88579737770309,-1.223855,9.228010000000001,0.081430666
88579757627718,-1.0609937,9.072334,-0.2083667
88579777484999,-0.7759864000000001,9.455538,-0.49097902
88579797344314,-0.6394701999999999,9.845925,-0.72569096
88579817201595,-0.5412744,9.683064,-0.7544312
88579837058871,-0.8095166,8.954978,-0.25147706
88579856916279,-1.3436059999999999,8.739427000000001,0.4622388
88579876773559,-1.6621436,8.976534,0.52690434
88579896636270,-1.8848804,9.601633999999999,0.3281177
88579916493806,-1.8345851000000002,10.042317,0.60833496
88579936351342,-1.3412110000000002,10.269844,0.48379397
88579956209006,-0.83586186,10.36325,-0.20118165
88579976066542,-0.6945557,10.317744,-0.5939649
88579995926217,-0.69216067,10.327325,-0.39996827
88580015783881,-0.79754156,10.308164999999999,0.16046631
88580035641545,-1.2933106,9.860296,0.1341211
88580055499081,-1.7699194999999999,9.393267,-0.07903565
88580075356745,-1.8274,9.13221,-0.5340894
88580095219517,-1.5567628,9.359736,-0.90771246
88580115077309,-1.2022998,9.807606,-0.79035646
88580134935101,-0.92926764,9.920172,-0.7711963000000001
88580154792893,-0.9699829,9.812395,-0.8646021
88580174650557,-1.2334352,9.75252,-0.8813671999999999
88580194510379,-1.4346168,9.72378,-0.95561284
88580214368171,-1.5208374,9.651928999999999,-0.8933423
88580234226092,-1.6070582,9.601633999999999,-0.81909674
88580254083885,-1.6453785,9.489068,-0.8143066999999999
88580273941675,-1.5663428,9.429193,-0.97956306
88580293800071,-1.2813355,9.489068,-1.0921290000000001
88580313657863,-1.0035132,9.472302,-1.0514137
88580333515783,-0.88376224,9.529783,-1.099314
88580353373575,-0.8262818000000001,9.630374,-1.1496094
88580373231495,-0.85023195,9.857901,-1.1160791
88580393069825,-0.87418216,9.79084,-1.0729688
88580412927233,-0.9412427,9.718989,-1.1112891000000003
88580432784641,-1.0873389,9.72857,-0.974773
88580452642049,-1.2789403999999998,9.6615095,-0.6658155
88580472499458,-1.3028906999999998,9.611214,-0.7185059
88580492352825,-1.0274634,9.632769,-0.9532178
88580512210105,-0.87897223,9.75731,-1.214275
88580532067385,-0.9436377,9.759705,-1.2166698999999999
88580551924665,-1.0585986,9.637559,-1.0106983
88580571782073,-1.0562036,9.498648,-0.9196875
88580591630259,-1.0442286,9.577683,-1.0202783000000002
88580611487411,-1.1280543,9.735755000000001,-1.0657837
88580631344563,-1.1639795,9.836346,-0.97237796
88580651201715,-1.1304493,9.848321,-0.91010743
88580671058867,-1.1041040000000002,9.795630000000001,-0.8981324
88580690908547,-1.0106983,9.707015,-0.99393314
88580710765443,-0.97237796,9.687855,-1.0106983
88580730622339,-0.9987232,9.75731,-1.0178833
88580750479363,-1.0849438999999999,9.683064,-0.9388476999999998
88580770336259,-1.1807446000000001,9.721385,-0.90771246
88580790198007,-1.0921290000000001,9.656719,-0.974773
88580810055031,-0.974773,9.64714,-1.1448194
88580829912055,-0.974773,9.611214,-1.2382251
88580849769079,-1.0705738,9.558523,-1.2022998
88580869626103,-1.1376343,9.599238,-1.1759547
88580889481762,-1.1807446000000001,9.702225,-1.1591895
88580909338786,-1.2046948999999998,9.77168,-1.1328443000000001
88580929195682,-1.1687696,9.853110000000001,-1.101709
88580949052706,-1.0921290000000001,9.625584,-1.1448194
88580968909602,-1.1376343,9.656719,-1.1711646
88580988767449,-1.1376343,9.601633999999999,-1.101709
88581008624345,-1.0466236,9.68067,-1.0705738
88581028481241,-1.0083033000000001,9.635164,-1.1472143999999997
88581048338137,-1.094524,9.742939999999999,-1.1232642
88581068195033,-1.0753639,9.6615095,-1.1064991000000002
88581088051474,-1.0801538,9.687855,-1.096919
88581107908370,-1.0705738,9.558523,-1.1304493
88581127765394,-0.9580079,9.503438000000001,-1.1759547
88581147622290,-0.9532178,9.570497999999999,-1.1807446000000001
88581167479186,-1.0466236,9.697434,-1.1160791
88581187337182,-1.0298585,9.699829,-1.0849438999999999
88581207194078,-1.0370435,9.68067,-1.1400293
88581227051102,-1.099314,9.72378,-1.099314
88581246907998,-1.0921290000000001,9.630374,-1.0418334999999999
88581266764894,-1.1136841999999998,9.649534,-1.0130934
88581286628312,-1.0921290000000001,9.639954,-1.0394385
88581306485336,-1.0705738,9.558523,-1.0585986
88581326342360,-0.99393314,9.6615095,-1.1376343
88581346199384,-1.0849438999999999,9.74773,-1.1256591999999999
88581366056408,-1.1543995,9.800421,-1.0035132
88581385917271,-1.1472143999999997,9.517808,-0.9627979
88581405774423,-1.1759547,9.493857,-1.0250684
88581425631447,-1.1376343,9.707015,-0.99393314
88581445488599,-1.0442286,9.697434,-1.0418334999999999
88581465345623,-1.0490186000000001,9.651928999999999,-1.0298585
88581485207176,-1.1064991000000002,9.68067,-1.0657837
88581505064328,-1.0729688,9.692644,-0.9915381
88581524921480,-1.0059083,9.644744000000001,-0.9627979
88581544778632,-1.0873389,9.558523,-1.0298585
88581564635784,-1.1280543,9.580078,-1.0322535
88581584497556,-1.0322535,9.644744000000001,-1.0226734
88581604354836,-1.0657837,9.7142,-0.94603276
88581624212244,-1.0442286,9.733359,-1.0394385
88581644069524,-1.0298585,9.577683,-1.0801538
88581663926804,-1.099314,9.635164,-1.0514137
88581683791965,-1.1567944,9.651928999999999,-1.0059083
88581703649501,-1.1400293,9.695039999999999,-1.0442286
88581723507037,-1.1184741000000002,9.7621,-1.0394385
88581743364573,-1.1184741000000002,9.72378,-1.0729688
88581763221981,-1.0705738,9.580078,-1.0873389
88581783089424,-1.1496094,9.486672,-1.0226734
88581802947216,-1.1567944,9.568104,-1.0609937
88581822805008,-1.1567944,9.6686945,-1.0394385
88581842662800,-1.1256591999999999,9.77168,-1.0106983
88581862520464,-0.98914313,9.802814999999999,-1.1184741000000002
88581882376407,-1.0562036,9.769285,-1.1615845
88581902234199,-1.094524,9.72378,-1.1208692
88581922091991,-1.0921290000000001,9.419611999999999,-0.9699829
88581941949911,-1.1472143999999997,9.388477,-1.1208692
88581961807703,-1.2957056999999998,9.594449000000001,-1.0394385
88581981661137,-1.1184741000000002,9.699829,-1.101709
88582001518929,-0.9915381,9.707015,-1.1184741000000002
88582021376593,-1.0346485,9.704619000000001,-1.2382251
88582041234385,-1.0490186000000001,9.721385,-1.3388159
88582061092049,-1.1543995,9.678274,-1.2166698999999999
88582080947316,-1.331631,9.572892999999999,-1.0250684
88582100804980,-1.3292358999999998,9.539363,-1.0585986
88582120662772,-1.2070899,9.599238,-1.1783496
88582140520436,-1.1136841999999998,9.671089,-1.2789403999999998
88582160378228,-1.099314,9.690249,-1.2358301999999999
88582180228754,-1.1280543,9.642349000000001,-1.1783496
88582200086162,-1.1280543,9.496253,-1.2118799999999998
88582219943698,-1.1975098,9.532178,-1.2789403999999998
88582239801234,-1.2454101999999998,9.627979,-1.2310401000000002
88582259658770,-1.2094848999999999,9.651928999999999,-1.2094848999999999
88582279522675,-1.1783496,9.6615095,-1.2070899
88582299380339,-1.1400293,9.678274,-1.2693603999999998
88582319237875,-1.1160791,9.678274,-1.3436059999999999
88582339095539,-1.1831397,9.604028999999999,-1.2549903
88582358953203,-1.22625,9.505833,-1.1855347
88582378814303,-1.2286451,9.608819,-1.22625
88582398671967,-1.2118799999999998,9.702225,-1.2286451
88582418529631,-1.1520045,9.754914999999999,-1.2334352
88582438387423,-1.0729688,9.637559,-1.2957056999999998
88582458245087,-1.0921290000000001,9.577683,-1.3268408999999999
88582478095467,-1.1663746000000002,9.606423,-1.2621753
88582497953131,-1.1759547,9.565708,-1.1903248
88582517810667,-1.2094848999999999,9.606423,-1.2310401000000002
88582537668203,-1.1951148999999999,9.663903999999999,-1.3100758
88582557525739,-1.1328443000000001,9.690249,-1.3028906999999998
88582577376277,-1.0154883,9.592053,-1.2478052
88582597233813,-1.0921290000000001,9.532178,-1.2525953
88582617091222,-1.1591895,9.546548,-1.3052857
88582636948631,-1.0753639,9.620794,-1.3962965
88582656806037,-1.0418334999999999,9.671089,-1.2502003000000002
88582676658110,-1.0202783000000002,9.695039999999999,-1.2406201000000001
88582696515390,-1.0873389,9.649534,-1.2789403999999998
88582716372670,-1.1041040000000002,9.704619000000001,-1.3244458000000001
88582736229822,-1.1256591999999999,9.594449000000001,-1.3148658000000002
88582756087102,-1.1591895,9.522598,-1.2933106
88582775944382,-1.1639795,9.560919,-1.2549903
88582795803868,-1.1543995,9.637559,-1.2813355
88582815661148,-1.1088941,9.707015,-1.3531861
88582835518428,-1.1951148999999999,9.695039999999999,-1.3028906999999998
88582855375708,-1.1567944,9.64714,-1.2166698999999999
88582875232988,-1.0538087,9.627979,-1.2094848999999999
88582895085836,-1.1256591999999999,9.627979,-1.2717555
88582914942988,-1.1711646,9.623189,-1.2741505
88582934800140,-1.1711646,9.64714,-1.1711646
88582954657292,-1.1088941,9.692644,-1.2070899
88582974514572,-1.0729688,9.702225,-1.2621753
88582994373874,-1.0753639,9.616004,-1.2430152
88583014231026,-1.0849438999999999,9.479486999999999,-1.2693603999999998
88583034088306,-1.1256591999999999,9.616004,-1.2837305
88583053945458,-1.1591895,9.68067,-1.2741505
88583073802610,-1.1184741000000002,9.759705,-1.1927198
88583093653319,-1.1184741000000002,9.642349000000001,-1.2022998
88583113515957,-1.1184741000000002,9.635164,-1.2573853000000002
88583133373109,-1.0657837,9.651928999999999,-1.2310401000000002
88583153230133,-1.0729688,9.5561285,-1.2334352
88583173087285,-1.1567944,9.5633135,-1.1663746000000002
88583192947088,-1.1136841999999998,9.594449000000001,-1.1304493
88583212804240,-0.9987232,9.651928999999999,-1.1855347
88583232661393,-1.0106983,9.704619000000001,-1.2502003000000002
88583252518546,-1.0705738,9.745335,-1.223855
88583272375571,-1.0777588,9.639954,-1.094524
88583292232814,-1.0633887,9.5633135,-1.1208692
88583312089967,-1.0777588,9.606423,-1.1400293
88583331947114,-1.0562036,9.733359,-1.1520045
88583351804266,-1.0633887,9.702225,-1.0873389
88583371661290,-1.0178833,9.671089,-1.1424243
88583391521983,-0.96758795,9.649534,-1.1975098
88583411379135,-1.0370435,9.7142,-1.0657837
88583431236415,-1.0633887,9.740545,-1.0059083
88583451093695,-1.0873389,9.644744000000001,-1.0274634
88583470950847,-0.9963281999999999,9.740545,-1.089734
88583490808925,-0.92926764,9.666299,-1.1041040000000002
88583510666205,-0.92926764,9.623189,-1.1280543
88583530523357,-0.974773,9.580078,-1.0801538
88583550380637,-0.9699829,9.544153,-0.99393314
88583570237789,-0.90052736,9.587264,-1.0250684
88583590094910,-0.9508228000000001,9.704619000000001,-1.0250684
88583609952190,-0.95561284,9.73815,-1.0083033000000001
88583629809342,-0.91250247,9.800421,-0.90052736
88583649666494,-0.93405765,9.730965,-0.92208254
88583669523774,-0.90052736,9.637559,-0.9580079
88583689380784,-0.84065187,9.599238,-0.9436377
88583709237936,-0.93405765,9.623189,-0.94603276
88583729095088,-0.98914313,9.644744000000001,-0.90771246
88583748952240,-0.9364527,9.683064,-0.92208254
88583768809392,-0.8861573,9.812395,-0.9915381
88583788672956,-0.91010743,9.6758795,-1.0083033000000001
88583808530236,-0.89573735,9.580078,-0.974773
88583828387516,-0.9412427,9.529783,-0.97956306
88583848244796,-1.0490186000000001,9.651928999999999,-1.0178833
88583868102076,-1.0346485,9.711803999999999,-0.90771246
88583887963756,-1.0202783000000002,9.687855,-0.87178713
88583907821164,-0.9580079,9.697434,-0.96040285
88583927678700,-0.93405765,9.7812605,-0.9699829
88583947536108,-0.8933423,9.72857,-0.9029224
88583967393516,-0.88376224,9.577683,-0.90771246
88583987254916,-0.9867481,9.654325,-0.91010743
88584007112452,-1.0011181999999998,9.726174,-0.8669971
88584026970116,-0.9484278,9.81958,-0.9244776
88584046827652,-0.8981324,9.783655,-0.9532178
88584066685188,-0.8933423,9.683064,-0.94603276
88584086542858,-0.855022,9.618399,-0.89573735
88584106400394,-0.8933423,9.570497999999999,-0.9532178
88584126258058,-1.0418334999999999,9.639954,-0.9627979
88584146115594,-1.0226734,9.841136,-0.8669971
88584165973130,-0.8885523000000001,9.788445,-0.8669971
88584185827722,-0.84544194,9.68067,-1.0202783000000002
88584205685131,-0.87178713,9.546548,-1.1088941
88584225542666,-0.9867481,9.560919,-0.97237796
88584245400202,-0.9580079,9.64714,-0.8885523000000001
88584265257610,-1.0322535,9.716595,-0.9436377
88584285119779,-0.977168,9.845925,-1.096919
88584304977443,-0.9029224,9.702225,-0.9316626
88584324834980,-0.8143066999999999,9.6615095,-1.0466236
88584344692517,-0.96758795,9.683064,-1.0083033000000001
88584364550182,-0.9580079,9.663903999999999,-0.977168
88584384408955,-0.99393314,9.630374,-0.8765772
88584404266620,-1.0083033000000001,9.654325,-0.9627979
88584424124285,-0.8861573,9.750125,-1.0394385
88584443981950,-0.8310718,9.733359,-1.0083033000000001
88584463839615,-0.9388476999999998,9.608819,-1.0035132
88584483687648,-1.0035132,9.584868,-0.9915381
88584503545185,-0.977168,9.637559,-0.97237796
88584523402594,-0.97956306,9.678274,-0.96758795
88584543260131,-0.9532178,9.6686945,-0.97956306
88584563106782,-0.9316626,9.718989,-0.9580079
88584582964063,-0.8861573,9.848321,-0.9699829
88584602821344,-0.9244776,9.798025,-0.9915381
88584622678625,-0.9412427,9.656719,-0.9987232
88584642535906,-0.99393314,9.455538,-0.9580079
88584662393187,-0.9867481,9.503438000000001,-0.977168
88584682241502,-1.0274634,9.70941,-0.9436377
88584702098527,-0.92926764,9.788445,-0.9580079
88584721955552,-0.91250247,9.683064,-0.99393314
88584741812577,-0.9196875,9.683064,-1.0538087
88584761669602,-0.9148975,9.7740755,-1.0346485
88584781522752,-0.92208254,9.690249,-0.974773
88584801379776,-1.0322535,9.587264,-0.91010743
88584821236673,-1.1136841999999998,9.6615095,-0.91729254
88584841093696,-0.96758795,9.7740755,-0.9580079
88584860950054,-0.8909473,9.783655,-0.974773
88584880806951,-0.8813671999999999,9.649534,-1.0130934
88584900663846,-1.0059083,9.5633135,-0.9532178
88584920520742,-1.0011181999999998,9.599238,-0.8861573
88584940377639,-0.98435307,9.7812605,-0.91250247
88584960234534,-0.9963281999999999,9.788445,-0.9651929
88584980095361,-0.9532178,9.821976,-0.9651929
88584999952258,-0.9364527,9.656719,-0.8933423
88585019809281,-0.9268726,9.594449000000001,-1.0274634
88585039666177,-1.0059083,9.599238,-0.9484278
88585059523074,-1.0011181999999998,9.6615095,-0.9148975
88585079378963,-1.0106983,9.704619000000001,-0.855022
88585099235859,-0.9484278,9.733359,-0.9627979
88585119092756,-0.86220706,9.692644,-1.0130934
88585138949651,-0.87897223,9.687855,-0.98914313
88585158808216,-0.96758795,9.673484,-0.9029224
88585178665113,-0.98435307,9.592053,-0.8646021
88585198522008,-0.98195803,9.630374,-0.8981324
88585218379032,-0.9867481,9.82437,-0.9508228000000001
88585238235929,-0.91729254,9.783655,-0.977168
88585258092824,-0.9053174,9.699829,-0.9364527
88585277960056,-0.8813671999999999,9.632769,-0.977168
88585297817081,-0.91010743,9.572892999999999,-1.0226734
88585317674232,-1.0154883,9.635164,-0.8861573
88585337531384,-1.0178833,9.654325,-0.855022
88585357388409,-0.94603276,9.730965,-0.9364527
88585377243824,-0.85023195,9.83874,-1.0178833
88585397100977,-0.86939216,9.841136,-0.99393314
88585416958130,-0.91010743,9.742939999999999,-0.8981324
88585436815155,-0.9867481,9.546548,-0.91250247
88585456672360,-1.0538087,9.491463000000001,-0.9196875
88585476529513,-1.0346485,9.623189,-0.93405765
88585496386666,-0.98914313,9.72857,-0.87418216
88585516243691,-0.8861573,9.740545,-0.9268726
88585536100844,-0.855022,9.716595,-0.9532178
88585555957997,-0.8669971,9.745335,-0.98914313
88585575815430,-0.9915381,9.70941,-0.8933423
88585595672583,-1.0609937,9.594449000000001,-0.8885523000000001
88585615529736,-1.0562036,9.596844,-0.8981324
88585635386889,-0.9699829,9.687855,-0.9532178
88585655244042,-0.855022,9.70941,-0.9508228000000001
88585675103419,-0.8885523000000001,9.716595,-0.92926764
88585694960572,-0.9029224,9.687855,-0.94603276
88585714817853,-0.98435307,9.5489435,-0.9148975
88585734675006,-1.0322535,9.620794,-0.9053174
88585754532159,-1.0059083,9.750125,-0.84065187
88585774389440,-0.8861573,9.850716,-0.9915381
88585794250812,-0.94603276,9.764495,-0.974773
88585814108092,-0.9508228000000001,9.64714,-0.93405765
88585833965373,-0.9148975,9.558523,-0.86220706
88585853822652,-0.977168,9.608819,-0.9244776
88585873690131,-1.0466236,9.671089,-0.9580079
88585893547668,-1.0346485,9.697434,-0.8646021
88585913405331,-0.8909473,9.872271000000001,-0.9388476999999998
88585933262867,-0.8909473,9.898616,-1.0514137
88585953120532,-0.8981324,9.7621,-0.99393314
88585972982136,-0.98914313,9.539363,-0.8430469
88585992839928,-1.0705738,9.402847,-0.8885523000000001
88586012697593,-1.1232642,9.486672,-0.85023195
88586032555384,-1.0250684,9.651928999999999,-0.85023195
88586052413048,-0.8861573,9.740545,-0.9364527
88586072270841,-0.855022,9.77647,-1.0322535
88586092126122,-0.85023195,9.7142,-1.0442286
88586111983786,-0.9053174,9.651928999999999,-1.0106983
88586131841451,-0.98195803,9.604028999999999,-0.9364527
88586151699242,-1.0442286,9.596844,-0.91250247
88586171558686,-1.0609937,9.683064,-0.9196875
88586191416351,-1.0322535,9.75252,-0.8933423
88586211274016,-0.92926764,9.718989,-0.9268726
88586231131678,-0.90771246,9.702225,-0.96040285
88586250989471,-0.86220706,9.611214,-1.0202783000000002
88586270847134,-0.9484278,9.604028999999999,-0.98914313
88586290707314,-1.0059083,9.716595,-0.9053174
88586310565107,-0.9627979,9.73815,-0.8981324
88586330422770,-0.90771246,9.745335,-0.9987232
88586350280563,-0.91010743,9.6615095,-1.0538087
88586370138228,-0.9508228000000001,9.721385,-1.0298585
88586389990163,-0.9627979,9.659114,-0.86220706
88586409847828,-0.9436377,9.568104,-0.9508228000000001
88586429705365,-1.0130934,9.5561285,-1.0226734
88586449562902,-0.9987232,9.72378,-1.0418334999999999
88586469411521,-0.9412427,9.807606,-0.9412427
88586489268930,-0.9148975,9.81,-0.9699829
88586509126339,-0.96758795,9.630374,-1.0250684
88586528983748,-0.98435307,9.577683,-0.97956306
88586548841157,-0.9580079,9.6758795,-0.92926764
88586568698566,-0.98914313,9.711803999999999,-0.90052736
88586588547489,-0.974773,9.7740755,-1.0035132
88586608404770,-0.9412427,9.778865,-0.9627979
88586628262051,-0.8646021,9.7142,-1.0011181999999998
88586648119332,-0.9148975,9.577683,-0.9532178
88586667976613,-0.9364527,9.534574000000001,-0.98914313
88586687828456,-1.0394385,9.596844,-0.9627979
88586707685481,-1.0538087,9.72857,-0.9316626
88586727542634,-0.9580079,9.874666,-0.974773
88586747399787,-0.8813671999999999,9.7812605,-1.0035132
88586767256940,-0.90771246,9.702225,-1.0681788
88586787113965,-1.0106983,9.735755000000001,-0.9148975
88586806977464,-0.9867481,9.625584,-0.9316626
88586826834744,-1.0849438999999999,9.639954,-0.94603276
88586846692025,-1.0035132,9.642349000000001,-0.9915381
88586866549176,-0.9580079,9.632769,-0.98914313
88586886404367,-0.95561284,9.678274,-0.9963281999999999
88586906261648,-0.977168,9.620794,-0.95561284
88586926118927,-0.98195803,9.678274,-1.0298585
88586945976079,-1.0202783000000002,9.72857,-0.96758795
88586965833360,-1.0202783000000002,9.697434,-1.0178833
88586985685684,-1.0274634,9.77168,-0.9699829
88587005542708,-0.9699829,9.75252,-1.0178833
88587025399861,-0.9987232,9.704619000000001,-1.0035132
88587045257012,-1.0274634,9.685459,-0.9987232
88587065114036,-1.0011181999999998,9.541758999999999,-0.9867481
88587084971189,-0.97956306,9.534574000000001,-1.0394385
88587104826975,-1.0346485,9.644744000000001,-0.9316626
88587124684127,-1.0106983,9.7812605,-0.96040285
88587144541152,-0.9508228000000001,9.788445,-1.0035132
88587164398175,-0.9436377,9.685459,-1.0514137
88587184260429,-0.98914313,9.7142,-1.0011181999999998
88587204117582,-0.9963281999999999,9.608819,-0.8933423
88587223973329,-1.0609937,9.570497999999999,-0.977168
88587243830482,-1.0418334999999999,9.632769,-0.9508228000000001
88587263687507,-0.91250247,9.606423,-1.0059083
88587283548896,-0.87897223,9.673484,-0.98195803
88587303406048,-0.87178713,9.642349000000001,-1.0059083
88587323263073,-0.9268726,9.613608000000001,-1.0250684
88587343120224,-0.98435307,9.608819,-0.9316626
88587362977376,-0.97956306,9.699829,-0.89573735
88587382834529,-0.9963281999999999,9.83874,-0.8382569
88587402689298,-0.9508228000000001,9.872271000000001,-0.90052736
88587422546451,-0.9196875,9.817185,-0.8813671999999999
88587442403476,-0.8765772,9.74773,-0.8478370000000001
88587462260629,-0.91250247,9.644744000000001,-0.84544194
88587482118742,-0.9627979,9.584868,-0.8909473
88587501975895,-1.0011181999999998,9.632769,-0.8478370000000001
88587521833048,-0.91250247,9.750125,-0.8861573
88587541690201,-0.84065187,9.7812605,-0.91010743
88587561547354,-0.8598120000000001,9.683064,-0.96040285
88587581395347,-0.90771246,9.778865,-0.8598120000000001
88587601252244,-0.8861573,9.656719,-0.8047266
88587621109269,-0.9388476999999998,9.618399,-0.9244776
88587640966166,-0.98435307,9.683064,-0.8885523000000001
88587660823191,-0.90052736,9.656719,-0.8286768
88587680680088,-0.8334668,9.72378,-0.86939216
88587700545439,-0.8095166,9.68067,-0.86939216
88587720402464,-0.8430469,9.604028999999999,-0.9364527
88587740259617,-0.87897223,9.632769,-0.86939216
88587760116770,-0.92926764,9.716595,-0.87178713
88587779986663,-0.9580079,9.759705,-0.87418216
88587799844072,-0.91250247,9.759705,-0.8598120000000001
88587819701481,-0.8813671999999999,9.707015,-0.9244776
88587839558869,-0.8981324,9.73815,-0.9316626
88587859416406,-0.9268726,9.671089,-0.86939216
88587879273813,-0.9915381,9.589659,-0.8861573
88587899136834,-1.0202783000000002,9.570497999999999,-0.88376224
88587918994499,-0.9388476999999998,9.704619000000001,-0.90771246
88587938852034,-0.8813671999999999,9.817185,-0.9196875
88587958709698,-0.9268726,9.769285,-0.9388476999999998
88587978567363,-0.9436377,9.64714,-0.91010743
88587998426099,-0.97956306,9.697434,-0.8981324
