UPTIMENANO,Ax,Ay,Az
88533648627124,1.0730062,-1.0557414,11.313093
88533668484404,1.3114467,-1.1080021,11.300676
88533688341557,-0.2863315,0.41201836,10.833244
88533708207534,-1.0055505,0.88772947,10.845855
88533728064942,-1.2567198,0.8082679,11.068717
88533747922223,-0.8354532,0.8830643,10.216425
88533767779630,0.23405345,0.13436735,10.061674
88533787646650,1.3418486,-0.21241952,10.977803
88533807504187,1.2109216,-0.17159335,11.252741
88533827361850,0.6021513,-0.5357647,10.3269415
88533847219386,0.037007753,-0.5650102,10.14196
88533867077051,-0.2919317,-0.23012222,10.355457
88533886934586,-0.19816238,-1.9114171,9.2436695
88533906803666,-0.44437507,-2.8084009,7.7607656
88533926661587,-1.0641203,-2.1803184,7.450571
88533946519506,-1.3588823,-0.7944506,8.080224
88533966377426,-0.7544005,-0.14692445,8.654754
88533986235347,0.26258418,-0.43787605,8.687401
88534006099158,0.9892848,-1.0634447,8.7936125
88534025957206,1.2234317,-1.8456589,8.682937
88534045815255,0.86799806,-1.7113461,8.908754
88534065673430,0.45372915,-1.066284,9.779013
88534085531478,0.122917145,-0.7300678,10.093648
88534105389655,-0.31082565,-0.91209143,9.739129
88534125247049,-0.8428258,-1.0573432,9.534627
88534145105225,-1.4639121,-0.840498,9.412012
88534164963402,-1.4199998,-1.0107539,10.162779
88534184821577,0.083044104,-0.86239463,11.709351
88534204681713,1.322796,-0.970948,12.770272
88534224539890,2.0368843,-1.8758718,12.538962
88534244398065,1.5184944,-2.3611834,11.226976
88534264256241,0.82925063,-2.831317,10.282788
88534284114418,1.2323612,-2.4169934,10.36607
88534303967185,2.68433,-1.5043852,11.565144
88534323825233,3.1447642,-0.96798337,11.2006645
88534343683410,1.983532,-1.8916408,10.129483
88534363541457,1.3176172,-1.0513371,11.034366
88534383399505,3.026608,0.7804789,12.732237
88534403257554,3.605391,0.57511675,12.368441
88534423114437,2.7552185,-0.11859323,11.59952
88534442972613,3.0240493,-0.16580175,11.123744
88534462830662,2.7798095,-0.9494765,9.599759
88534482688837,1.3765473,-0.6447855,8.27804
88534502542486,0.2785385,-0.16506588,7.245606
88534522400535,-0.67510456,-0.20237198,6.650883
88534542258582,-0.3420355,-0.54466486,5.972652
88534562116630,0.35769185,-0.09492662,6.2897673
88534581974679,-0.3548864,0.12651296,8.642143
88534601831436,-1.5176597,0.19637428,8.387647
88534621689356,-2.0146277,-1.2815626,7.254268
88534641547277,-2.3034875,-1.3148937,7.8743143
88534661405196,-1.4768643,-0.78582996,9.606989
88534681263116,-1.0647836,-0.28765646,10.339631
88534701121037,-1.6707894,-0.22977142,10.790753
88534720968405,-0.36479715,0.07619491,11.859008
88534740825941,-0.046070367,-0.14697352,12.658952
88534760683478,0.3041498,-0.075905286,12.985787
88534780541013,-1.3164899,2.393063,12.344711
88534800395721,-0.035207,1.6346891,13.484914
88534820253258,1.7043866,1.0656381,14.179142
88534840110793,1.4544387,1.2666852,12.926902
88534859968201,-0.64024615,1.1947376,11.637117
88534879825738,-0.818112,-0.060745154,10.703584
88534899683273,-0.39151096,-0.8811569,9.348918
88534919536183,-0.54950774,0.2807884,8.248531
88534939393464,0.06432685,-0.696464,6.9394794
88534959250871,0.7678265,-0.8490384,6.2677665
88534979108279,0.057381142,-1.4670672,5.994419
88534998965688,-0.09686952,-2.4673858,8.171039
88535018826307,-1.1907715,-1.3398265,7.5277195
88535038683587,-1.3468208,-1.2799299,6.217847
88535058540996,-1.258679,-1.6684097,6.3057365
88535078398403,-1.4852734,-1.351232,7.296791
88535098250429,-0.49994415,-1.3599598,7.9974837
88535118107582,-0.41133752,-1.466526,7.0576053
88535137964861,1.2546161,-1.7319324,5.9468713
88535157822141,2.3252783,-0.8116295,7.3744664
88535177679294,2.7164664,0.7429447,10.276771
88535197536573,2.3011966,1.4103609,13.13985
88535217394932,1.8044431,1.444951,15.166372
88535237252085,0.94642156,1.380952,15.413085
88535257109236,-0.86227036,0.8337046,14.45084
88535276966516,-0.43754858,1.1210015,11.734394
88535296823669,-0.16923612,2.244377,10.106636
88535316680570,-0.6760309,4.5087657,10.616756
88535336537850,-1.438654,6.320515,11.054083
88535356395003,-1.4173046,6.8392015,10.49582
88535376252282,-1.0010613,5.4065933,9.727657
88535396111543,0.8928993,3.2249658,9.529117
88535415968824,2.7781563,0.9879589,9.695425
88535435826103,3.5093627,-0.5923921,9.835048
88535455683255,3.631144,-1.2022883,9.71743
88535475540536,4.080954,-2.4485512,10.535624
88535495397815,3.1513097,-3.84706,9.660691
88535515262464,1.6699065,-3.3740602,6.7824044
88535535119873,-0.29516527,1.2759323,1.5628759
88535554977280,-1.7728106,3.330034,4.504545
88535574834688,-1.6162528,4.931619,7.3071303
88535594692097,-0.7838385,4.2929482,8.863679
88535614549097,1.4836419,0.9479933,11.076506
88535634406505,2.0982487,-3.5082574,10.732607
88535654263913,-1.6601753,-11.384686,1.9061934
88535674121449,-1.1607927,0.25115225,1.0456202
88535693978857,-0.76157135,3.8248398,11.188898
88535713835404,-2.014136,0.7344547,10.679867
88535733692812,-3.227272,0.0822134,7.0835695
88535753550092,-4.5440907,1.8385742,9.090952
88535773407500,-3.9715981,3.058883,9.251512
88535793264908,-2.0826588,4.5305533,7.6319575
88535813122133,-0.731247,4.904403,6.787219
88535832979669,0.44763833,4.87154,5.7468843
88535852837077,1.4671279,6.131786,6.711989
88535872694613,2.8116152,8.001261,9.769574
88535892552021,3.208636,6.978848,10.090329
88535912408300,1.6203171,5.219348,7.239211
88535932265836,0.027912382,4.8916607,7.4031277
88535952123244,2.045827,3.444142,12.539173
88535971980780,4.7031746,2.4927156,14.423126
88535991838188,5.29439,1.244967,13.14913
88536011700198,4.1633377,-1.120523,11.900957
88536031557862,2.8342645,-2.764354,10.810093
88536051415398,3.0613234,-5.1973515,11.624997
88536071272934,5.0986667,-5.8338814,11.560501
88536091130470,1.1369494,-4.282322,10.489281
88536110992053,-0.9221844,-3.713505,10.552398
88536130849717,-0.5867146,-2.8976586,11.8358345
88536150707381,-0.0022147708,-3.9817932,12.51121
88536170565045,0.25002536,-5.5889153,13.31895
88536190422581,3.9900384,-9.111582,15.759678
88536210285895,-3.435517,-11.104264,17.47226
88536230143687,-4.3402023,-2.6207824,16.862202
88536250001351,0.15089272,0.85462546,14.579749
88536269859015,-4.174054,-1.1411842,14.628709
88536289716807,-1.1812782,1.4097368,17.044739
88536309570942,-1.5498837,3.4550157,15.932976
88536329428606,-2.9491763,3.2765837,14.479178
88536349286142,-1.1766809,2.7104416,13.983845
88536369143806,-1.433581,1.555317,14.103537
88536389001470,4.166619,0.036923595,13.906396
88536408858823,4.8465376,1.2961278,10.90696
88536428716359,4.9343433,-4.032512,10.529359
88536448574023,3.3620973,-3.3274772,6.8339095
88536468431687,2.4975748,-4.2182903,4.637652
88536488289351,2.5174184,-5.258335,3.66797
88536508146264,-1.0900186,-2.6989224,0.06677682
88536528003928,-2.9372578,0.681696,-0.9945832
88536547861464,-0.73255396,0.5331594,1.6988109
88536567719128,0.861315,-0.6862594,5.0121183
88536587576664,0.5083835,-0.69397104,4.9152246
88536607439174,3.7967575,-4.182825,5.586979
88536627296838,7.298955,-8.1184025,6.714311
88536647154374,1.3329164,-2.9320285,7.953038
88536667012038,5.9732842,-2.7727575,11.279589
88536686869702,6.6532197,0.45255026,8.908261
88536706724647,4.8174253,-0.3230386,8.980186
88536726582183,2.724102,-1.5596749,15.09596
88536746439719,-2.223608,-1.7360052,14.361112
88536766297255,-3.5235372,1.1530945,12.986441
88536786154791,0.53161955,2.5837975,15.884951
88536806003701,4.129332,2.4225621,21.550934
88536825861109,7.219605,-2.0852263,25.339975
88536845718517,-2.995415,-4.151706,19.644432
88536865575925,-15.690948,-0.49103555,10.242399
88536885433333,-12.270747,7.1656475,6.0230374
88536905289127,-3.8528674,16.901894,5.6521864
88536925146535,-1.4234499,2.1006987,10.439375
88536945003815,0.6789042,-1.7814653,3.548857
88536964861223,3.1162004,-3.3959844,1.7354908
88536984718503,4.605376,-5.548596,3.6496944
88537004577220,3.6827192,-0.9833929,3.3711262
88537024434500,2.4462366,-0.14735469,1.329365
88537044291908,3.1720364,-0.892507,3.030362
88537064149316,2.339809,1.3370595,4.9039125
88537084006596,-1.647738,3.6907527,5.9864306
88537103864197,-3.1187308,3.4712055,5.51049
88537123721605,-3.0904722,5.6617446,5.9098
88537143579013,-5.75069,4.4658375,8.530056
88537163436421,-4.6335564,-1.7724321,5.9182034
88537183293829,-2.4771523,-0.39148748,5.4321947
88537203149584,-2.2880826,-1.880124,13.598714
88537223006864,-1.105364,-8.065999,18.22813
88537242864272,1.0140593,-5.648289,17.420319
88537262721552,-0.9992704,-0.075201,15.061511
88537282578960,-0.610197,3.62258,11.503057
88537302436910,0.0958098,6.830674,10.401915
88537322294190,-0.53702545,12.11578,18.918427
88537342151598,-6.209972,5.497141,17.42496
88537362008878,-5.8628693,-0.77310705,8.751526
88537381866286,-3.8976936,-4.309173,6.1391973
88537401722847,-3.977875,0.7629008,7.0685077
88537421580127,-3.197735,10.16556,11.114625
88537441437279,1.9404217,9.371514,13.895874
88537461294559,4.251345,-0.33939007,15.303955
88537481151839,3.5383165,-3.7250023,13.6739435
88537501008162,2.884287,-3.5359914,9.7771015
88537520865314,-1.3548748,-3.3420572,6.279235
88537540722594,-5.840182,0.29099578,3.7799118
88537560579746,-2.6511304,2.481077,6.421375
88537580436898,-0.4462405,4.7559986,7.8568916
88537600299450,-0.11605529,3.7501912,7.673836
88537620156730,3.4323053,1.8222518,9.069767
88537640014010,8.759787,1.6352301,9.597509
88537659871418,8.503172,-0.53391993,8.479889
88537679728698,-4.871644,-9.783037,10.484807
88537699590567,-6.929861,-6.168084,8.887666
88537719447975,2.1112435,3.8636944,8.762883
88537739305383,0.62680733,2.716362,8.795126
88537759162791,2.0722013,-3.0797586,7.600644
88537779020199,3.179103,-3.665241,9.661156
88537798887724,2.1480122,-3.7423394,11.122013
88537818745388,0.84616566,-2.4614265,10.811352
88537838603052,1.2201134,-0.81548953,9.656387
88537858460716,1.6163019,0.15356946,12.341024
88537878318380,0.76484543,1.329398,16.707094
88537898177403,-0.3635498,1.1151165,16.532433
88537918035067,-1.2639813,1.9830184,12.364892
88537937892859,-1.6572479,2.561426,11.247336
88537957750523,-2.1693494,2.691757,11.333817
88537977608315,-2.7145576,3.6917827,11.130683
88537997473134,-2.8329291,1.6444424,9.485416
88538017331054,-1.3662751,-4.846128,8.531401
88538037188974,0.58827484,-2.7888868,9.4888735
88538057046894,1.1248802,1.6695162,8.452465
88538076904814,0.5270533,3.4042563,9.0769415
88538096764428,1.929931,3.767144,10.005969
88538116622476,2.840276,2.420429,9.295271
88538136480396,1.2808474,1.0500078,8.0407
88538156338444,0.08561023,0.72242373,8.33549
88538176196364,-0.4789481,0.46904892,9.457551
88538196055221,-0.78247225,0.42298844,8.855902
88538215913269,-0.5732521,0.2886064,8.731384
88538235771317,-1.1250823,-0.3686818,10.241296
88538255629365,0.055330884,-2.2329297,12.179111
88538275487413,1.0444814,-6.0279627,13.15136
88538295351898,-0.23499721,-4.065205,11.597329
88538315210073,-0.6436443,2.3999898,8.654035
88538335068250,0.9480445,4.5442243,6.268044
88538354926425,0.71705645,3.3527606,6.7702765
88538374784601,-0.18859924,2.0712066,8.936448
88538394642905,-0.94076693,1.8319927,10.418747
88538414491516,-1.6353962,-0.8169255,12.799301
88538434349564,-1.6677288,-0.8469743,13.581111
88538454207484,0.65957177,1.7967263,10.767397
88538474065532,0.28440866,0.99419034,8.90132
88538493923452,-1.4692057,-0.4696903,8.879453
88538513776611,-1.6499343,0.06533302,8.847415
88538533634403,-0.70754474,1.5582922,9.308238
88538553492323,0.37683013,1.0455911,10.159835
88538573350243,1.1468885,-0.31042394,10.601233
88538593208163,1.7829263,-0.13613397,10.483336
88538613052598,1.7528443,0.3074733,10.05645
88538632910134,1.1275834,0.45095882,10.289015
88538652767670,0.41612256,0.9933503,10.20199
88538672625334,-0.14444363,1.6285019,9.353177
88538692482870,-0.20265332,2.131074,9.290997
88538712337948,-0.5507844,1.1564567,9.746955
88538732195484,-0.08401299,0.6695303,9.850133
88538752052893,0.7409277,1.2748731,10.038781
88538771910430,0.9499518,0.6390367,10.061133
88538791767836,0.7346098,-0.5183399,10.105622
88538811623220,0.33084804,-0.831047,10.380799
88538831480628,-0.10865882,-0.79816556,10.221199
88538851338036,-0.772391,-0.39392343,9.9689
88538871195316,-1.0211692,-0.4706679,9.3874035
88538891052724,-1.2197305,-0.6374925,9.25342
88538910906523,-0.30838335,-0.20694216,9.291049
88538930763803,0.574472,0.013328355,10.154548
88538950621083,0.7088213,-0.607767,10.801082
88538970478363,0.6745509,-0.8145371,10.929919
88538990335643,0.5955406,-0.27712363,10.213217
88539010196377,0.5508231,-0.038893577,9.393835
88539030053657,0.70716995,0.3819361,9.543659
88539049910937,0.84050196,0.67218775,9.490909
88539069768217,0.55476457,0.8814169,9.297535
88539089625497,0.13688129,0.5525131,9.42458
88539109480643,0.34503204,-0.23900473,9.611138
88539129337795,0.7605314,-0.8292296,9.851405
88539149195075,0.7237085,-1.1011246,10.181454
88539169052227,0.5708371,-0.61226785,10.262269
88539188909507,0.56680655,0.07078954,10.264507
88539208765798,0.5180683,0.25395527,9.995403
88539228623078,0.37699246,0.2713102,9.603401
88539248480230,0.20026489,0.48200384,9.586111
88539268337382,-0.14804757,0.3567861,9.573293
88539288194534,-0.4108174,0.07036865,9.460722
88539308058640,-0.19791508,-0.022547446,9.657599
88539327915920,0.1733209,-0.27342597,9.707105
88539347773201,0.47844917,-0.17903198,9.785907
88539367630482,0.5937731,0.09040874,9.759448
88539387487763,0.4726829,0.11346321,9.692985
88539407345090,0.27466878,-0.07619074,9.663368
88539427202371,0.1141998,-0.23779002,9.671398
88539447059652,0.042189553,-0.17822313,9.7061405
88539466916933,-0.008617623,-0.12587944,9.82066
88539486774214,-0.014628823,-0.20896699,9.888577
88539506637413,-0.12605208,-0.22477897,9.839609
88539526494694,-0.15532266,-0.14263612,9.776957
88539546352103,-0.090415396,-0.0070623886,9.879977
88539566209512,0.022743892,0.02170289,9.984302
88539586066921,0.21482228,-0.031161554,9.636472
88539605921878,0.21628161,-0.06474886,9.655477
88539625779159,-0.03053955,0.09638814,9.988185
88539645636568,-0.21713285,0.13147438,9.78563
88539665493977,-0.17070435,0.056565005,9.638812
88539685351386,-0.055778626,-0.046945285,9.690928
88539705211279,-0.12737505,0.05253043,10.040653
88539725068816,-0.18468092,0.07778438,9.857277
88539744926225,-0.23550197,0.12914455,9.918144
88539764783634,-0.12825827,0.17209706,9.925453
88539784641023,-0.15089957,0.07369645,9.69852
88539804509250,-0.014264678,-0.05727617,9.561644
88539824366914,0.10117572,-0.24374132,9.625566
88539844224706,0.2975306,-0.28312612,9.639711
88539864082370,0.35830653,-0.20638712,9.811604
88539883940034,0.3903441,-0.11357962,9.910708
88539903803539,0.23517077,-0.18614317,9.8617525
88539923661459,0.26358134,-0.35416308,9.78978
88539943519379,0.35042897,-0.36068416,9.713616
88539963377299,0.32365763,-0.2672643,9.779598
88539983235219,0.23131025,-0.09110864,9.705977
88540003102822,0.108315796,0.025176158,9.81998
88540022960998,0.06639482,0.028429162,9.770586
88540042819174,0.061524723,0.07269011,9.561118
88540062677350,0.07340224,-0.063288495,9.852011
88540082535398,-0.10609682,-0.027156798,9.708948
88540102391233,0.10409778,-0.007838548,9.67014
88540122249410,0.52533454,-0.17289509,9.857407
88540142107457,0.4514734,-0.3304795,9.870894
88540161965634,0.37635112,-0.18449767,9.819637
88540181823809,0.2938723,-0.10417619,9.702479
88540201681985,0.09905195,-0.19923663,9.808369
88540221531810,0.007113996,-0.20411316,9.858622
88540241389730,-3.1811406E-4,-0.041625895,9.799459
88540261247650,-0.12962559,0.062281735,9.671888
88540281105570,-0.14669171,0.10654905,9.782407
88540300963362,-0.036746975,-0.001136204,9.696244
88540320819996,0.113092005,-0.185762,9.616801
88540340677916,0.28084317,-0.18363748,9.745901
88540360535836,0.262935,-0.19160683,10.028265
88540380393628,0.21247563,-0.34876487,9.907639
88540400251548,0.16777472,-0.35773644,9.780903
88540420111307,0.13527796,-0.3500068,9.641477
88540439969227,0.17244957,-0.31068426,9.728669
88540459827147,0.07667744,-0.31551537,9.920959
88540479685067,0.056920983,-0.25273985,9.874752
88540499542987,0.09729324,-0.24474429,9.72703
88540519390557,0.12931965,-0.32709846,9.752569
88540539248221,0.29473385,-0.16988681,9.780614
88540559105885,0.24189033,-0.1611991,9.839827
88540578963549,0.12297154,-0.15641041,9.628157
88540598821341,-0.07625958,-0.07215666,9.6712475
88540618668667,-0.111488596,0.04748507,9.678109
88540638532737,-0.020387629,0.082421005,9.770617
88540658390273,0.1851559,0.04386631,9.89722
88540678247809,0.29407388,-0.021780672,9.797827
88540698105345,0.27524996,-0.02284693,9.710921
88540717963172,0.2363935,-0.082316354,9.785445
88540737820708,0.21389252,-0.11521987,9.701526
88540757678244,0.033724613,-0.3332226,9.673426
88540777535780,0.16080354,-0.22952446,9.717518
88540797393188,0.2546819,-0.2730132,9.754261
88540817244281,0.3057411,-0.31196445,9.856773
88540837101689,0.3218923,-0.28988954,9.927591
88540856958969,0.2169148,-0.23957661,9.79087
88540876816377,0.18043564,-0.20647524,9.623906
88540896673657,0.14769532,-0.14025521,9.656799
88540916534454,0.124410436,-0.13483106,9.671876
88540936391862,0.08273811,-0.16688985,9.750643
88540956249270,0.10128089,-0.11025867,9.760838
88540976106806,0.16665594,-0.04480393,9.822428
88540995964214,0.14105946,-0.063859865,9.812284
88541015821549,0.1743504,-0.102866374,9.641066
88541035678957,0.1127035,-0.12365877,9.53596
88541055536365,-0.048793342,-0.2746752,9.875049
88541075393773,0.21033119,-0.1750957,9.890291
88541095251053,0.21818122,-0.1715594,9.888836
88541115109017,0.15370841,-0.187361,9.763248
88541134966425,0.066312924,-0.21399102,9.601125
88541154823833,0.13333288,-0.22747985,9.706632
88541174681241,0.18867624,-0.21242365,9.784871
88541194538649,0.1015977,-0.22251257,9.832868
88541214390529,0.09194407,-0.072139814,9.829945
88541234247681,0.018207574,0.031015899,9.717685
88541254104961,0.019822707,-0.011148996,9.786794
88541273962113,-0.011416241,-0.12788221,9.804745
88541293819265,0.12262168,-0.07377281,9.818127
88541313649750,0.063924745,-0.058768205,9.801851
88541333506390,0.10126575,-0.09252957,9.811452
88541353363030,0.15034369,-0.08854493,9.740693
88541373219670,0.1447969,-0.17514467,9.83627
88541393076310,0.16184439,-0.17287306,9.755276
88541412940080,0.16156004,-0.15946196,9.750362
88541432796976,0.1600395,-0.03583185,9.786368
88541452653744,0.02660918,-0.06478082,9.874102
88541472510512,0.036422297,-0.16140725,9.883296
88541492367280,0.067903884,-0.15746064,9.830193
88541512233928,0.16957644,-0.004964181,9.712502
88541532090952,0.19171444,0.024424758,9.706288
88541551947848,0.13535391,-0.062447175,9.675921
88541571804744,0.1279095,-0.0734663,9.745207
88541591661640,0.1736268,-0.008206689,9.78202
88541611532915,0.2581205,-0.01371526,9.849741
88541631390067,0.31500256,-0.11329331,9.779449
88541651247347,0.3607288,-0.09284283,9.805925
88541671104627,0.31884602,-0.0721518,9.661465
88541690961907,0.19675197,-0.024875207,9.627743
88541710829648,0.08252881,-0.0038940362,9.671574
88541730687184,0.12814161,-0.074992634,9.7116
88541750544592,0.20687589,-0.046614543,9.811762
88541770402128,0.22536418,0.0373436,9.878131
88541790259536,0.12808913,0.032849386,9.910128
88541810130597,0.05957648,-0.056842647,9.790271
88541829988389,0.11934282,-0.0880147,9.7461195
88541849846053,0.12198737,-0.06927923,9.617375
88541869703845,0.16782258,-0.022487434,9.772893
88541889561637,0.20382626,-0.10629128,9.745784
88541909426547,0.17323613,-0.087736554,9.792488
88541929284467,0.1228425,-0.060770407,9.593547
88541949142387,0.108025916,-0.026869988,9.529614
88541969000435,0.13236943,-0.0113053145,9.664208
88541988858355,0.08929097,-0.10738954,9.86572
88542008727112,0.112676784,-0.1804903,10.041679
88542028585288,0.09468438,-0.20311794,9.993596
88542048443592,0.022378694,-0.11584791,9.829979
88542068301896,0.027813124,-0.090733334,9.727166
88542088160200,-0.043693736,-0.12294431,9.602199
88542108015334,-0.03125832,-0.16445507,9.597566
88542127873510,0.02915244,-0.16472094,9.627071
88542147731814,0.1473312,-0.057908617,9.73028
88542167589990,0.16248174,0.04046664,9.91222
88542187448294,0.12021119,-0.044308487,9.968331
88542207306945,0.16315328,-0.053912565,9.890039
88542227165121,0.13203835,-0.22930898,9.772931
88542247023297,0.12449075,-0.2383446,9.714977
88542266881473,0.11394297,-0.33600304,9.766662
88542286739649,0.32269892,-0.23736574,9.812007
88542306597953,0.4079269,-0.18046814,9.8377905
88542326467099,0.38006514,-0.21453355,9.820399
88542346325659,0.34428635,-0.27677447,9.959817
88542366184091,0.28418332,-0.14896144,9.875017
88542386042651,0.1397577,-0.06611598,9.729726
88542405901083,0.032758597,-0.15142046,9.779654
88542425755486,0.10287422,-0.044704787,9.764152
88542445613918,0.15110263,-0.0030415955,9.676478
88542465472350,0.18150218,0.070584334,9.793486
88542485330783,0.19395201,0.036147606,9.701557
88542505189216,0.20377824,0.050583147,9.714641
88542525035769,0.115257464,0.027794136,9.841787
88542544894070,0.12357002,-0.004951192,9.809176
88542564752246,0.15320405,-0.062677816,9.832707
88542584610550,0.19458076,-0.017928407,9.677308
88542604468854,0.26053244,-0.028725723,9.725408
88542624310883,0.2521007,-0.11659868,9.7444105
88542644169060,0.31134674,-0.11425231,9.624921
88542664027109,0.32132208,-0.068764605,9.715297
88542683885286,0.2703015,-0.037631825,9.728678
88542703743335,0.24111924,-0.068695374,9.803705
88542723595964,0.24716395,-0.11926585,9.854386
88542743453885,0.33242112,-0.08789581,9.764829
88542763311934,0.31933954,0.0068895086,9.674898
88542783169983,0.20470756,0.08507545,9.622621
88542803028024,0.1126632,0.105987586,9.814521
88542822883779,0.17060421,-0.01615172,9.870571
88542842741699,0.2289197,0.006606563,9.789312
88542862599747,0.18734702,0.014323697,9.719433
88542882457667,0.26995775,0.09528753,9.80333
88542902315715,0.28949615,0.06922015,9.840625
88542922153339,0.2355992,0.020338373,9.947568
88542942010619,0.10102525,0.01058997,9.830048
88542961868027,-0.03277046,-0.096479036,9.911229
88542981725307,-0.009385459,-0.058851883,9.724405
88543001582587,0.022506071,0.008901251,9.718062
88543021431259,0.07899685,0.012889308,9.663616
88543041288283,0.125711,-0.010973584,9.672571
88543061145435,0.201424,0.013429666,9.7180605
88543081002459,0.23308684,0.00877103,9.892333
88543100859483,0.2967263,0.02198175,9.887034
88543120718414,0.24589044,-0.020966684,9.887782
88543140575438,0.2571373,-0.013818997,9.679465
88543160432590,0.19256218,0.013593864,9.70543
88543180289614,0.18546273,-0.01760124,9.704072
88543200146638,0.17364731,-0.021792488,9.679569
88543220002935,0.0899047,-0.011425614,9.7963295
88543239859960,0.09415432,-0.01736819,9.807225
88543259716985,0.13510333,-0.012416959,9.829228
88543279573879,0.14890783,-0.031459354,9.936634
88543299430903,0.15167831,-0.06400819,9.774427
88543319296929,0.042367928,-0.0742776,9.774353
88543339154081,-0.0628645,-0.12812819,9.733574
88543359011233,0.04743687,-0.07920842,9.705538
88543378868385,0.0990516,0.12369033,9.817406
88543398725538,0.14307861,0.16746947,9.741745
88543418584335,0.15748434,0.14461522,9.844335
88543438441488,0.16228588,0.11280485,9.77982
88543458298769,0.13146771,0.1316669,9.785387
88543478155922,0.18703839,0.059179693,9.761603
88543498013075,0.26858625,0.040383365,9.798635
88543517877438,0.32050848,0.018265948,9.892095
88543537734847,0.2659676,-0.06694458,9.811884
88543557592128,0.20285533,-0.039253544,9.642735
88543577449537,0.15154636,-0.062515795,9.614732
88543597306818,0.22686635,-0.048881505,9.641356
88543617171613,0.22476056,-0.1402907,9.847739
88543637029150,0.30073738,-0.14595963,9.92074
88543656886687,0.3142153,-0.11140072,9.934935
88543676744224,0.24735945,-0.117958315,9.79413
88543696606465,0.18676116,-0.046376776,9.711735
88543716464002,0.14222717,-0.20837297,9.651371
88543736321667,0.23820047,-0.19085005,9.731763
88543756179204,0.24262653,-0.21902956,9.747677
88543776036869,0.27433145,-0.15765908,9.941971
88543795894386,0.23885174,0.014310028,9.844068
88543815756635,0.13272445,0.028969033,9.965529
88543835614428,-0.02287684,-0.13327634,9.786127
88543855472091,-0.0249169,-0.11518256,9.641402
88543875329883,0.062192585,0.017379798,9.661606
88543895187676,0.12016576,-0.09505642,9.691726
88543915053742,0.12551199,-0.084645055,9.642303
88543934911790,0.019923268,-0.113813855,9.789936
88543954769839,0.028395971,-0.030154936,9.817386
88543974627886,0.15188889,0.03840096,9.714473
88543994487642,0.15969145,-0.01974076,9.687471
88544014345819,0.0027791373,-0.17385213,9.692353
88544034203994,-0.055142526,-0.26654127,9.812065
88544054062170,-0.0029923383,-0.25717297,9.911361
88544073920347,0.12098687,-0.20129807,9.8316
88544093778522,0.24880022,-0.17636646,9.80873
88544113623776,0.30424586,-0.17056552,9.702244
88544133481697,0.20333551,-0.2270232,9.621411
88544153339616,0.103236824,-0.26094946,9.678243
88544173197536,0.09406493,-0.25510773,9.868817
88544193055457,0.19862571,-0.23771273,9.877863
88544212904343,0.28798422,-0.18099496,9.764431
88544232762007,0.24736251,-0.13091792,9.722483
88544252619800,0.1605055,-0.10628212,9.79638
88544272477463,0.13279524,-0.1654164,9.760812
88544292334351,0.11857333,-0.2197095,9.7269945
88544312192016,0.08010851,-0.18978561,9.7799015
88544332045935,0.20631474,-0.21226612,9.787133
88544351903600,0.22852924,-0.22513516,9.708495
88544371761265,0.1555121,-0.22801016,9.700886
88544391618930,0.12625377,-0.19832748,9.631962
88544411480117,0.16108978,-0.19358727,9.687127
88544431337782,0.16812843,-0.19754285,9.913548
88544451195575,0.21521804,-0.24353696,9.95473
88544471053240,0.21133085,-0.260812,9.851566
88544490911033,0.1153948,-0.20497912,9.736406
88544510759578,0.12810887,-0.13661377,9.682054
88544530617115,0.060942423,-0.23449099,9.7047
88544550474524,0.18996127,-0.17900956,9.615651
88544570332061,0.19971533,-0.16654482,9.674137
88544590189598,0.24866945,-0.17439997,9.86694
88544610047135,0.28515595,-0.14996926,9.861139
88544629896026,0.24251352,-0.16308361,9.837308
88544649753307,0.21339583,-0.06155403,9.705971
88544669610588,0.1397661,-0.13952562,9.600699
88544689467869,0.15970515,-0.06373662,9.7546215
88544709318676,0.10730304,-0.10704303,9.905191
88544729175829,0.11685803,-0.19452624,9.952842
88544749032854,0.22357662,-0.12861936,9.743675
88544768890007,0.22989723,0.013009352,9.712436
88544788747160,0.21810026,0.007386905,9.807403
88544808597082,0.19379145,-0.14594556,9.765105
88544828453978,0.1454136,-0.15125942,9.752597
88544848311003,0.12455225,-0.11064537,9.805208
88544868167898,0.21249543,-0.10837797,9.830813
88544888024794,0.23875579,-0.043577086,9.71678
88544907881819,0.16816507,-0.0050995094,9.7863245
88544927743986,0.16810237,-0.06706453,9.804117
88544947601010,0.15071887,-0.08167568,9.724386
88544967458035,0.10304905,0.007043425,9.734157
88544987315058,0.10038666,-0.041591324,9.729853
88545007170936,0.17775309,-0.037213564,9.800153
88545027027833,0.17920396,0.0076147746,9.838867
88545046884856,0.15288576,-0.01978377,9.788225
88545066741752,0.12114832,-0.031632617,9.761351
88545086598649,0.12709863,-0.059979312,9.718861
88545106454386,0.13196032,-0.06259833,9.725616
88545126311282,0.13547327,-0.068549976,9.901547
88545146168307,0.15171759,-0.032869082,9.862483
88545166025202,0.11597717,0.007337432,9.79952
88545185882098,0.1869432,-0.034007892,9.717872
88545205738995,0.24345689,-0.0017342144,9.554683
88545225600390,0.094890006,0.046915743,9.67124
88545245457413,0.037352633,-0.11326403,9.86284
88545265314438,0.20934594,-0.1695056,9.965727
88545285171333,0.345677,-0.019692907,9.901933
88545305028762,0.25265065,0.050332513,9.706622
88545324885787,0.22815616,0.06358401,9.781054
88545344742810,0.20441976,-0.109320916,9.70077
88545364599834,0.16584149,-0.05654097,9.666536
88545384456859,0.05713549,-0.08522246,9.733231
88545404320147,0.1587134,-0.008429336,9.787233
88545424177299,0.22809966,-0.022659928,9.8573885
88545444034452,0.19311076,0.04199561,9.804327
88545463891603,0.109917685,0.039998908,9.732826
88545483748755,0.1250364,-0.022229197,9.778877
88545503606036,0.11392944,-0.015263322,9.693659
88545523469111,0.038002014,-0.033193894,9.811805
88545543326391,0.04952129,-0.14787172,9.921868
88545563183672,0.17113607,-0.046992306,9.856565
88545583041079,0.1478153,0.029535232,9.672158
88545602906368,0.09477752,0.055773325,9.717376
88545622763777,0.08787947,-0.12577198,9.774049
88545642621312,0.17395377,-0.13689336,9.761932
88545662478848,0.12977082,-0.020278845,9.786319
88545682336385,0.18468967,0.040276013,9.900074
88545702193792,0.2568568,0.0057579074,9.777775
88545722056997,0.1970458,-0.0026553066,9.746385
88545741914534,0.16290908,-0.03906242,9.731282
88545761772197,0.12979794,0.027038854,9.730571
88545781629733,0.09934421,0.049587797,9.81849
88545801487270,0.12351687,-0.026857713,9.794982
88545821347060,0.1863062,0.012052819,9.79158
88545841204596,0.20514841,0.062272083,9.7661085
88545861062261,0.17011793,0.05309882,9.745871
88545880919924,0.18328038,0.0044649853,9.844566
88545900781093,0.20642067,0.07153094,9.743984
88545920638886,0.1792689,0.077958465,9.673004
88545940496677,0.18951958,0.05765462,9.779708
88545960354469,0.1791784,0.058748554,9.812833
88545980212134,0.15942293,-0.038950358,9.874496
88546000069925,0.18036933,0.0073087504,9.664568
88546019939152,0.11498927,0.05985351,9.61078
88546039797201,0.10888988,0.019436466,9.740216
88546059655248,0.12512198,-0.104686506,9.82467
88546079513424,0.14308636,-0.03336695,9.891654
88546099371473,0.10307409,-0.026665537,9.873404
88546119225280,0.14124104,0.011361798,9.768489
88546139083201,0.14451207,0.040406827,9.791469
88546158941250,0.110898025,-0.09566036,9.70614
88546178799295,0.14480844,-0.09551249,9.704162
88546198656855,0.21359631,-0.10673927,9.740043
88546218514904,0.29310417,-0.017457198,9.814222
88546238372823,0.28381923,-0.06285743,9.994432
88546258230872,0.31064296,-0.046068065,9.816616
88546278088921,0.27551255,0.01844367,9.804808
88546297946970,0.2214539,0.049294714,9.726625
88546317800191,0.124352895,-0.009104234,9.62457
88546337658112,0.12946472,-0.13186473,9.728062
88546357516033,0.23625427,-0.100634776,9.803452
88546377373954,0.2948199,0.004855354,9.842663
88546397231875,0.22484739,0.056979693,9.719168
88546417087418,0.2010498,0.032756794,9.692607
88546436945211,0.25690496,-0.060273383,9.739068
88546456803132,0.31270668,-0.062316533,9.728512
88546476660925,0.2106452,-0.06720073,9.876246
88546496520132,0.29199758,-0.052192982,9.942574
88546516378053,0.35883588,0.086773984,9.877754
88546536235974,0.2659136,0.0041123964,9.822591
88546556093895,0.2799566,-0.10218894,9.634834
88546575951688,0.24304633,-0.044762604,9.581841
88546595809609,0.13996893,-0.014142672,9.6657095
88546615657574,0.21004331,0.044328038,9.723237
88546635515367,0.28136063,0.020659273,9.859745
88546655373032,0.26420847,0.07050691,9.764861
88546675230825,0.17451403,0.085629605,9.853465
88546695088618,0.20323281,-0.08458018,9.857272
88546714937781,0.20587969,-0.04638921,9.684009
88546734795297,0.117849305,-0.03981194,9.690503
88546754652834,0.15531962,-0.032012086,9.845138
88546774510371,0.20946184,0.03703414,9.914669
88546794367905,0.19733407,-0.017422572,9.786221
88546814225314,0.15676592,-0.00824545,9.63504
88546834074224,0.17552456,-0.007394496,9.630244
88546853931504,0.15500455,0.048858337,9.657562
88546873788913,0.06129041,-0.07560299,9.823397
88546893646192,0.20638558,-0.04768552,9.96595
88546913501520,0.2799016,0.06728334,9.929159
88546933358673,0.18481484,0.08065619,9.965289
88546953215952,0.12977442,0.018620804,9.850347
88546973073104,0.10820776,-0.195899,9.70744
88546992930385,0.20818006,-0.06898798,9.567158
88547012789748,0.07694919,0.046274584,9.571457
88547032646900,0.100030355,0.043356776,9.829224
88547052504181,0.29892847,0.026027555,9.905862
88547072361332,0.3090652,0.1624059,9.74271
88547092218612,0.12532817,0.23625901,9.711284
88547112075765,0.087635264,0.12899916,9.706114
88547131937957,0.106797025,-0.09810727,9.795244
88547151795237,0.1411875,0.002582472,9.774694
88547171652518,0.11687541,0.087257296,9.824933
88547191509799,0.14184685,0.17670809,9.790611
88547211373180,0.16426896,0.06846949,9.699499
88547231230589,0.16983755,0.057281394,9.775604
88547251087868,0.22079691,-0.033127267,9.863078
88547270945276,0.19290978,0.06649916,9.833585
88547290802685,0.1439723,0.0140068,9.87431
88547310660092,0.21803594,0.093256,9.802998
88547330519205,0.23462413,0.08680107,9.739733
88547350376742,0.18000029,0.11137661,9.74149
88547370234151,0.114643924,-0.008573056,9.632234
88547390091556,0.10893421,0.06572684,9.68218
88547409949093,0.10737675,0.023349851,9.697611
88547429808798,0.1516473,0.05913834,9.927367
88547449666206,0.19198261,0.024064224,10.026659
88547469523743,0.18261439,0.034705866,9.866157
88547489381150,0.15715908,0.053303026,9.82701
88547509242148,0.090002835,0.025170712,9.734126
88547529099685,0.042800687,-0.025702566,9.671242
88547548957220,0.047775462,-0.070195556,9.576856
88547568814756,0.12208418,0.08660562,9.622337
88547588672293,0.16452989,0.0718193,9.850514
88547608529828,0.26357952,0.0056358585,9.93745
88547628387866,0.21443884,0.052941073,9.839805
88547648245531,0.15073453,0.035421494,9.780749
88547668103194,0.12304791,0.028391633,9.777597
88547687960858,0.15929826,-0.09811981,9.8769
88547707818395,0.16998893,3.8066946E-4,9.767445
88547727676058,0.13204181,-0.027542895,9.740872
88547747533722,0.1893947,-0.031665705,9.783248
88547767391387,0.21636386,0.053419046,9.734158
88547787249050,0.18225539,-0.010239708,9.800001
88547807100369,0.1643735,-0.006399158,9.74948
88547826957906,0.21588719,-0.020609686,9.794617
88547846815441,0.2243745,0.06694052,9.938104
88547866672977,0.18330044,0.003645275,9.817459
88547886530514,0.19507568,-5.793363E-4,9.73075
88547906388049,0.18825647,-0.008434988,9.550099
88547926244866,0.1398943,0.0028192038,9.652032
88547946102403,0.1638471,-0.09519724,9.72272
88547965959938,0.16946235,-0.038931556,9.771008
88547985817474,0.22715843,-0.022621915,9.99134
88548005675011,0.27899408,0.05723867,9.971486
88548025540976,0.1899453,0.051056117,9.807061
88548045398768,0.111933716,-0.046204988,9.716013
88548065256433,0.13843332,-0.14467262,9.64877
88548085114224,0.17392592,-0.050744344,9.634253
88548104973083,0.12756427,-0.02718572,9.743655
88548124830876,0.14824697,0.046909023,9.836671
88548144688667,0.25372583,0.019813238,9.858155
88548164546459,0.2082354,0.07013183,9.823754
88548184404252,0.19262803,-0.0023459673,9.759145
88548204262043,0.13847911,-0.01991762,9.7731285
88548224116173,0.08962116,-0.060545858,9.661316
88548243973838,0.09275868,-0.037367884,9.666999
88548263831629,0.17018172,-0.010750497,9.790564
88548283689294,0.25779667,-0.016214691,9.865445
88548303546959,0.24728307,-0.03507679,9.778473
88548323403162,0.15363497,0.015602812,9.724419
88548343260826,0.1481584,-0.036628403,9.709704
88548363118363,0.16399415,-0.10429628,9.732047
88548382976026,0.12951559,-0.14625672,9.815708
88548402832207,0.16474187,-0.13854608,9.933234
88548422689872,0.2695841,-0.044787817,9.796084
88548442542547,0.23808107,-0.095873095,9.745277
88548462400084,0.1846685,-0.097500116,9.7255
88548482257493,0.19508874,-0.116292454,9.6620655
88548502114902,0.17826626,-0.12035943,9.700295
88548521966319,0.18774356,-0.046172768,9.826095
88548541823728,0.25441688,-0.121551506,9.93009
88548561681009,0.30287504,-0.1050833,9.866889
88548581538418,0.21378124,-0.07657347,9.733036
88548601395699,0.17671356,-0.11941952,9.688458
88548621245812,0.18896201,-0.06608515,9.66201
88548641102965,0.17860788,-0.1026225,9.79131
88548660960246,0.2178692,-0.05990014,9.791976
88548680817399,0.21796152,-0.10096835,9.837163
88548700674552,0.27801037,-0.014362563,9.724705
88548720531705,0.23624176,-0.027320158,9.641926
88548740390760,0.1336832,-0.085395806,9.767071
88548760247913,0.12589003,-0.13748005,9.812419
88548780105194,0.10204999,-0.04097009,9.832902
88548799962455,0.15158154,-0.056422673,9.919674
88548819820235,0.2867004,-0.020833462,9.733308
88548839677516,0.23801981,-0.024984198,9.625482
88548859534795,0.15403827,-0.10311518,9.6314535
88548879392075,0.13059847,-0.115861304,9.7133875
88548899249356,0.08805684,-0.1197798,9.885343
88548919101744,0.17151202,-0.023804292,9.863371
88548938958896,0.27794775,0.0026432634,9.885317
88548958816049,0.25018296,0.03386737,9.760853
88548978673072,0.06995714,-0.11843612,9.703319
88548998530224,0.06257924,-0.114896975,9.724296
88549018387377,0.0998353,0.0079026,9.710308
88549038251836,0.11519604,0.031782612,9.784414
88549058109116,0.1590989,-0.09552539,9.863735
88549077966397,0.24047494,-0.016281137,9.871961
88549097823676,0.20429547,0.005422804,9.826483
88549117690519,0.10965348,-0.04398901,9.770245
88549137547928,0.06727001,-0.08099228,9.737308
88549157405463,0.0810737,-0.027703598,9.709258
88549177262999,0.10819776,-0.021572614,9.665854
88549197120408,0.15851465,-0.07984469,9.864534
88549216972519,0.3154383,-0.083396025,9.851236
88549236829926,0.32427704,-0.057565086,9.846412
88549256687335,0.19815771,-0.0252397,9.768221
88549276544614,0.08739288,-0.059029624,9.620252
88549296402022,0.07030016,-0.0863678,9.686357
88549316259431,0.10863924,-0.02420481,9.741809
88549336107220,0.1393192,-0.07420923,9.869969
88549355964373,0.12071016,-0.14490435,9.898745
88549375821526,0.2315412,-0.10940881,9.7992735
88549395678807,0.13673903,-0.08032914,9.733259
88549415531242,0.07198954,-0.02524719,9.742588
88549435388267,-0.08259471,-0.12751317,9.668854
88549455245292,0.087859325,-0.08688159,9.785622
88549475102317,0.19544882,-0.04506822,9.738251
88549494959342,0.177416,-0.078022026,9.882051
88549514816367,0.21237278,-0.10424411,9.473435
88549534688708,0.117905974,0.031292602,9.484591
88549554545989,-0.011791976,-0.107114114,10.129567
88549574403270,0.09960535,-0.28341967,10.145218
88549594260551,0.23335277,0.03580921,9.8920965
88549614117832,0.03943216,0.031085832,9.903394
88549633983395,0.18537489,-0.16247639,9.878256
88549653840932,0.07571993,-0.107969046,9.700445
88549673698469,-0.006466718,0.14919743,9.550303
88549693556006,-0.10962369,-0.051258765,9.626216
88549713419583,0.11507908,-0.16565266,9.738075
88549733277248,0.24886237,-0.034678094,9.744498
88549753134913,0.1807929,-0.07746951,9.8843975
88549772992578,0.24577673,-0.077995434,9.837418
88549792850243,0.15779959,-0.04150664,9.791627
88549812707757,0.07845207,-0.018237168,9.680265
88549832549618,0.023442825,-0.07437267,9.829456
88549852407027,0.06252986,-0.12878999,9.867881
88549872264306,0.13003853,-0.07504469,9.713091
88549892121714,0.1870841,-0.0646293,9.741662
88549911979123,0.18887171,-0.14157568,9.722168
88549931842769,0.1255115,-0.14228795,9.714214
88549951700305,0.033728153,-0.120584,9.78857
88549971557842,0.10839816,-0.07375449,9.712997
88549991415377,0.10102684,-0.09931706,9.793209
88550011280552,0.19225563,-0.07282509,9.771595
88550031138345,0.09501911,-0.11257334,9.867073
88550050996008,0.0804827,-0.18048243,9.899913
88550070853800,0.08894808,-0.14443406,9.694348
88550090711465,0.08886368,-0.025065186,9.555542
88550110569256,0.06307888,-0.008540714,9.638835
88550130423312,0.036126606,-0.14036946,9.766752
88550150280977,0.068243176,-0.19455479,9.893131
88550170138640,0.10279607,-0.20548263,9.8975935
88550189996305,0.19168437,-0.12270381,9.9231615
88550209853970,0.081312984,-0.14726438,9.778862
88550229718267,0.06498076,-0.0349319,9.639545
88550249576056,-0.16834188,-0.09615829,9.709659
88550269433721,-0.107364915,-0.22534001,9.785493
88550289291512,-0.06475684,-0.18480995,9.830831
88550309145640,0.07302856,-0.26613596,9.929106
88550329003433,0.16711381,-0.27865776,9.842073
88550348861096,0.15426382,-0.18974058,9.736932
88550368718760,-0.028104592,-0.12960179,9.7074375
88550388576425,-0.101686105,-0.17148024,9.918476
88550408434216,-0.033986382,-0.18322676,9.799604
88550428294714,0.1030892,-0.07511323,9.710947
88550448152507,0.046101384,-0.09935362,9.682268
88550468010170,0.14935651,-0.18010801,9.71537
88550487867962,0.051794037,-0.20080842,9.853953
88550507725627,-0.017615769,-0.12988609,9.874306
88550527574865,-0.0146641955,-0.14634554,9.783866
88550547432401,0.08118492,-0.087273486,9.771836
88550567289938,0.091335244,-0.15514867,9.758745
88550587147473,0.051992342,-0.17281796,9.706456
88550607005009,-0.034178082,-0.15482989,9.706286
88550626862546,0.02511036,-0.1783319,9.695602
88550646715485,0.06482532,-0.17224675,9.773759
88550666573021,0.11930502,-0.17761286,9.818901
88550686430430,0.12520564,-0.16856237,9.834906
88550706287965,0.011832851,-0.17904249,9.897744
88550726153872,-7.855539E-4,-0.18615882,9.804246
88550746011665,-0.0021909752,-0.16395715,9.751952
88550765869328,0.08188303,-0.09657353,9.646565
88550785727120,0.017549431,-0.090619884,9.571297
88550805584785,0.03165278,-0.13840666,9.721577
88550825435221,0.06548225,-0.14751628,9.817101
88550845292757,0.02679708,-0.15448032,9.982712
88550865150422,0.032794826,-0.23815075,9.938273
88550885007957,0.08410885,-0.20371866,9.733204
88550904865493,0.11059546,-0.1338282,9.60132
88550924723030,0.04217534,-0.08163217,9.610878
88550944575202,-0.07714128,-0.12871815,9.747239
88550964432610,0.007436629,-0.21710461,9.87947
88550984290019,0.1018181,-0.20818973,9.942071
88551004147298,0.15024284,-0.20258373,9.903078
88551024007615,0.07989734,-0.19921212,9.719396
88551043864896,0.109431975,-0.17391786,9.602225
88551063722303,-0.021276211,-0.19460383,9.634679
88551083579583,0.10946558,-0.18562846,9.701756
88551103436864,-0.0070862216,-0.082236685,9.93301
88551123294271,0.031426303,-0.16794786,9.919473
88551143159518,0.09162238,-0.23736171,9.787569
88551163017055,0.17582129,-0.15643448,9.572546
88551182874590,0.17545041,-0.106920965,9.618131
88551202732254,0.04960396,-0.21986678,9.72813
88551222589791,0.0126148565,-0.1857253,9.844337
88551242448448,-0.011013527,-0.16207121,9.9615755
88551262306112,0.111516766,-0.20348798,9.901236
88551282163777,0.22059688,-0.1675488,9.7968235
88551302021440,0.09721022,-0.14871491,9.725764
88551321877891,0.01599238,-0.1969774,9.721809
88551341735556,0.09036246,-0.2012094,9.695176
88551361593219,0.13961515,-0.051912874,9.696182
88551381450883,0.099849924,-0.0694659,9.745755
88551401308548,0.10882143,-0.17562076,9.81419
88551421166211,0.15543447,-0.20292075,9.805188
88551441014299,0.13798416,-0.08793994,9.740637
88551460871580,0.06812726,-0.11081434,9.819056
88551480728987,0.15420353,-0.16431713,9.712025
88551500586267,0.07119674,-0.16426428,9.781932
88551520443676,0.079343334,-0.1399201,9.756347
88551540301644,0.1778893,-0.14991811,9.791113
88551560159052,0.17012522,-0.09197403,9.752993
88551580016333,0.104279265,-0.08151881,9.7290325
88551599873740,0.04201396,-0.16040283,9.759274
88551619732184,0.10915893,-0.16180986,9.738519
88551639589593,0.124412544,-0.09776565,9.881307
88551659447000,0.074897096,-0.1534938,9.958739
88551679304408,0.11348431,-0.20844153,9.8937025
88551699161817,0.058753315,-0.16055894,9.669566
88551719019224,0.06511315,-0.08660137,9.595962
88551738879889,0.062043723,-0.109172754,9.607065
88551758737298,0.07263816,-0.14610818,9.744141
88551778594705,0.0814088,-0.09992861,9.829737
88551798452241,0.14897712,-0.13510999,10.018908
88551818309650,0.22727852,-0.11259002,9.845609
88551838172616,0.12889397,-0.0589985,9.771259
88551858030280,0.07711994,-0.011149899,9.754595
88551877887945,0.07170832,-0.1542615,9.694557
88551897745480,0.14420089,-0.046626024,9.739988
88551917603144,0.054639433,-0.08944618,9.749578
88551937460809,0.1955918,-0.040312164,9.835418
88551957320526,0.16327731,-0.13247037,9.755877
88551977178190,0.17427686,0.04685351,9.692036
88551997035855,0.041660123,-0.064404875,9.813711
88552016893518,0.16444932,-0.046946596,9.826268
88552036758464,0.12171868,-0.041008286,9.84044
88552056616385,0.047759213,-0.026229244,9.899801
88552076474176,0.13494712,-0.09302232,9.783481
88552096332096,0.14534087,-0.00784089,9.656553
88552116189889,0.021625035,0.027606972,9.709225
88552136047430,0.031363644,-0.102148265,9.689075
88552155905222,0.1565474,-0.049874526,9.787994
88552175763015,0.13981403,0.077899605,9.894079
88552195620934,0.10172045,-0.040549222,9.981449
88552215478726,0.16905956,-0.12116718,9.91701
88552235336519,0.22436363,-0.0054311412,9.727341
88552255199973,0.13722782,0.016616965,9.644852
88552275057765,0.0884098,-0.021328632,9.649162
88552294915686,0.06818688,-0.061991964,9.628499
88552314773605,0.17809762,-0.030985633,9.7212305
88552334631744,0.1979647,0.0031795572,9.83553
88552354489665,0.24770787,0.008805481,9.9390745
88552374347584,0.20037396,-0.020458246,9.762267
88552394205632,0.11825797,0.029100638,9.682004
88552414063553,0.10799811,-0.010098619,9.725824
88552433913219,0.15344945,-0.07623157,9.639399
88552453771011,0.15353604,0.059024487,9.70454
88552473628804,0.12750955,-0.026487792,9.824053
88552493486595,0.209976,-0.10825005,9.95268
88552513344387,0.23428814,-0.12749487,9.834917
88552533202180,0.091964506,-0.033714745,9.695913
88552553056673,0.086340584,-0.12825444,9.788075
88552572914465,0.22324893,-0.1670062,9.837994
88552592772130,0.24258864,-0.08963228,9.776459
88552612629793,0.21125183,-0.006785256,9.910259
88552632478845,0.27658942,-0.033900794,9.782463
88552652336382,0.21943182,-0.03698956,9.666243
88552672194045,0.11821539,-0.024985837,9.658013
88552692051581,0.09592951,-0.1510287,9.651696
88552711909246,0.19781727,-0.09728888,9.799969
88552731768461,0.21960919,-0.10086282,9.842402
88552751626125,0.21914701,0.02947925,9.950003
88552771483790,0.24504235,-0.11051207,9.823893
88552791341453,0.18999264,-0.055104326,9.733446
88552811198989,0.17229174,-0.15602271,9.727198
88552831056654,0.18069778,-0.10179645,9.637455
88552850905645,0.113852635,-0.09485585,9.627807
88552870763181,0.18200955,-0.11995332,9.82512
88552890620718,0.2617009,-0.046326764,9.770462
88552910478125,0.17894028,-0.00983502,9.76252
88552930330376,0.1085286,-0.03822563,9.83324
88552950187785,0.096499324,-0.1543574,9.923764
88552970045064,0.16551708,-0.12781566,9.76481
88552989902472,0.05908346,0.03862654,9.640536
88553009759753,0.06915734,-0.13426946,9.845725
88553029617160,0.21489672,-0.25171596,9.840687
88553049470929,0.17301205,-0.032416087,9.718437
88553069328210,0.07759374,0.04788127,9.756284
88553089185489,0.19041903,-0.003644408,9.735164
88553109042641,0.21628213,-0.06789148,9.754237
88553128899922,0.11351086,0.02046861,9.795967
88553148752294,0.059715047,-0.006224316,9.884868
88553168609446,0.15041088,0.0043523335,9.894622
88553188466471,0.07080444,0.054269534,9.753807
88553208323622,-0.010805484,0.0011401788,9.755512
88553228182072,0.032770928,-0.08964237,9.662003
88553248039097,0.060642965,-0.027489593,9.697859
88553267896120,0.03247723,0.06919346,9.840713
88553287753272,0.03115314,-0.04745214,9.806144
88553307610297,0.10987023,-0.08506969,9.860499
88553327467320,0.15657435,-0.018424645,9.798067
88553347327177,0.12721124,0.079756394,9.683005
88553367184202,0.09806342,-0.011258417,9.703713
88553387041353,0.05421969,-0.05661163,9.719409
88553406898505,0.073752716,-0.104900405,9.809277
88553426755530,0.14762263,-0.051682644,9.835508
88553446617425,0.14007157,0.027941147,9.7127495
88553466474577,0.114328094,-0.0111698415,9.74391
88553486331730,0.14009362,0.0048728567,9.789629
88553506188881,0.16580185,-0.013202655,9.701353
88553526052030,0.19735493,-0.12552099,9.7968025
88553545909183,0.21622635,-0.11122083,9.702714
88553565766462,0.22480671,-0.070214234,9.666013
88553585623742,0.18261737,0.020815821,9.693285
88553605481023,0.19753087,-0.07100076,9.631499
88553625338174,0.23122586,-0.118657134,9.609435
88553645201604,0.2580573,-0.1489391,9.637837
88553665059013,0.35518864,-0.17141847,9.745591
88553684916420,0.47273347,-0.09248545,9.633104
88553704773828,0.49607998,-0.010533793,9.490716
88553724631237,0.45772952,0.04339395,9.4250555
88553744492185,0.37778312,0.01534016,9.340431
88553764349721,0.39476624,0.017263077,9.504372
88553784207258,0.31108612,0.058631577,9.602739
88553804064665,0.13582736,-0.02197245,9.769508
88553823922018,0.0608217,-0.026115242,9.823158
88553843779683,0.08112451,-0.103715815,9.867857
88553863637346,0.013526003,-0.057807505,9.825904
88553883494882,-0.20370382,-0.040261038,9.570056
88553903352547,-0.34090787,-0.07319948,9.506193
88553923210082,-0.30679685,-0.038217355,9.601539
88553943077157,-0.25154486,-0.026451247,9.5939245
88553962934950,-0.20667985,-0.06751382,9.57401
88553982792741,-0.017590836,0.08879241,9.656058
88554002650661,0.17069225,0.18137595,9.689901
88554022508454,0.24051201,0.084602825,9.712812
88554042366641,0.24216098,-0.07126548,9.608423
88554062224561,0.23587419,-0.1226579,9.590967
88554082082482,0.24085574,-0.039600812,9.567742
88554101940273,0.23016167,-0.14773703,9.5876465
88554121797704,0.23924604,-0.22609152,9.625272
88554141655625,0.23619595,-0.15001899,9.508934
88554161513544,0.17903998,-0.055299178,9.5458355
88554181371464,0.16777836,-0.08947228,9.597388
88554201229385,0.20562766,-0.14919035,9.627451
88554221087176,0.19340263,-0.054308746,9.6836605
88554240942597,0.113971405,-0.034604803,9.618851
88554260800390,0.086582735,-0.020228557,9.629068
88554280658181,0.10983528,-0.09550303,9.601013
88554300515973,0.19616511,0.023544898,9.602758
88554320373766,0.115537085,0.050410964,9.670408
88554340227820,0.01951268,-0.020924812,9.643447
88554360085612,0.037162695,-0.035994414,9.741466
88554379943405,0.20138496,-0.034413304,9.662467
88554399801196,0.28309944,0.036495365,9.535822
88554419658988,0.26930004,0.108870305,9.518149
88554439516781,0.19734024,0.02806803,9.577014
88554459365831,0.16459413,-0.053704098,9.59641
88554479223495,0.24951406,0.018442424,9.617469
88554499081032,0.25246438,0.0927003,9.559981
88554518938567,0.22526057,0.09720676,9.58013
88554538795630,0.26913255,0.07367609,9.588534
88554558653167,0.24311721,0.035430975,9.614442
88554578510702,0.13162464,0.0092920745,9.593141
88554598368366,0.07800179,-0.010893362,9.5737705
88554618225903,0.06921216,-0.006126399,9.636206
88554638073896,0.0670518,-0.044138897,9.615782
88554657931304,0.098357216,-0.07904812,9.562291
88554677788585,0.14312513,-0.040961187,9.592841
88554697645992,0.10257864,-0.06692554,9.637858
88554717503272,0.09491509,-0.15175885,9.619187
88554737360681,0.13066891,-0.17184962,9.617078
88554757215674,0.18595253,-0.06980294,9.671936
88554777072954,0.21710052,-0.02708547,9.700562
88554796930107,0.16619307,-0.1379142,9.564196
88554816787386,0.18704262,-0.1280814,9.546297
88554836641088,0.15692478,-0.06684394,9.541089
88554856498113,0.124726705,-0.10874589,9.544623
88554876354473,0.16451745,-0.12591462,9.52803
88554896211625,0.1584515,-0.099426806,9.5204
88554916068778,0.16246724,-0.15329121,9.617551
88554935924728,0.17901896,-0.16029784,9.6590395
88554955781752,0.207287,-0.089178145,9.52918
88554975638905,0.26198882,0.08099503,9.608316
88554995495928,0.20349768,-0.021069843,9.4703
88555015353080,0.20624653,-0.1506305,9.497134
88555035210105,0.20200385,-0.20793904,9.523943
88555055078720,0.14703152,-0.2973488,9.527626
88555074936000,0.18980747,-0.23907912,9.490263
88555094793281,0.2537529,-0.17858358,9.478993
88555114650560,0.41830668,0.050880075,9.60568
88555134502459,0.5721372,0.07830156,9.799928
88555154359612,0.7487618,0.0049791303,9.8707
88555174216763,0.817928,-0.22064592,9.928977
88555194074043,0.80412,-0.20423204,9.948302
88555213931196,0.6437163,-0.39559427,9.847839
88555233787238,0.4687784,-0.4714172,9.784963
88555253644390,0.28613397,-0.69986475,9.94666
88555273501671,0.32997158,-1.0364568,10.10009
88555293358822,0.53229475,-0.44118226,10.22801
88555313215974,0.7136679,0.3852633,9.788049
88555333073255,0.85160375,0.3162058,9.720362
88555352931491,0.98274034,-0.18641956,9.749765
88555372788643,0.8919299,-0.33356047,9.767516
88555392645924,0.7240377,-0.43959922,10.080694
88555412503075,0.60529953,-0.47498468,10.2022705
88555432356032,0.63396317,-0.50049007,9.909439
88555452213057,0.80514544,-1.151423,9.715727
88555472070080,0.3348022,-1.6490349,10.107169
88555491927233,-0.070078254,-1.4795316,10.652098
88555511784258,0.42625755,-3.4276054,11.818171
88555531651904,1.2896174,-3.651355,12.136694
88555551509313,2.1495576,-3.8726258,11.231836
88555571366592,2.3239071,-5.4344,10.557014
88555591223872,2.8641088,-5.909614,10.1817
88555611081152,3.4707053,-5.338716,9.424834
88555630938560,2.9083025,-3.6696765,9.046264
88555650795797,2.2791986,-0.78418654,11.182679
88555670653077,2.7167928,2.4148731,13.381138
88555690510485,4.6704664,4.383749,10.284395
88555710367765,4.730434,3.0670176,9.191122
88555730225173,2.300667,0.06774155,11.165142
88555750085488,-0.94224364,0.8283251,15.104409
88555769942896,-1.2057446,-1.4060671,15.683609
88555789800304,1.302837,-2.9654503,14.17581
88555809657712,1.2342647,-0.67191666,13.380936
88555829515120,1.02008,4.0256133,11.496072
88555849372875,1.7458726,10.316268,6.583402
88555869230411,0.100764796,5.4767456,4.0271983
88555889087820,-0.8536871,3.774523,2.9100215
88555908945229,-1.4177867,2.851883,2.6661267
88555928802763,-1.475921,0.5890749,4.573466
88555948664822,-1.4019451,-1.0091866,5.579421
88555968522486,-0.63929176,0.26493907,4.6209416
88555988380022,-1.285959,1.2891132,3.33037
88556008237558,-2.7939665,0.53903866,3.6245234
88556028095094,-2.932417,-1.5153675,5.2142415
88556047952241,-1.4042548,-2.7473907,7.900072
88556067809777,0.71263427,-2.1602063,12.601804
88556087667313,-0.39135385,1.451025,16.409779
88556107524849,0.6218321,1.5378484,20.47775
88556127382385,7.920847,-3.8710945,14.137549
88556147243962,6.653402,0.45037094,4.2967114
88556167101626,2.3387976,2.3824458,10.160036
88556186959290,-2.1131918,10.5306,15.1919
88556206816954,-4.8660097,8.561398,14.547982
88556226674618,0.47519365,-2.499894,11.977528
88556246528959,-0.588914,1.6635113,4.096933
88556266386495,-2.5907378,6.704358,4.2521844
88556286244031,-3.0245883,8.585634,8.963669
88556306101567,-2.5250335,9.668825,14.157379
88556325959103,2.8054533,-0.16894376,15.83157
88556345820558,4.662957,-0.21680371,9.034629
88556365678223,1.7282141,0.57996666,6.47611
88556385535888,0.71956897,-1.121526,7.4467444
88556405393550,-0.5238699,0.72597605,6.916405
88556425251214,-1.0468487,0.75372624,7.7867875
88556445103849,-1.1388751,-0.78128463,9.087485
88556464961385,-0.81931376,-2.3828657,9.044401
88556484818921,1.5769628,-1.802508,8.423129
88556504676457,5.2860684,0.34279332,8.583363
88556524533994,5.25824,2.1632745,8.926653
88556544386257,4.2609644,2.698063,10.059107
88556564243666,5.0425844,1.0291638,11.205208
88556584101075,3.4090652,-0.87041247,11.273142
88556603958484,3.4910905,0.2003631,10.174999
88556623816021,3.4642012,0.7312031,10.172361
88556643672290,0.53326774,1.9222792,14.168153
88556663529827,0.24348532,1.4138056,15.666655
88556683387236,3.3293784,0.6208459,14.143222
88556703244773,3.7766738,3.708554,14.089321
88556723102310,3.8325212,4.041889,14.261357
88556742959335,5.8655715,1.6372073,14.594283
88556762816744,7.975102,-0.36290324,14.351085
88556782674153,6.6711063,0.7149236,12.08554
88556802531676,-6.175709,7.627365,9.80506
88556822389084,-7.5335755,8.327803,6.742623
88556842239847,-8.702235,6.394509,4.0406404
88556862097127,-8.345442,1.2746869,2.5094972
88556881953944,-3.9319801,-1.9095736,3.2512836
88556901811224,-2.332342,-5.31901,5.484161
88556921668504,-4.167884,-3.9961622,6.4935236
88556941525790,-3.5431702,-3.8157852,6.026386
88556961383070,0.23672587,-4.582078,6.403826
88556981240350,1.2102191,-3.375719,6.904118
88557001097630,0.9439728,-1.0488789,8.05119
88557020954782,2.019415,-0.55265117,10.221758
88557040817019,3.074019,-0.27182397,11.781158
88557060674299,9.503594,3.7548845,16.909008
88557080531579,5.9323673,10.208015,12.090085
88557100388859,-7.3738847,8.957435,4.410489
88557120246267,-8.937375,6.941154,7.2340345
88557140101936,-10.308616,1.1892108,13.262357
88557159959216,-1.5667925,-3.9309611,17.132812
88557179816624,16.02464,-8.272196,12.626793
88557199673904,-2.8543932,-3.9412613,3.5951395
88557219531184,-8.72533,-4.021196,5.269101
88557239392816,-9.246747,-5.1029406,11.3049345
88557259250224,-5.91783,-3.9246597,16.004496
88557279107632,1.4840698,1.9026166,15.289177
88557298964912,-2.0205774,2.828045,9.025368
88557318822320,-1.4971647,-0.328701,7.3719506
88557338679453,1.8029045,-0.8415966,8.775438
88557358536733,1.466721,-1.3557295,9.309893
88557378394142,0.011992147,-2.0514717,9.159278
88557398251551,-0.44486704,-2.6087756,8.0525675
88557418108832,1.3835837,-1.1649518,8.639442
88557437966241,-0.31278613,0.10520728,8.971133
88557457819560,-3.907416,0.9103636,8.585916
88557477676841,-2.579312,1.7751021,9.520893
88557497534122,0.88030505,1.8757143,11.014836
88557517391395,1.8817109,3.594346,10.483457
88557537248675,0.30789042,2.7050056,10.586086
88557557107038,-0.6897489,3.0844672,10.628045
88557576964318,-0.23577674,3.2178457,10.663671
88557596821598,0.9703781,2.971473,11.87801
88557616679006,0.45911428,2.139554,13.757829
88557636536286,-1.1365757,1.0352144,14.083855
88557656397509,-2.1113446,-0.38590488,11.619323
88557676254917,-1.4403334,-2.6559348,11.158241
88557696112325,0.16143087,-2.9241412,13.099157
88557715969605,0.26105434,-2.662768,13.045634
88557735827013,1.5814953,-2.194476,12.469947
88557755686516,2.416087,-1.5830253,11.674945
88557775543924,1.879375,-3.3554962,10.87155
88557795401332,2.0572615,-4.012638,10.163629
88557815258868,1.1976806,-1.7293818,9.219918
88557835116276,1.8140476,-1.5527467,7.8907185
88557854967924,1.9733938,-3.1244485,6.854804
88557874825332,0.20027292,-4.8213434,5.5072646
88557894682612,0.61876357,-3.384141,5.6200795
88557914540020,1.4468782,-0.43994397,5.22414
88557934397300,1.9480342,0.23107083,4.9661393
88557954259531,0.36787122,-1.887125,4.9985886
88557974117068,0.35717317,-3.7618818,6.1311684
88557993974605,1.8042748,-1.8813808,6.5041947
88558013832014,2.5566266,-0.52902466,5.9957585
88558033689547,3.346891,1.45766,7.6843967
88558053550082,3.881191,6.5691175,10.663684
88558073407618,2.7493231,7.4705777,11.367095
88558093265154,1.71567,2.1207752,10.525678
88558113122690,1.1560305,-3.953641,9.280564
88558132980226,-0.6715694,-5.130139,8.496269
88558152842041,-0.9484439,1.1054633,11.667204
88558172699577,-3.012816,3.9801903,16.578993
88558192557241,-5.8956594,-4.05014,16.303253
88558212414905,-2.7908764,-10.856239,12.186866
88558232272441,5.136268,-8.605264,12.350863
88558252130739,9.963149,-5.4504385,10.722234
88558271988275,5.877207,1.007256,5.8950605
88558291845939,5.5704813,0.47757867,5.586219
88558311703475,0.5852805,-7.216007,8.220913
88558331561139,-3.4033425,-7.998891,10.529325
88558351416387,-1.1408103,-4.76793,11.695958
88558371273923,-0.8199218,1.1268685,11.256996
88558391131459,-0.70831144,2.9259386,9.807632
88558410989123,1.173074,0.6835932,8.672121
88558430846659,2.268081,0.1225769,9.848086
88558450694498,1.8601034,-1.5221778,10.129809
88558470551907,-0.10143428,-3.1380439,9.711376
88558490409185,0.42100513,-1.874856,10.616112
88558510266593,1.1289222,-0.40619504,10.699726
88558530124001,1.3192691,-0.059945006,10.391959
88558549982450,1.4178935,0.31951067,10.01887
88558569839858,1.5002884,-0.14501016,9.7341
88558589697138,1.3849552,-0.015175512,10.082968
88558609554546,1.2947336,0.27233157,10.567383
88558629411954,1.1972674,0.21326213,10.5789
88558649265942,1.7137706,-0.34110573,10.1010275
88558669123222,1.1580337,-1.0959331,9.810674
88558688980630,0.2754622,-1.4108119,10.355009
88558708838038,-0.06308136,-0.6256271,10.79132
88558728695318,-0.20668282,-0.39077237,10.19547
88558748555017,0.8116436,-0.65122896,9.7293005
88558768412297,1.8052812,-1.5516593,9.014045
88558788269705,1.6920868,-1.7784735,8.535668
88558808126985,1.3950267,-0.7741986,9.25466
88558827984393,1.3169092,-0.31081307,9.933423
88558847844018,1.2217824,-1.0551457,10.110372
88558867701426,1.2858428,-1.6776031,10.018017
88558887556552,1.1439948,-1.1410418,10.301564
88558907413960,0.8308442,-0.2412471,10.60243
88558927271368,0.7705199,0.12375991,10.182873
88558947128059,0.9998918,0.14757319,9.701111
88558966985468,0.83658034,-0.18590619,9.472378
88558986842875,0.5926456,-0.34712318,9.607116
88559006700283,0.4587625,-0.3399507,10.109243
88559026557691,0.52618194,-0.5212016,10.235587
88559046422735,0.8981563,-0.37639332,9.91453
88559066280271,1.1468782,-0.55573124,9.6997795
88559086137807,1.3349398,-1.1383576,9.701305
88559105995343,1.4635761,-0.4999794,9.782138
88559125852879,1.3607498,-0.57228845,9.802788
88559145707892,1.4254429,-0.5258739,9.664985
88559165565428,1.0667726,-0.49122804,9.668545
88559185422964,0.6847348,-0.9143347,10.009818
88559205280372,0.5983023,-0.34244102,10.082515
88559225137908,0.43862587,-0.039506327,9.855063
88559244999716,0.48014474,-0.35136193,9.667619
88559264857252,0.510039,-0.4029215,9.769193
88559284714916,0.5411697,-0.4670645,10.041526
88559304572452,0.72069144,-0.17217806,10.144991
88559324430116,0.9231343,0.15159702,10.206192
88559344277977,0.8113848,0.08363355,10.264003
88559364135385,0.51824623,-0.189252,10.186423
88559383992793,0.27893686,-0.12930517,10.125143
88559403850329,0.39907575,0.016566472,9.978649
88559423707737,0.66023654,0.16765127,9.744896
88559443564206,0.68492913,0.18505561,9.623946
88559463421486,0.5761532,-0.08588554,9.628758
88559483278766,0.62742376,-0.16875744,9.680638
88559503136174,0.6537258,-0.103077605,9.673041
88559522993454,0.68420506,0.0047949376,9.829715
88559542855275,0.608675,0.037289128,9.856559
88559562712683,0.5881675,0.006823247,9.863805
88559582570091,0.6318127,0.08110619,9.88798
88559602427499,0.5374386,0.21473216,9.797185
88559622284907,0.47423166,0.1655101,9.673355
88559642142996,0.5140082,0.13012493,9.606645
88559662000404,0.51863724,0.14996819,9.5995245
88559681857940,0.51853573,0.122198015,9.707481
88559701715348,0.41743776,0.19269583,9.90969
88559721572756,0.22693695,0.021597622,9.923434
88559741433705,0.2865031,-0.036565315,9.755843
88559761291241,0.35410497,0.10062529,9.648906
88559781148905,0.43541858,0.051055364,9.508432
88559801006441,0.5262743,0.15889163,9.736578
88559820863977,0.5012285,0.063363835,9.918129
88559840718111,0.37246633,0.03353649,9.810867
88559860575775,0.39588997,-0.0457905,9.709042
88559880433311,0.450607,-0.0076721944,9.85997
88559900290847,0.36852184,0.04319155,9.73576
88559920148383,0.45988807,0.10600939,9.722545
88559940006712,0.50338817,0.02960429,9.648
88559959864376,0.44066694,0.07958542,9.709391
88559979721912,0.32586867,0.07980737,9.794605
88559999579448,0.32003567,0.039219845,9.7643795
88560019436984,0.3379959,0.04863112,9.759469
88560039291710,0.3550605,0.012763669,9.830887
88560059149118,0.3549653,0.116040796,9.849666
88560079006654,0.46286464,0.16336125,9.961137
88560098864062,0.46034437,0.13580507,9.741896
88560118721470,0.47775957,0.08468569,9.646008
88560138576293,0.49017292,0.10786031,9.776551
88560158433701,0.46384978,0.0628023,9.829698
88560178291109,0.5181718,0.103527986,9.727072
88560198148517,0.5232241,0.06367574,9.679945
88560218005925,0.5306217,0.060229182,9.810165
88560237857724,0.52989465,0.040734995,9.798809
88560257715004,0.5255053,0.12855381,9.815204
88560277572156,0.47862682,0.11276701,9.790188
88560297429436,0.44182953,0.06841233,9.7183485
88560317286716,0.45656663,0.20455308,9.710968
88560337143868,0.4336145,0.14707643,9.690452
88560357001690,0.43336302,0.17237498,9.639236
88560376858970,0.51285225,0.21037644,9.843586
88560396716250,0.41871843,0.25365826,9.867671
88560416573530,0.37985897,0.20148416,9.855324
88560436430810,0.369958,0.16523491,9.752266
88560456284067,0.34252346,0.15113562,9.737669
88560476141219,0.3664282,0.22478972,9.712302
88560495998371,0.43182045,0.23554939,9.762933
88560515855523,0.42843994,0.25125837,9.859691
88560535712675,0.39075193,0.17487296,9.915304
88560555573356,0.3369021,0.15341243,9.722234
88560575430508,0.3648927,0.1281259,9.909621
88560595287660,0.38368118,0.2086064,9.852864
88560615144812,0.4177651,0.32555255,9.8314905
88560635002092,0.32272804,0.15131947,9.945076
88560654852520,0.2833078,-0.068824485,9.835377
88560674709672,0.40403488,0.04077758,9.7060585
88560694566824,0.46556467,0.11255729,9.693439
88560714423848,0.43903744,0.12082658,9.651298
88560734281000,0.40682358,-0.064463936,9.732797
88560754123206,0.4258818,-0.1384584,9.782887
88560773980102,0.46714014,-0.07896199,9.778771
88560793836870,0.4958371,-0.08881583,9.729602
88560813693638,0.483954,-0.090074666,9.716137
88560833550534,0.5031651,-0.12605065,9.720238
88560853416578,0.53264964,-0.085715495,9.666495
88560873273474,0.6063826,0.011630453,9.776981
88560893130498,0.49853253,0.07676851,9.824114
88560912990258,0.4890635,-0.05872906,9.702514
88560932847282,0.46006,-0.12651995,9.670309
88560952698983,0.47448418,-0.013299497,9.755049
88560972555879,0.40081483,0.10751218,9.798188
88560992412647,0.40843597,0.10962871,9.757677
88561012269415,0.4830594,0.11389778,9.768744
88561032126183,0.48492765,0.046148635,9.909504
88561051988174,0.43789142,0.08774348,9.823585
88561071845070,0.5026884,0.13462855,9.835225
88561091701966,0.52882177,0.17236935,9.864661
88561111558862,0.45780465,0.21831508,9.671251
88561131415630,0.44066107,0.103695616,9.6197605
88561151236410,0.5350024,0.014247113,9.651966
88561171092538,0.6027104,0.16584554,9.794729
88561190948794,0.55027765,0.18988173,9.84721
88561210805050,0.5367964,0.08368902,9.780741
88561230661306,0.598804,0.095742606,9.797978
88561250533665,0.54692405,0.1350862,9.753155
88561270390177,0.46977532,0.14664082,9.714258
88561290246689,0.39342347,0.17112195,9.636643
88561310103074,0.51387525,0.22707662,9.873276
88561329959587,0.50125325,0.29202294,9.994831
88561349822075,0.39460206,0.27090013,9.7755165
88561369678715,0.4428093,0.19708139,9.638477
88561389535227,0.45055637,0.13074234,9.625198
88561409391867,0.39674145,0.10433016,9.680387
88561429248507,0.42854866,0.1945055,9.956269
88561449112747,0.38164547,0.2386043,9.859345
88561468969388,0.45673415,0.13006428,9.6711855
88561488826029,0.4809241,0.11104901,9.705555
88561508682798,0.3975139,0.20252362,9.863596
88561528539439,0.2930005,0.25488505,9.727971
88561548413700,0.29144853,0.28317738,9.542113
88561568270725,0.35387278,0.24293932,9.616605
88561588127750,0.38335747,0.18122502,9.761311
88561607984775,0.35392398,0.24233943,9.840702
88561627841800,0.28754562,0.27933797,9.8843565
88561647709557,0.26166996,0.20860617,9.713904
88561667566838,0.32392958,0.17794456,9.6598
88561687424119,0.3695656,0.18485697,9.7963915
88561707281400,0.36519587,0.24397476,9.809809
88561727138681,0.38598353,0.2517913,9.8727665
88561747008658,0.36873445,0.16646665,9.805326
88561766866195,0.4111494,0.122552,9.758689
88561786723732,0.30482438,0.1908197,9.843084
88561806581269,0.221715,0.14333151,9.674705
88561826438806,0.25636494,0.092578225,9.681318
88561846297123,0.2753355,0.031803127,9.710626
88561866154787,0.31553653,0.082235314,9.867922
88561886012451,0.3331195,0.1568143,9.852142
88561905869987,0.39389437,0.16868463,9.748944
88561925727651,0.43123096,0.090803206,9.762264
88561945594127,0.40927854,-0.008695694,9.78014
88561965451919,0.48920837,-0.020369984,9.677552
88561985309839,0.5642508,-0.0027301942,9.687454
88562005167631,0.60259145,-0.043603197,9.672106
88562025025423,0.60934615,0.042259313,9.840694
88562044889584,0.5340972,0.037231665,9.883759
88562064747632,0.5050748,-0.03319333,9.73195
88562084605680,0.5174244,-0.066328056,9.727479
88562104463728,0.43254796,-0.02193012,9.712446
88562124321776,0.3895235,0.017824357,9.861522
88562144186905,0.37377292,0.037309907,9.905597
88562164045337,0.3948296,0.009128112,9.749049
88562183903641,0.40900582,-0.02320687,9.712781
88562203761945,0.4381212,-0.100856125,9.648421
88562223620249,0.46978858,0.0064608855,9.717494
88562243473433,0.46483207,0.064593986,9.928765
88562263331610,0.44601202,0.025419574,9.861846
88562283189915,0.4292217,-0.07972484,9.763371
88562303048089,0.43641576,-0.105603635,9.807364
88562322906393,0.50942355,-0.06062074,9.831077
88562342754402,0.5814302,0.06127847,9.747629
88562362612322,0.6048036,0.032439288,9.708911
88562382470370,0.57356954,-0.031988945,9.729232
88562402328290,0.5218663,-0.039724186,9.76792
88562422186339,0.44276628,0.007484376,9.804217
88562442044272,0.417569,-0.02341043,9.786962
88562461902449,0.44667345,-0.05993777,9.652632
88562481760498,0.491951,0.0073662214,9.736931
88562501618547,0.4819071,0.043781947,9.739585
88562521476724,0.4535299,0.097501464,9.768278
88562541336949,0.39895618,0.027478972,9.768236
88562561195126,0.34078538,8.165145E-6,9.739146
88562581053303,0.38869193,-0.030533338,9.745149
88562600911480,0.38856804,0.019454928,9.739599
88562620769657,0.4218779,-0.015441596,9.750113
88562640627834,0.48735893,0.009445794,9.777475
88562660482005,0.522718,0.112632304,9.772792
88562680340182,0.54538864,0.17498858,9.921563
88562700198359,0.4888756,0.15599379,9.860252
88562720056536,0.415923,0.17177303,9.786949
88562739914841,0.4268657,0.16446066,9.807664
88562759745174,0.4433917,0.17200343,9.766705
88562779602438,0.44102782,0.2621093,9.831769
88562799459719,0.4125588,0.1732084,9.750097
88562819317126,0.41916296,0.13846552,9.789995
88562839174784,0.37897447,0.18445358,9.749368
88562859032065,0.38425934,0.24198,9.792427
88562878889344,0.41678458,0.19626927,9.693402
88562898746752,0.47150308,0.18252921,9.679473
88562918604033,0.44116923,0.24448742,9.630195
88562938460666,0.3707443,0.26099703,9.952737
88562958317946,0.31336978,0.18362361,9.931901
88562978175099,0.33793744,0.18326062,9.842072
88562998032378,0.2946283,0.12060585,9.638065
88563017889658,0.35308462,0.13920039,9.553082
88563037746811,0.44158846,0.20529702,9.7432995
88563057607474,0.4708374,0.20308492,9.852434
88563077464626,0.43809232,0.09653863,9.77459
88563097321907,0.3934046,0.120764285,9.723248
88563117179186,0.36448073,0.13529858,9.936917
88563137040422,0.40091842,0.07770294,9.797268
88563156897831,0.45665783,0.10542609,9.609716
88563176755110,0.5356058,0.124129735,9.703958
88563196612518,0.5001234,0.14705269,9.768418
88563216469927,0.42690933,0.118071936,9.756908
88563236331034,0.38746044,0.10602135,9.798967
88563256188442,0.42253146,0.061832782,9.738909
88563276045851,0.40679777,0.21101959,9.744647
88563295903386,0.4254424,0.12753192,9.739996
88563315760794,0.5082727,0.07978174,9.752237
88563335618203,0.42029098,0.15218502,9.794787
88563355475183,0.38745248,0.15017748,9.730435
88563375332720,0.37209487,0.07189517,9.776289
88563395190257,0.37174615,0.089078836,9.801006
88563415047666,0.34535933,0.1992876,9.72262
88563434898929,0.38174072,0.13060087,9.732129
88563454756210,0.36296833,0.107797295,9.757465
88563474613491,0.3747639,0.12558283,9.867339
88563494470772,0.35107008,0.17943598,9.823995
88563514328181,0.3889729,0.09369371,9.787131
88563534185462,0.4030693,0.120106995,9.753883
88563554045887,0.3328965,0.09751647,9.662539
88563573903296,0.3614211,0.11866399,9.681427
88563593760705,0.40715164,0.09049952,9.723468
88563613618114,0.40374961,0.071244285,9.814552
88563633475523,0.40477073,0.09030808,9.899482
88563653335960,0.38258198,0.15203875,9.816798
88563673193497,0.30233175,0.14410408,9.843926
88563693051034,0.3759788,0.059221745,9.768212
88563712908443,0.44045562,0.105786495,9.663645
88563732765100,0.4349751,0.16469727,9.719851
88563752622637,0.3753221,0.103900634,9.845521
88563772480046,0.36907592,0.054077297,9.814162
88563792337564,0.33867118,0.09416152,9.738058
88563812195101,0.35845143,0.0654754,9.595131
88563832052636,0.40373236,0.08765726,9.667692
88563851896697,0.4580568,0.08255946,9.80352
88563871753978,0.509081,0.124087885,9.985911
88563891611129,0.45898992,0.035837244,9.827855
88563911468409,0.4763734,0.027149066,9.721392
88563931325690,0.4920301,0.06093142,9.875928
88563951161794,0.4886354,0.085382946,9.75197
88563971018562,0.55095035,0.116014384,9.649443
88563990875331,0.53843904,0.13868636,9.648686
88564010732226,0.47377503,0.041518,9.67507
88564030596010,0.3927529,0.028883075,9.817482
88564050452907,0.37440148,0.06217653,9.853888
88564070309802,0.40801495,0.037943076,9.815325
88564090166570,0.4759348,0.013958846,9.75716
88564110023467,0.4856599,0.051770393,9.787669
88564129880362,0.48007795,0.07730387,9.764434
88564149744588,0.46412352,0.108102545,9.777107
88564169601613,0.36646345,0.06421841,9.78945
88564189458638,0.3426557,0.02156075,9.772866
88564209315660,0.33029976,0.0022467023,9.652683
88564229172813,0.3922216,0.04835159,9.722055
88564249040080,0.41551366,0.043469414,9.74295
88564268897360,0.47009498,0.124872744,9.832279
88564288754513,0.40877968,0.06897458,9.855482
88564308611664,0.37103516,0.064806014,9.831664
88564328468494,0.38468763,-0.03784109,9.827311
88564348325647,0.389195,-0.020548359,9.756048
88564368182672,0.46199086,-0.0049978327,9.664535
88564388039825,0.42037848,0.026512098,9.6520815
88564407896978,0.4276343,-8.7376847E-4,9.722525
88564427754131,0.42529562,0.08396813,9.805909
88564447608980,0.33951345,0.026783166,9.936808
88564467466005,0.34167495,-0.055224255,9.857963
88564487323158,0.40562293,-0.049134742,9.79096
88564507180183,0.52196753,-0.023094606,9.698387
88564527037208,0.53268677,0.07136579,9.682787
88564546902179,0.49842033,0.09046725,9.74659
88564566759332,0.4430316,0.07992403,9.872296
88564586616613,0.4284794,-0.04976999,9.895845
88564606473766,0.402297,0.039445695,9.681202
88564626331047,0.37567207,0.016442444,9.631355
88564646188200,0.45425698,0.029892895,9.648767
88564666047711,0.5182619,0.14578342,9.805057
88564685904992,0.45674738,0.14945032,10.003771
88564705762273,0.37258407,0.023304602,9.859412
88564725619554,0.37636745,-0.11201099,9.725476
88564745477275,0.38748878,-0.011786457,9.8755865
88564765334684,0.39867723,0.071948655,9.718885
88564785191945,0.47446254,0.12331293,9.67714
88564805049353,0.5120409,0.07968738,9.639232
88564824906634,0.52679354,0.040348176,9.740086
88564844767716,0.40586436,0.061800558,9.832251
88564864625124,0.39304978,0.11711368,9.840434
88564884482661,0.33220997,0.14173353,9.745475
88564904340196,0.40622982,-0.020766677,9.746746
88564924197604,0.5180185,0.038551286,9.76402
88564944055141,0.5877835,0.06697981,9.755864
88564963911003,0.5938753,0.07916974,9.710825
88564983768539,0.49852735,0.18313138,9.787859
88565003626076,0.36630782,0.21119286,9.7875595
88565023483611,0.34418303,0.07998795,9.775503
88565043345325,0.40509352,-0.05558419,9.665522
88565063202862,0.5210618,0.036437362,9.610114
88565083060525,0.5468676,0.14210105,9.782462
88565102918061,0.46339738,0.1824287,9.822889
88565122775726,0.36924475,0.09640282,9.801816
88565142637441,0.31313112,0.068617284,9.768792
88565162495105,0.3890917,0.12938131,9.763404
88565182352898,0.40835315,0.21910778,9.82667
88565202210561,0.328271,0.16541886,9.723575
88565222068353,0.35141197,0.16647239,9.751152
88565241926018,0.36890858,0.13112661,9.755182
88565261790313,0.40193725,0.06356958,9.706134
88565281648234,0.38371602,0.09830647,9.735735
88565301506155,0.37876272,0.1085934,9.679146
88565321364076,0.4395673,0.1722361,9.762227
88565341221623,0.41264305,0.18153846,9.791513
88565361079544,0.4122552,0.13027953,9.789224
88565380937593,0.41865334,0.13081132,9.806297
88565400795642,0.37485218,0.13183516,9.76825
88565420653563,0.38295618,0.14388737,9.699992
88565440503500,0.38471118,0.122429945,9.653975
88565460361293,0.3968529,0.15596685,9.615118
88565480219086,0.41439983,0.20831443,9.875697
88565500076879,0.35458973,0.17311221,10.110206
88565519934672,0.25963464,0.09383261,9.901984
88565539792465,0.31283623,0.0014575503,9.69879
88565559641146,0.41762874,0.00766711,9.70737
88565579498555,0.5245088,0.08953376,9.667789
88565599355964,0.47057465,0.13667773,9.718787
88565619213373,0.43622443,-0.009950499,9.760418
88565639071604,0.4178565,-0.0412023,9.786755
88565658929141,0.34320298,-0.056536518,9.864598
88565678786550,0.21883085,-0.007471953,9.9221115
88565698643959,0.16050902,-0.050442044,9.721542
88565718501496,0.38669017,-0.11592024,9.578341
88565738358883,0.5232136,-0.031315964,9.674136
88565758224832,0.4817572,0.03223659,9.781838
88565778082369,0.35868698,0.025985312,9.881475
88565797940034,0.2889192,-0.08712205,9.745715
88565817797568,0.3090506,-0.10226395,9.776884
88565837655233,0.29192188,-0.09100666,9.813659
88565857515066,0.28803232,-0.01254917,9.746477
88565877372858,0.37714013,0.017852072,9.795312
88565897230651,0.42856058,-0.060714237,9.843744
88565917088314,0.43947062,-0.053963296,9.841182
88565936943010,0.38075414,-0.023715006,9.797437
88565956800675,0.3120294,-0.07011746,9.686249
88565976658466,0.34662825,-0.070972174,9.820446
88565996516130,0.35954937,-0.067223795,9.762696
88566016373795,0.41590154,0.0058846823,9.726171
88566036231586,0.4196703,-0.069220744,9.731255
88566056093005,0.43466762,-0.06576532,9.78191
88566075950798,0.4371465,-0.085176826,9.863455
88566095808461,0.40927833,-0.019094422,9.853439
88566115666253,0.4343529,-0.04432324,9.649962
88566135524046,0.4092633,-0.050303217,9.649582
88566155386675,0.42539433,-0.056842014,9.711447
88566175244595,0.4993586,0.056135636,9.8957815
88566195102388,0.42156893,0.01263921,10.007844
88566214960309,0.3900088,-0.018067626,9.838626
88566234819380,0.3537261,-0.01960012,9.716986
88566254677301,0.31804445,-0.010558088,9.550833
88566274535220,0.4215671,0.027601441,9.703016
88566294393140,0.51192695,0.065435745,9.81384
88566314251061,0.47214702,0.09240455,9.857698
88566334108980,0.36393324,-0.08253832,9.783614
88566353964052,0.30290368,-0.105855696,9.736354
88566373821973,0.41675436,-0.055363767,9.8560295
88566393679766,0.4400153,0.06307872,9.674024
88566413537687,0.49426574,-0.012296834,9.649901
88566433395480,0.50196046,-0.04189739,9.747097
88566453242543,0.45093757,0.009109291,9.754513
88566473100208,0.36516368,0.03653458,9.8521
88566492957873,0.29501987,0.05634976,9.823381
88566512815410,0.33414486,-0.024645133,9.702902
88566532673075,0.33878717,0.052091356,9.772469
88566552530740,0.36884987,0.026752982,9.754464
88566572381059,0.45610288,0.071413204,9.72197
88566592238468,0.382019,0.020856261,9.801316
88566612096005,0.32284537,0.018635083,9.799304
88566631953414,0.33018827,0.039889596,9.833583
88566651803021,0.30426067,0.034336887,9.712726
88566671660430,0.41680804,-0.03327969,9.641853
88566691517711,0.47809285,0.045069568,9.754344
88566711374992,0.44850802,0.029754872,9.786074
88566731232273,0.4739973,0.03807648,9.882551
88566751086146,0.39916053,0.017463433,9.831208
88566770943299,0.36278144,-0.0047571044,9.745348
88566790800580,0.34107557,0.0480759,9.760913
88566810657861,0.44064397,0.041492097,9.6280365
88566830514993,0.5011955,0.082316004,9.725744
88566850372274,0.400119,0.1044971,9.772564
88566870227621,0.37289494,-0.034980364,9.7957535
88566890084901,0.3303659,0.015330443,9.878049
88566909942054,0.34367734,0.022671945,9.795997
88566929799333,0.36733142,0.03223287,9.734503
88566949653201,0.44232282,0.0051576723,9.665824
88566969510354,0.49819863,-0.003603359,9.683639
88566989368749,0.43529186,0.07953597,9.822264
88567009225901,0.37420192,0.01291629,9.811317
88567029082926,0.36051807,0.0017187435,9.855119
88567048936530,0.32531366,0.048576407,9.800208
88567068793554,0.3336747,0.02145221,9.646181
88567088650579,0.4442268,-0.023892563,9.585503
88567108507474,0.51958215,0.07981691,9.805448
88567128364498,0.43718836,0.08138876,9.882711
88567148221395,0.35318705,0.025155472,9.84317
88567168075322,0.32089344,-0.049461506,9.728183
88567187932218,0.39720902,-0.003258722,9.746763
88567207789115,0.40367255,0.14943305,9.727579
88567227645882,0.45877215,0.045992855,9.718987
88567247504865,0.44191805,0.017554812,9.770739
88567267361762,0.3665182,0.036982454,9.73386
88567287218659,0.34716353,0.0841644,9.858483
88567307075428,0.32616103,0.091356725,9.859174
88567326932325,0.38836023,0.042340916,9.577856
88567346787746,0.41360986,0.08927521,9.604463
88567366644642,0.41693413,0.06776891,9.65821
88567386501539,0.44031677,0.05181379,9.839114
88567406358306,0.30378762,0.12169518,9.881735
88567426215202,0.2981967,0.05083831,9.890874
88567446072099,0.35306895,0.06614534,9.889701
88567465934920,0.42195755,0.1076593,9.746837
88567485791945,0.41797885,0.11508839,9.589244
88567505648842,0.39305022,0.08950186,9.595365
88567525505739,0.44671845,0.04338349,9.66052
88567545370054,0.42216817,0.09435619,9.837345
88567565227079,0.32719555,0.11360628,9.924622
88567585084104,0.26727456,0.08483965,9.905196
88567604941129,0.30208942,-0.055664152,9.793266
88567624798154,0.38642767,0.011054798,9.679991
88567644655179,0.4593983,0.020238683,9.687572
88567664514514,0.51321155,0.049302675,9.728351
88567684371539,0.52138907,0.030482687,9.718594
88567704228692,0.5119187,0.0040068384,9.785831
88567724085845,0.41058677,0.0935414,9.788644
88567743942998,0.33664095,0.015116335,9.790345
88567763807585,0.31944063,-0.012447043,9.785002
88567783664866,0.37114197,-0.03763785,9.684088
88567803522275,0.4536464,0.03286937,9.686019
88567823379537,0.4269981,0.070361726,9.794197
88567843239177,0.45526317,-0.03590921,9.852071
88567863096586,0.445047,-0.033397112,9.865768
88567882953993,0.371398,-0.016406972,9.757335
88567902811401,0.40230015,-7.3468254E-5,9.692914
88567922668938,0.46226093,-0.02969199,9.694194
88567942526345,0.49626464,0.0068772202,9.689951
88567962392360,0.44492346,0.023308914,9.833584
88567982250025,0.36376688,-0.038011044,9.842301
88568002107688,0.3721749,-0.022615256,9.831212
88568021965352,0.3533146,-0.024206446,9.90501
88568041823017,0.39174718,-0.010096797,9.722597
88568061680488,0.45233446,0.010305754,9.637412
88568081538280,0.46523404,0.018179934,9.721489
88568101395945,0.44686753,0.0074380552,9.69741
88568121253608,0.4180083,-0.016752986,9.810572
88568141111475,0.349372,-0.053130105,9.819519
88568160969140,0.35803264,-0.048234105,9.800247
88568180826803,0.36850014,-0.060164943,9.782188
88568200684595,0.41250002,-0.020812904,9.759075
88568220542260,0.46448308,0.024556402,9.738324
88568240399923,0.43886143,0.06900153,9.749527
88568260264536,0.36897108,0.09248221,9.753231
88568280122329,0.32026413,0.05522464,9.844256
88568299980122,0.3185958,0.09704671,9.773264
88568319837912,0.32834533,0.15497518,9.754802
88568339695705,0.30409816,0.12628375,9.743318
88568359546917,0.36352202,0.07046082,9.696035
88568379404581,0.39707002,0.12801078,9.775459
88568399262374,0.3742882,0.17747936,9.844456
88568419120037,0.34019077,0.16042852,9.834618
88568438972782,0.29444987,0.09756812,9.76686
88568458830319,0.33903453,0.085399315,9.725194
88568478687984,0.3930455,0.14965951,9.774134
88568498545649,0.38055748,0.2017209,9.747218
88568518403186,0.36186367,0.19748883,9.74387
88568538260846,0.36272946,0.11407358,9.740174
88568558113256,0.34926316,0.1267475,9.789166
88568577970793,0.3087785,0.19677782,9.850383
88568597828328,0.28752357,0.17488018,9.788396
88568617685864,0.30909124,0.14145374,9.681956
88568637543401,0.39727318,0.14420311,9.69268
88568657396937,0.4011875,0.18567741,9.785783
88568677254345,0.3861277,0.17887129,9.821453
88568697111882,0.39292702,0.11814637,9.865491
88568716969289,0.32979733,0.15115957,9.822384
88568736826697,0.26745477,0.16156705,9.696868
88568756684106,0.28730497,0.13584477,9.606427
88568776542604,0.39198732,0.1003094,9.576161
88568796400012,0.48020375,0.22814982,9.839277
88568816257421,0.33414134,0.26046765,10.086471
88568836114828,0.27169546,0.1145223,9.8126745
88568855962404,0.31774646,0.06846793,9.713765
88568875819685,0.26458856,0.14529864,9.679617
88568895676836,0.3117773,0.21725257,9.62655
88568915534116,0.43017787,0.25407225,9.703709
88568935391269,0.4316071,0.23997687,9.789228
88568955241441,0.34277958,0.13184775,9.760815
88568975096096,0.31766933,0.14213346,9.881961
88568994953121,0.30975774,0.17222556,9.770618
88569014810144,0.34005538,0.24236247,10.001478
88569034667040,0.25398013,0.21432231,9.676794
88569054524065,0.44411692,0.059694547,9.561729
88569074379138,0.4712172,0.22396457,9.661769
88569094236162,0.4128442,0.2860691,9.670512
88569114093059,0.30303922,0.19709036,9.797511
88569133950084,0.2945086,0.07788288,9.903406
88569153813505,0.36616603,0.028622927,9.814184
88569173670658,0.30973753,0.14887443,9.73944
88569193527811,0.3176375,0.13116907,9.722259
88569213384836,0.4160143,0.12435292,9.670021
88569233241989,0.4808162,0.13270552,9.662166
88569253103392,0.42460522,0.1108953,9.671815
88569272960545,0.38675302,0.14930326,9.815138
88569292817698,0.28107283,0.09804916,9.927192
88569312674851,0.30028346,0.021482626,9.836319
88569332531876,0.38521636,0.12801144,9.6914835
88569352389029,0.41241238,0.17201929,9.71873
88569372248606,0.38003403,0.14431897,9.742737
88569392105759,0.42211032,0.0654234,9.783958
88569411962912,0.44891113,0.019699614,9.782638
88569431820065,0.40116322,-0.033040293,9.788322
88569451679272,0.3266081,0.01781973,9.845854
88569471536425,0.30184302,-3.585766E-4,9.703305
88569491393706,0.42130053,-0.014552691,9.600261
88569511250859,0.5181816,-0.0016978633,9.683638
88569531108012,0.4801231,0.15065055,9.752185
88569550965165,0.3954873,0.13313808,9.891895
88569570817961,0.34526157,0.09367271,9.935087
88569590675114,0.30735114,0.14696509,9.804777
88569610532267,0.26576498,0.16121873,9.722781
88569630389420,0.33303952,0.15457615,9.652249
88569650246573,0.41463912,0.2430963,9.708729
88569670110504,0.42140427,0.26483777,9.804218
88569689967785,0.33246204,0.22331792,9.787056
88569709825066,0.29320392,0.14569776,9.760173
88569729682347,0.31184462,0.1295917,9.818505
88569749539914,0.30372548,0.16870397,9.831801
88569769397067,0.3336869,0.21211298,9.746989
88569789254348,0.3751166,0.1724673,9.72713
88569809111629,0.40656108,0.14019883,9.635896
88569828968910,0.39045355,0.19854274,9.7145815
88569848826178,0.37265036,0.18891235,9.798048
88569868693607,0.3161009,0.17375606,9.748496
88569888551144,0.33259255,0.10886709,9.70404
88569908408679,0.33733687,0.11239695,9.686246
88569928266343,0.3406664,0.21341285,9.811341
88569948123880,0.29890865,0.24710289,9.771326
88569967985750,0.27092478,0.19422917,9.666418
88569987843414,0.29501182,0.20523676,9.695116
88570007701079,0.35613766,0.24998179,9.823392
88570027558742,0.29809868,0.35229176,9.831672
88570047419001,0.2214644,0.28660366,9.814631
88570067276666,0.28285292,0.15237398,9.714271
88570087134457,0.3559714,0.27147436,9.786774
88570106992121,0.324207,0.2694948,9.85156
88570126849914,0.27768603,0.22199866,9.855292
88570146707577,0.28933364,0.15096456,9.805146
88570166561169,0.37565595,0.09935914,9.793672
88570186418834,0.40118426,0.20571971,9.759446
88570206276497,0.33378178,0.23892134,9.748663
88570226134162,0.31593928,0.20819655,9.698486
88570245991827,0.33690718,0.10240462,9.742207
88570265853572,0.34987074,0.08086809,9.8271475
88570285711233,0.2977397,0.09953059,9.803953
88570305569026,0.25460923,0.11672544,9.764586
88570325426689,0.29523292,0.08878505,9.766847
88570345284481,0.32399645,0.12162812,9.766179
88570365142274,0.35352516,0.15178874,9.747876
88570385003606,0.3849308,0.15466131,9.720931
88570404861526,0.33297417,0.20102395,9.767393
88570424719319,0.25001818,0.1503112,9.817514
88570444577240,0.26656538,0.09938658,9.863531
88570464424867,0.2378395,0.15251483,9.748544
88570484282532,0.23001948,0.16156149,9.720605
88570504140197,0.18605037,0.1452605,9.625386
88570523997862,0.23531014,0.1971053,9.774366
88570543855527,0.19033615,0.23692301,9.938439
88570563705596,0.1591927,0.18602312,9.977076
88570583563005,0.21723965,0.13929261,9.790681
88570603420542,0.32534882,0.12151055,9.713804
88570623277951,0.30884993,0.19868696,9.709535
88570643135488,0.21815547,0.32070935,9.757393
88570662992897,0.2253572,0.19105823,9.694094
88570682843498,0.34556395,0.14572757,9.675745
88570702700779,0.42003852,0.20345186,9.769063
88570722558060,0.3455083,0.29241902,9.856923
88570742415341,0.23372023,0.27005616,9.926348
88570762272798,0.30224386,0.076067366,9.78912
88570782130079,0.44179264,0.073185354,9.545655
88570801987343,0.415504,0.33903447,9.652279
88570821844623,0.35881782,0.376059,9.697575
88570841701904,0.29948676,0.35472018,9.661258
88570861552259,0.30002758,0.2509237,9.7711935
88570881409411,0.2719572,0.20766051,9.851126
88570901266564,0.21143878,0.26155362,9.846239
88570921123843,0.19628493,0.3609646,9.840283
88570940980995,0.26648393,0.3624695,9.728057
88570960838148,0.2811425,0.42864466,9.660607
88570980697957,0.2094551,0.48146123,9.707918
88571000553646,0.22452047,0.33432478,9.745256
88571020410799,0.21817808,0.36565587,9.851284
88571040267950,0.15387884,0.32594895,9.947245
88571060124464,0.09266689,0.26437604,9.903129
88571079981745,0.10359726,0.21709152,9.801109
88571099838896,0.18712996,0.1707088,9.670918
88571119696048,0.28455123,0.24061282,9.602385
88571139553329,0.2936314,0.3595527,9.69469
88571159410480,0.2819091,0.2869292,9.708159
88571179265863,0.17036529,0.24616635,9.758095
88571199122888,0.089854315,0.104691096,9.841873
88571218980039,0.15433945,0.044014983,9.811651
88571238837063,0.16980046,0.18437019,9.848641
88571258694088,0.22623475,0.20390871,9.762049
88571278559197,0.25444868,0.25151086,9.668803
88571298416349,0.21717088,0.28656474,9.686823
88571318273630,0.2455395,0.21021047,9.812972
88571338130781,0.26991704,0.13295485,9.827779
88571357980964,0.2625526,0.1023377,9.800276
88571377838117,0.2637463,0.082658894,9.748561
88571397695142,0.26537314,0.13955511,9.730608
88571417552167,0.30226916,0.22127774,9.794531
88571437409192,0.29622424,0.2575342,9.779487
88571457266217,0.30725437,0.2152651,9.812352
88571477124108,0.3203249,0.13489792,9.775464
88571496981133,0.29143566,0.081310704,9.877158
88571516838158,0.29776233,0.0930516,9.809503
88571536695183,0.31947994,0.108839765,9.726353
88571556552336,0.45650432,0.143411,9.623077
88571576412219,0.51515406,0.21244472,9.796373
88571596269372,0.5575829,0.20372556,9.777378
88571616126525,0.47337627,0.17250723,9.734072
88571635983678,0.42927256,0.1615625,9.7807
88571655840575,0.37515768,0.112078406,9.852852
88571675697728,0.35642552,0.13889028,9.820145
88571695554881,0.33405656,0.111683644,9.771194
88571715412034,0.42990863,0.11049069,9.680244
88571735269187,0.4051279,0.24248882,9.6956625
88571755126340,0.35945135,0.25207987,9.714252
88571774988833,0.3068941,0.17964494,9.795285
88571794846114,0.28463417,0.13487872,9.848852
88571814703267,0.267473,0.1656072,9.840201
88571834560526,0.3364095,0.16646332,9.799318
88571854417807,0.39683935,0.21641853,9.790577
88571874280953,0.36349118,0.26175904,9.7037735
88571894138361,0.37223572,0.30475524,9.711036
88571913995770,0.34118652,0.2862275,9.713534
88571933853305,0.31281638,0.24792771,9.75451
88571953719048,0.2663897,0.21678129,9.8485985
88571973576713,0.24977654,0.21707776,9.841881
88571993434376,0.25965166,0.23891145,9.747799
88572013292040,0.2568831,0.2776044,9.665702
88572033149705,0.24410796,0.29388183,9.699517
88572053007368,0.2231844,0.30659175,9.828576
88572072865588,0.21886182,0.26608524,9.755224
88572092723253,0.20624869,0.23082258,9.753551
88572112580916,0.17958103,0.17313914,9.712181
88572132438580,0.07979103,0.20164487,9.793487
88572152296245,0.14759652,0.16149694,9.769719
88572172150690,0.20371135,0.24395731,9.717727
88572192008226,0.17627801,0.27106842,9.68883
88572211865891,0.1402916,0.22240254,9.830367
88572231723426,0.20391764,0.21676102,9.9200325
88572251581091,0.1903561,0.28829604,9.824748
88572271438628,0.15238762,0.27239227,9.753919
88572291301843,0.15818985,0.23383313,9.662835
88572311159507,0.20005547,0.25898883,9.60663
88572331017172,0.22659568,0.32718468,9.723777
88572350874963,0.20592302,0.3048411,9.718375
88572370731717,0.15840767,0.29604948,9.830428
88572390589382,0.19568132,0.21412577,9.916674
88572410447173,0.102386385,0.2823558,9.859273
88572430304838,0.05153697,0.30964908,9.757059
88572450162631,0.0989458,0.2693129,9.588971
88572470008750,0.19969876,0.32022908,9.5565405
88572489866159,0.1511776,0.3428553,9.657992
88572509723568,0.1730838,0.3092284,9.687051
88572529581105,0.1118703,0.28493252,9.860238
88572549438514,0.11770652,0.26953506,9.927242
88572569295923,0.077116966,0.29784945,9.893883
88572589149138,0.10990444,0.30716848,9.766643
88572609006547,0.14000653,0.28486794,9.619444
88572628863956,0.20403467,0.33291802,9.551374
88572648721237,0.15785728,0.3637975,9.601786
88572668575362,0.1485381,0.26427302,9.822505
88572688432643,0.16298859,0.21680956,9.902366
88572708289924,0.15788215,0.2547955,9.940303
88572728147205,0.17428875,0.25028163,9.83862
88572748004486,0.13826272,0.27315015,9.786832
88572767862673,0.24702427,0.22352721,9.771777
88572787719937,0.3432065,0.31743285,9.6998
88572807577218,0.35033032,0.3134702,9.640481
88572827434497,0.24085467,0.20907107,9.707829
88572847291905,0.29463008,0.04403664,9.646048
88572867149186,0.30147976,0.13830563,9.681697
88572887001785,0.261197,0.19660765,9.913513
88572906859065,0.17145881,0.24074726,10.011774
88572926716346,0.23542769,0.14592218,9.863959
88572946573625,0.2827726,0.14708833,9.671418
88572966425182,0.28571856,0.22307044,9.63944
88572986282335,0.23583573,0.2652784,9.647246
88573006139486,0.2581764,0.20039953,9.786055
88573025997893,0.26368514,0.22034329,9.856145
88573045855046,0.24294284,0.2019764,9.864506
88573065707876,0.16042237,0.08670497,9.857344
88573085564900,0.26488656,0.080263704,9.700637
88573105421925,0.3623606,0.21084264,9.701335
88573125278948,0.4037402,0.2849488,9.692304
88573145135844,0.337349,0.31248763,9.763451
88573164992869,0.3644784,0.19917522,9.9060755
88573184849100,0.36130893,0.22260678,9.98539
88573204705997,0.33252347,0.24647586,9.938504
88573224563022,0.36855638,0.22387047,9.838441
88573244419916,0.3676838,0.1588969,9.741423
88573264278648,0.39172938,0.20867276,9.659588
88573284135545,0.31414396,0.2515032,9.66279
88573303992440,0.376313,0.23272042,9.707882
88573323849336,0.39232573,0.23078977,9.693236
88573343706233,0.29318017,0.23093545,9.747605
88573363563128,0.2510135,0.18796313,9.829956
88573383427458,0.27458337,0.18798257,9.879652
88573403284483,0.37022358,0.22473508,9.817248
88573423141506,0.37477252,0.26909453,9.729011
88573442998530,0.38399374,0.22160713,9.685543
88573462855555,0.36841208,0.16777514,9.682633
88573482720849,0.375818,0.15130769,9.717829
88573502578001,0.32455757,0.16991025,9.697654
88573522435154,0.30723646,0.14928369,9.706782
88573542292305,0.28760085,0.10469974,9.755582
88573562147810,0.26259255,0.14978915,9.759004
88573582004963,0.18987642,0.16481395,9.699907
88573601862242,0.1959618,0.1364057,9.696226
88573621719394,0.1944796,0.14615238,9.590667
88573641576547,0.15676889,0.15473586,9.640803
88573661433826,0.18594187,0.14122914,9.591378
88573681299188,0.18797626,0.23313299,9.571157
88573701156597,0.16398942,0.18731402,9.608237
88573721014004,0.19139987,0.19082339,9.676727
88573740871284,0.24805617,0.24600713,9.634718
88573760728693,0.31504726,0.18543942,9.590097
88573780586998,0.27900657,0.1761544,9.636307
88573800444406,0.3213382,0.17417797,9.702259
88573820301815,0.3698408,0.2393364,9.799831
88573840159222,0.33255684,0.30181184,9.789475
88573860016630,0.31591052,0.34706244,9.750649
88573879874039,0.34164757,0.28998575,9.770771
88573899726563,0.29382908,0.22933313,9.718436
88573919583971,0.1921136,0.13608873,9.614799
88573939441380,0.13011473,0.081338204,9.679122
88573959298787,0.045215096,0.10745858,9.8059845
88573979159700,0.013119557,0.1905222,9.829696
88573999017237,0.1138217,0.08382288,9.7258415
88574018874772,0.21846364,0.15027748,9.689627
88574038732308,0.2679224,0.17873378,9.664854
88574058589845,0.25174993,0.24302408,9.628152
88574078443906,0.29540324,0.17113724,9.580861
88574098301442,0.35325655,0.13907677,9.581087
88574118158851,0.32189864,0.13160723,9.616519
88574138016258,0.24885312,0.16895106,9.706586
88574157873666,0.23982888,0.18085398,9.682402
88574177731075,0.3101924,0.15904006,9.640171
88574197593189,0.34403196,0.12906325,9.598346
88574217450725,0.30932558,0.18132839,9.521405
88574237308134,0.26458967,0.17391975,9.448345
88574257165669,0.25553477,0.117696986,9.463522
88574277032354,0.20134437,0.14963305,9.501801
88574296890147,0.15509069,0.11551927,9.586177
88574316747810,0.22048701,0.11377762,9.666366
88574336605474,0.2501757,0.14555682,9.688807
88574356463139,0.27415904,0.17572239,9.696413
88574376317448,0.31133354,0.19169967,9.6908245
88574396175112,0.32879952,0.26901388,9.695682
88574416032777,0.2592921,0.26333427,9.777081
88574435890440,0.24733263,0.1744792,9.778492
88574455748104,0.2505437,0.1727548,9.693491
88574475605769,0.24267301,0.17126556,9.646569
88574495440648,0.2517907,0.2123915,9.625794
88574515297928,0.28204104,0.24754772,9.572542
88574535155081,0.3406734,0.25747514,9.458068
88574555012360,0.35907486,0.15262692,9.452517
88574574856925,0.30676082,0.1425523,9.552676
88574594713822,0.26885045,0.11972358,9.694925
88574614570717,0.24371532,0.14222257,9.837483
88574634427741,0.26044735,0.25302553,10.018449
88574654284638,0.2684181,0.30989602,10.022655
88574674137833,0.37862274,0.17447953,9.8459425
88574693994601,0.38083458,0.2682129,9.617066
88574713851370,0.23368886,0.30187702,9.404654
88574733708137,0.17062502,0.18400301,9.445592
88574753565033,0.23944233,0.09910105,9.509528
88574773421802,0.22716972,0.16530594,9.624229
88574793287273,0.18179831,0.22961247,9.803861
88574813144169,0.12628472,0.3095017,9.861895
88574833001066,0.03642,0.3210285,9.736276
88574852857961,0.06461869,0.24081077,9.66549
88574872698918,0.19444445,0.24937588,9.546498
88574892555559,0.2163113,0.32110697,9.551652
88574912412070,0.14858632,0.30751774,9.576002
88574932268710,0.06712596,0.3379353,9.673878
88574952125223,-0.004184079,0.33131024,9.742912
88574971981734,-2.6903616E-4,0.21107508,9.742434
88574991844492,0.04483171,0.21437159,9.655255
88575011701133,0.08476672,0.30907923,9.5863695
88575031557772,0.109223664,0.39612135,9.595029
88575051411585,0.09564012,0.42389622,9.615177
88575071268226,0.06933463,0.42282173,9.650714
88575091138744,0.04329334,0.38856596,9.658064
88575110995640,-0.021530993,0.4915509,9.748047
88575130852665,-0.14397797,0.7157793,9.826825
88575150709688,-0.26963463,0.87291884,9.750544
88575170567445,-0.36725676,0.96141076,9.6693535
88575190424342,-0.47118884,1.0988694,9.818689
88575210281237,-0.60928863,1.2840353,9.975197
88575230138133,-0.76154786,1.4609276,9.8615885
88575249995158,-0.89762664,1.3736908,9.45901
88575269852053,-0.66835696,0.913388,9.59042
88575289725412,-0.5526489,0.7848722,10.309821
88575309582693,-0.54414403,0.59505254,10.886881
88575329439972,-0.2668169,0.6974259,11.311241
88575349297252,-0.09496759,1.6891971,11.069353
88575369154532,-0.218332,-1.2888964,10.5704975
88575389016004,-0.83200413,-3.1689992,10.096751
88575408873412,0.026854254,0.49956176,10.583465
88575428730820,0.45425442,0.686132,10.640762
88575448588228,0.9799776,0.5116017,10.1077385
88575468445636,1.822032,0.7838703,9.686401
88575488303666,1.3018329,1.2152401,9.543273
88575508161074,-0.13883492,1.1499106,9.417022
88575528018354,-0.5669656,0.9013271,9.403508
88575547875762,-0.62694174,0.9702899,9.413183
88575567733042,-0.967535,0.75607425,9.283991
88575587597124,-1.4491409,0.46460003,9.1411915
88575607454660,-1.4424406,0.8668657,9.005037
88575627312196,-1.0246412,1.6472775,8.934644
88575647169732,-0.9751322,2.415611,8.917913
88575667027140,-1.1210865,2.4488478,9.15916
88575686890698,-1.690584,2.1087887,9.375798
88575706748362,-1.7212422,1.7730973,9.040967
88575726606026,-1.7514884,2.309978,8.748659
88575746463690,-2.9704826,3.1320765,9.12514
88575766321354,-3.5567958,4.5417457,9.862688
88575786189672,-3.8663898,4.5670915,9.530733
88575806047592,-3.4048097,3.103583,8.31746
88575825905512,-0.61769277,1.0626879,7.587358
88575845763560,5.6619587,-3.338986,3.925188
88575865621480,10.266526,-2.8631501,13.53325
88575885486073,5.682262,3.9559503,29.408186
88575905344377,1.2840427,-3.4918513,7.071565
88575925202553,1.7687368,-3.6233604,-0.2923193
88575945060857,1.3430766,-3.5486727,6.3792367
88575964919161,0.8850268,-4.8931804,9.168292
88575984778757,3.2916574,-5.4225936,9.081267
88576004637189,1.5304959,-4.2483697,11.57468
88576024495493,0.5396762,-2.2079794,12.110482
88576044353925,1.8626325,-1.5163326,10.097125
88576064212357,0.75323385,-2.8396711,9.250581
88576084058489,-0.6287408,-1.2937208,9.321603
88576103916537,-0.7228497,1.223433,8.156164
88576123774713,-1.2630379,-0.040708777,8.128855
88576143632761,-0.8006709,-1.0267395,9.264074
88576163490809,-0.69567853,0.3036062,8.918522
88576183344432,-0.6058225,-0.98747516,8.741902
88576203202352,-0.5046517,-0.84901845,8.894621
88576223060272,0.25996873,0.4103371,8.457375
88576242918320,0.3679004,-0.49401188,8.073028
88576262776240,-1.0908266,-0.23443997,8.339668
88576282637628,-2.730367,0.05248013,9.196416
88576302495548,-3.3285897,-0.76411015,10.152842
88576322353596,-3.2276583,0.5856254,11.263479
88576342211644,-3.0468197,3.8773103,12.289771
88576362069564,-2.3032851,4.2257514,11.963322
88576381927380,-2.3223975,1.3131077,12.209707
88576401785428,-2.8828487,-1.8242964,13.1930895
88576421643604,-3.3040707,-1.837165,14.107819
88576441501652,-2.9772677,-1.0739185,14.018533
88576461359700,-2.4411411,-2.0102353,10.989075
88576481196197,-3.4254851,-1.6400894,9.521707
88576501053733,-1.2922561,-4.4401174,12.899703
88576520911269,-0.68119454,-4.6730595,14.712666
88576540768677,-4.0819383,0.52314013,14.706842
88576560626213,-4.4956646,-2.425993,13.094073
88576580469313,-1.4503876,-8.8749485,7.687647
88576600326465,0.13984683,-10.120137,4.792663
88576620183617,1.4728669,-7.036945,5.359972
88576640040769,1.4611193,-3.9654195,6.170478
88576659898049,2.2341409,-2.3576798,5.5102496
88576679753458,4.1236897,-2.2432637,4.529179
88576699610610,4.8119454,-0.46032476,3.4189517
88576719467762,4.1649904,2.056868,3.8570597
88576739324914,4.630418,2.9079397,5.6902895
88576759182066,3.0823054,2.4501903,7.1318903
88576779039242,0.26171237,0.21935454,8.881554
88576798896394,-1.2873785,1.8045833,12.825141
88576818753418,0.95962954,3.2860863,15.932659
88576838610570,-18.696346,8.331572,15.459158
88576858467594,-8.96766,-2.4053648,9.724254
88576878319559,15.125995,-21.069399,2.8024645
88576898176583,8.840619,-13.828799,10.218998
88576918033479,3.0636218,-0.4349921,12.919283
88576937890503,-5.9858747,7.064946,13.093727
88576957747527,9.423288,-6.8009195,7.53968
88576977604551,8.131347,-4.7474256,9.293832
88576997461245,3.0695703,2.6783276,13.944703
88577017318141,3.3552732,-1.5779843,11.146039
88577037175037,2.3754547,-3.1052723,8.711561
88577057032061,0.8064906,-1.7300979,7.197394
88577076873922,0.97137374,0.28690875,7.732851
88577096725928,3.2156239,0.8467949,6.9716773
88577116582696,2.2905958,0.6077509,7.1106606
88577136439464,-1.1604899,1.620528,9.119373
88577156296360,-3.2979882,-1.1411202,9.000608
88577176153128,-1.6582382,-3.039498,9.01287
88577196014430,-0.49836525,-2.691429,9.039444
88577215871326,1.332326,-1.5117586,9.302771
88577235728222,2.7940996,-1.8681834,9.866386
88577255584990,-1.5155592,-3.1641443,11.403582
88577275441886,-5.296001,-2.1114876,12.251494
88577295306515,-4.369974,-0.34674466,12.370819
88577315163539,-2.3196557,-1.6070163,11.924926
88577335020563,-1.1312995,-3.0269558,12.511925
88577354877459,0.15923266,-3.422179,13.327648
88577374734483,0.41905937,-3.1056626,12.98267
88577394597260,-0.22214252,-3.7398157,13.074366
88577414454412,-0.61163354,-4.6979437,10.208291
88577434311436,1.5028023,-5.9251804,11.281208
88577454168588,4.0584006,-4.420787,14.129265
88577474025740,5.310247,-3.4838674,13.069162
88577493885249,2.968595,-4.246214,12.763911
88577513742401,1.7618091,-3.4910219,12.861191
88577533599681,2.6500993,-3.1889472,11.494621
88577553456833,5.778991,-2.5689225,8.622598
88577573313985,9.474499,-2.178474,5.001747
88577593174702,9.181335,-0.7958584,4.4080005
88577613031982,7.994122,1.4338137,3.7353327
88577632889262,4.4480505,2.5988405,3.7618082
88577652746542,-0.08089156,3.830738,5.0499287
88577672603822,-1.368162,4.7003202,5.485968
88577692466330,-0.8399484,3.7129257,5.348635
88577712323738,-1.5205629,3.3518217,5.72555
88577732181146,-1.5946934,2.8045557,6.9517903
88577752038426,0.3805065,1.8242999,8.458674
88577771895834,0.372387,1.1629287,11.088142
88577791759879,-1.4507371,0.21771397,12.885436
88577811617415,-5.094765,-5.3487024,19.330837
88577831474951,1.5002135,-13.999714,18.625513
88577851332487,15.68447,-5.1346397,4.5232587
88577871190023,16.03445,-1.2113585,4.6544213
88577891050526,8.051933,3.9165063,13.20154
88577910908318,5.0874596,8.454081,12.4615135
88577930765982,-2.6450293,2.53754,8.539997
88577950623774,-8.652439,-2.3190691,5.238939
88577970481438,-2.3879292,6.322514,4.673425
88577990342868,1.3609886,8.392041,8.377838
88578010200660,1.209927,8.057288,11.405886
88578030058580,7.0087595,10.996993,10.812153
88578049916372,5.4240737,4.3207936,11.164707
88578069774292,1.4902866,-5.95018,13.229889
88578089622848,5.225826,-1.4946388,9.25384
88578109480512,2.3095043,-0.8267416,8.778581
88578129338176,1.1650592,-3.3596394,8.380078
88578149195840,1.5919179,-0.9107218,8.936029
88578169053504,1.5092087,1.5052688,8.549291
88578188906224,1.3116581,2.0065572,8.0404625
88578208763760,1.5078835,2.2086542,8.720738
88578228621168,1.3356514,1.0815165,8.827949
88578248478704,1.5525708,-1.0278612,8.6713
88578268336240,1.9941329,-3.7369106,9.290162
88578288201614,2.4878714,-5.1817455,9.677154
88578308059278,3.0730917,-3.0331614,9.835228
88578327916942,3.1824226,-1.9203347,9.280481
88578347774606,3.582275,-2.3939357,9.881561
88578367632271,3.3794727,-1.8877559,11.481721
88578387487254,2.357336,0.053137645,12.070562
88578407344919,0.36594263,0.35398465,13.831001
88578427202580,0.54065365,0.40899855,12.947159
88578447060244,0.97350776,4.4944687,10.889829
88578466917908,2.105085,5.762912,11.323037
88578486770160,2.523761,1.1765895,12.746667
88578506627568,2.342336,-0.8761062,13.675031
88578526485105,2.230886,1.0618985,11.836655
88578546342642,0.9428516,2.531387,9.8688755
88578566200051,-0.21091685,1.104682,9.326619
88578586052400,-0.21499301,1.2448246,8.50101
88578605909681,-0.30453256,1.5520803,6.8655753
88578625767090,-0.25684956,0.9044586,6.035728
88578645624499,-0.852292,-0.074215665,6.383939
88578665481908,-0.929995,-1.529214,6.2399144
88578685332539,-0.10617462,-0.86344725,5.288999
88578705189692,-0.19730136,1.7901964,6.10125
88578725046845,-0.35749152,3.225981,7.464553
88578744904126,0.044980574,1.7304664,8.372075
88578764761279,0.12225742,-0.17567062,9.325626
88578784605886,0.62147963,-3.5674076,12.535252
88578804462782,4.0827136,-11.667654,15.235076
88578824319678,6.2989635,-4.5216,11.286939
88578844176702,3.5695202,5.360373,7.7688437
88578864033598,1.3151207,2.1017287,7.0770726
88578883890462,1.1360817,-1.6839793,9.5839
88578903747358,2.2488403,-2.0255566,14.377562
88578923604254,3.2752826,1.4783717,17.328423
88578943461150,-0.9491033,6.3549595,15.124508
88578963318174,-3.4085765,3.759201,11.634119
88578983180738,-1.6035168,-0.07248886,7.393464
88579003037762,-1.9772389,-1.5097181,6.1967716
88579022894786,-1.6069405,3.0233953,8.451072
88579042751810,1.3968354,4.4093256,11.199811
88579062608834,3.3241673,5.1168294,12.243303
88579082461835,3.3410585,4.729223,10.803648
88579102321328,1.2695509,0.40875545,10.038343
88579122178225,-0.29414532,-2.0894816,9.958063
88579142035120,-0.7527721,0.120288506,10.200913
88579161892016,0.3594004,1.3493651,8.503894
88579181754879,1.168442,2.1685693,8.820659
88579201611775,1.694022,2.7201965,10.26707
88579221468799,1.7133874,1.344696,10.527003
88579241325823,1.1062057,-0.9935274,9.4448395
88579261182848,0.6336154,-1.1459637,9.463701
88579281043107,0.3899256,-1.7296592,10.506868
88579300900260,0.39075395,-1.4576259,10.701039
88579320757285,0.56971234,-0.6897373,9.925727
88579340614438,1.3171246,0.462487,9.021081
88579360471463,1.829196,1.2602696,8.986324
88579380330834,1.1564127,1.408048,9.655851
88579400187987,0.3394902,0.6949522,11.40499
88579420045140,0.4450141,-1.3026971,12.656981
88579439902293,0.8904844,-1.4938759,11.724597
88579459759446,0.96535325,0.13694197,10.671443
88579479622901,0.37642625,1.6578951,9.344651
88579499480182,-0.2709844,1.8300066,8.368631
88579519337463,0.020664066,0.28231245,8.302893
88579539194616,1.2659994,-0.41243342,8.90614
88579559051897,2.1853712,0.081717856,9.673315
88579578909178,2.3140376,0.5529712,10.380405
88579598769809,1.4898415,0.2702199,10.476398
88579618627090,0.77146333,-0.43455648,10.380786
88579638484499,0.46093383,-0.67448384,10.435803
88579658341780,0.18138623,-0.53355575,10.336245
88579678199189,-0.029731853,-0.38935027,10.003093
88579698055768,-0.0551175,-0.5727985,9.746245
88579717913028,0.2649107,-0.5954407,9.683577
88579737770309,0.40107548,-0.44333223,9.289952
88579757627718,0.5953486,-0.1855081,9.115235
88579777484999,0.99820423,0.0023639577,9.447433
88579797344314,1.2491403,0.17506318,9.812583
88579817201595,1.3216481,0.19298948,9.635346
88579837058871,0.7612405,0.2118687,8.960234
88579856916279,-0.052993,-0.33708763,8.847604
88579876773559,-0.35332066,-0.36221984,9.130305
88579896636270,-0.42250958,-0.17175208,9.779764
88579916493806,-0.4336709,-0.52966183,10.20369
88579936351342,0.08158267,-0.672024,10.346223
88579956209006,0.8385773,-0.3040244,10.360522
88579976066542,1.1375161,-0.03975734,10.295412
88579995926217,1.0797199,-0.23855065,10.29903
88580015783881,0.7544386,-0.7406982,10.286023
88580035641545,0.21515083,-0.52952987,9.929219
88580055499081,-0.24105664,-0.1427393,9.554782
88580075356745,-0.19673221,0.30378422,9.321529
88580095219517,0.20827927,0.52212876,9.515047
88580115077309,0.5527868,0.2307331,9.894467
88580134935101,0.81892073,0.08527456,9.959426
88580154792893,0.8025115,0.1732242,9.863948
88580174650557,0.55834,0.29027152,9.849558
88580194510379,0.39257932,0.4101951,9.859048
88580214368171,0.27718708,0.37435088,9.800704
88580234226092,0.16335236,0.34213686,9.762234
88580254083885,0.11084459,0.36333126,9.657561
88580273941675,0.22076467,0.41916516,9.59678
88580293800071,0.53184,0.39891148,9.614312
88580313657863,0.761164,0.20729147,9.550637
88580333515783,0.89122754,0.1791646,9.590616
88580353373575,0.9764941,0.15796559,9.68349
88580373231495,0.963516,0.091259606,9.910098
88580393069825,0.9071948,0.04271302,9.846379
88580412927233,0.8478821,0.085415766,9.79048
88580432784641,0.64545625,0.011546683,9.816353
88580452642049,0.31408644,-0.19697864,9.761473
88580472499458,0.30975166,-0.1327201,9.719859
88580492352825,0.6337304,-0.034189068,9.713484
88580512210105,0.87460315,0.07692201,9.832664
88580532067385,0.8057701,0.07557372,9.847212
88580551924665,0.5889913,-0.07051972,9.729997
88580571782073,0.52249306,-0.14853638,9.58596
88580591630259,0.56740785,-0.09059311,9.67126
88580611487411,0.50641745,-0.07267437,9.845386
88580631344563,0.42579526,-0.17432871,9.94195
88580651201715,0.41620943,-0.26238993,9.942513
88580671058867,0.4173326,-0.29049617,9.885419
88580690908547,0.52334845,-0.24283373,9.792993
88580710765443,0.5517109,-0.25259617,9.770026
88580730622339,0.52904606,-0.25476968,9.843467
88580750479363,0.40518492,-0.2802848,9.776378
88580770336259,0.30664724,-0.2776622,9.826104
88580790198007,0.4089667,-0.23597242,9.755627
88580810055031,0.5804972,-0.123930074,9.745553
88580829912055,0.61215687,-0.032102272,9.720238
88580849769079,0.5038932,-0.023175018,9.680011
88580869626103,0.43473148,-0.026365543,9.727938
88580889481762,0.39545223,-0.0424234,9.8342705
88580909338786,0.36305636,-0.087629534,9.90358
88580929195682,0.38725546,-0.14754494,9.97456
88580949052706,0.45339853,-0.105622716,9.743638
88580968909602,0.4255003,-0.08151847,9.784189
88580988767449,0.3904612,-0.13822438,9.72254
88581008624345,0.46731278,-0.21976358,9.782139
88581028481241,0.53533703,-0.16016696,9.73945
88581048338137,0.46164066,-0.16220182,9.856224
88581068195033,0.4682885,-0.16439219,9.771345
88581088051474,0.46869874,-0.16472416,9.796822
88581107908370,0.48240444,-0.11355458,9.671806
88581127765394,0.6000664,-0.11647479,9.604287
88581147622290,0.6187069,-0.12490022,9.66948
88581167479186,0.52189374,-0.17169505,9.802012
88581187337182,0.5263432,-0.20680146,9.798193
88581207194078,0.5419154,-0.16295017,9.786229
88581227051102,0.4725578,-0.17977442,9.834288
88581246907998,0.44292468,-0.22048664,9.735372
88581266764894,0.41337582,-0.24087954,9.754549
88581286628312,0.4475337,-0.22171101,9.744354
88581306485336,0.46877575,-0.2014687,9.662908
88581326342360,0.58615154,-0.18057321,9.759646
88581346199384,0.5132271,-0.15769847,9.8576975
88581366056408,0.40371716,-0.23950224,9.907956
88581385917271,0.37119263,-0.21751204,9.625312
88581405774423,0.36649188,-0.15203275,9.612987
88581425631447,0.40802,-0.23171541,9.81265
88581445488599,0.5092124,-0.23693083,9.792887
88581465345623,0.4883491,-0.25567505,9.7476635
88581485207176,0.45958602,-0.20255259,9.788941
88581505064328,0.45309892,-0.28302783,9.78756
88581524921480,0.48149574,-0.34814104,9.726606
88581544778632,0.43733412,-0.24154662,9.662229
88581564635784,0.39929944,-0.23428454,9.690284
88581584497556,0.47966406,-0.30291256,9.737077
88581604354836,0.41471267,-0.3616488,9.802743
88581624212244,0.48794973,-0.29447228,9.827733
88581644069524,0.5084545,-0.24098141,9.676918
88581663926804,0.444766,-0.2275916,9.7417
88581683791965,0.3719404,-0.24402182,9.762779
88581703649501,0.40719184,-0.2336003,9.806299
88581723507037,0.4329791,-0.25457752,9.868015
88581743364573,0.4475766,-0.21853179,9.833924
88581763221981,0.48870495,-0.193125,9.686601
88581783089424,0.38152704,-0.20147079,9.600952
88581802947216,0.40411422,-0.17569752,9.685987
88581822805008,0.40842223,-0.2113735,9.7821665
88581842662800,0.43111354,-0.27897164,9.874748
88581862520464,0.6009621,-0.25493324,9.894365
88581882376407,0.56570417,-0.15927052,9.877165
88581902234199,0.500912,-0.20127554,9.834369
88581922091991,0.39728802,-0.29984617,9.519189
88581941949911,0.41935503,-0.12940882,9.514377
88581961807703,0.27598447,-0.17007053,9.731785
88581981661137,0.47132903,-0.20671262,9.812572
88582001518929,0.5916776,-0.25071925,9.800375
88582021376593,0.6074512,-0.11786328,9.818373
88582041234385,0.6391215,-0.022006907,9.848311
88582061092049,0.48856175,-0.0820736,9.81002
88582080947316,0.23530258,-0.17224796,9.714899
88582100804980,0.24477626,-0.1413245,9.685406
88582120662772,0.40955842,-0.09462244,9.737262
88582140520436,0.5437874,-0.056142177,9.803423
88582160378228,0.5413194,-0.10511921,9.814919
88582180228754,0.48664317,-0.13742062,9.76628
88582200086162,0.4846807,-0.083025664,9.62695
88582219943698,0.45301434,-0.0022823482,9.681266
88582239801234,0.39886156,-0.04327821,9.777705
88582259658770,0.4255076,-0.07582348,9.792787
88582279522675,0.45339465,-0.08964062,9.796773
88582299380339,0.5152932,-0.02243686,9.813965
88582319237875,0.56276506,0.026530452,9.818475
88582339095539,0.46105784,-0.0042368616,9.746775
88582358953203,0.38393974,-0.055825677,9.649846
88582378814303,0.40523747,-0.034111727,9.755885
88582398671967,0.43205267,-0.04859663,9.8449135
88582418529631,0.49511847,-0.07317738,9.887181
88582438387423,0.57441896,-0.01809067,9.766391
88582458245087,0.5574228,0.022591798,9.714631
88582478095467,0.4686186,-0.019649135,9.74766
88582497953131,0.42978996,-0.07909537,9.701109
88582517810667,0.41410226,-0.042995863,9.7513275
88582537668203,0.45907608,0.016794236,9.814509
88582557525739,0.5162175,0.006917469,9.829307
88582577376277,0.5988105,-0.04724093,9.707469
88582597233813,0.5181104,0.003424485,9.662075
88582617091222,0.46796277,0.066577345,9.69333
88582636948631,0.5800874,0.12501228,9.762868
88582656806037,0.5784617,-2.450425E-4,9.789983
88582676658110,0.6010722,-0.016527887,9.808789
88582696515390,0.53260964,0.048214063,9.779851
88582716372670,0.5279061,0.08784439,9.842075
88582736229822,0.4876341,0.08914382,9.736719
88582756087102,0.43611836,0.09236941,9.669413
88582775944382,0.42858243,0.050890405,9.703339
88582795803868,0.45185202,0.06410497,9.780016
88582815661148,0.5143775,0.12915163,9.849144
88582835518428,0.4133757,0.114929795,9.845584
88582855375708,0.43411592,0.031509917,9.782451
88582875232988,0.5277672,0.06016438,9.746242
88582895085836,0.4429233,0.1650046,9.765197
88582914942988,0.39753976,0.16067053,9.768163
88582934800140,0.404013,0.06638866,9.779718
88582954657292,0.4638395,0.12819335,9.818477
88582974514572,0.4896239,0.19019331,9.828613
88582994373874,0.47133708,0.18385929,9.742335
88583014231026,0.43110138,0.22422923,9.613165
88583034088306,0.41145483,0.22077893,9.755234
88583053945458,0.3883666,0.20290339,9.822959
88583073802610,0.45297825,0.11336782,9.884703
88583093653319,0.43179765,0.13395432,9.770722
88583113515957,0.41983593,0.19247608,9.770112
88583133373109,0.48033798,0.15863518,9.775233
88583153230133,0.45115572,0.18592042,9.68267
88583173087285,0.3743026,0.1133736,9.695496
88583192947088,0.4206912,0.089468785,9.7152815
88583212804240,0.5330172,0.15830477,9.759791
88583232661393,0.52308357,0.21580426,9.82059
88583252518546,0.47430792,0.17840073,9.867052
88583272375571,0.46368912,0.059421703,9.750371
88583292232814,0.46179503,0.09430158,9.675845
88583312089967,0.4529347,0.10743428,9.722548
88583331947114,0.46299562,0.17101386,9.845676
88583351804266,0.4584905,0.11506033,9.809322
88583371661290,0.4784589,0.19428979,9.777755
88583391521983,0.45295855,0.34834272,9.754859
88583411379135,0.45514768,0.17958741,9.815174
88583431236415,0.45114127,0.11704018,9.838886
88583451093695,0.39879516,0.13961619,9.750927
88583470950847,0.47685513,0.22299907,9.8377495
88583490808925,0.5142322,0.26954952,9.756169
88583510666205,0.49193364,0.30200446,9.716408
88583530523357,0.45108333,0.25053993,9.676187
88583550380637,0.4737546,0.17412467,9.631452
88583570237789,0.53036237,0.23176956,9.666558
88583590094910,0.50377744,0.20469305,9.789728
88583609952190,0.50900704,0.18120843,9.821889
88583629809342,0.584932,0.1016903,9.866073
88583649666494,0.54177696,0.11960219,9.803394
88583669523774,0.53731936,0.18445002,9.710231
88583689380784,0.58348316,0.20496237,9.662302
88583709237936,0.4980014,0.17132144,9.700303
88583729095088,0.45315617,0.13651672,9.726225
88583748952240,0.48822668,0.19457276,9.757699
88583768809392,0.521536,0.2793522,9.884407
88583788672956,0.46453446,0.29068175,9.755375
88583808530236,0.47465286,0.2632538,9.655871
88583828387516,0.4237644,0.24527544,9.613663
88583848244796,0.33030152,0.23460059,9.75357
88583868102076,0.39224958,0.13549562,9.80007
88583887963756,0.41229665,0.107627414,9.771078
88583907821164,0.43693098,0.20896843,9.779866
88583927678700,0.4698306,0.21847379,9.859917
88583947536108,0.51657814,0.18675838,9.795748
88583967393516,0.4971459,0.19720456,9.646293
88583987254916,0.41613963,0.1510136,9.737143
88584007112452,0.42782104,0.1153535,9.805919
88584026970116,0.474209,0.16196239,9.895819
88584046827652,0.49987605,0.21403976,9.855937
88584066685188,0.48870206,0.21179521,9.755568
88584086542858,0.53028804,0.18454278,9.681516
88584106400394,0.46178058,0.2287957,9.645494
88584126258058,0.33474427,0.17613468,9.736429
88584146115594,0.42199206,0.09396007,9.922632
88584165973130,0.5297813,0.15445901,9.851412
88584185827722,0.48617283,0.31812802,9.753642
88584205685131,0.40392256,0.39163494,9.63378
88584225542666,0.35381463,0.22473153,9.651667
88584245400202,0.4222143,0.16877237,9.724601
88584265257610,0.3428109,0.18699574,9.808962
88584285119779,0.35581356,0.33927333,9.942769
88584304977443,0.4516281,0.2460403,9.775067
88584324834980,0.47622076,0.3886127,9.732702
88584344692517,0.35876825,0.28838736,9.772552
88584364550182,0.3770043,0.26469362,9.749435
88584384408955,0.38095436,0.15913196,9.712361
88584404266620,0.33638668,0.23054856,9.745939
88584424124285,0.4300065,0.3496558,9.829724
88584443981950,0.48932412,0.34522504,9.8024
88584463839615,0.37385494,0.2978886,9.694812
88584483687648,0.31696123,0.26012877,9.679451
88584503545185,0.35739797,0.252806,9.725805
88584523402594,0.36415002,0.24655552,9.765827
88584543260131,0.38110432,0.26878917,9.753683
88584563106782,0.4178472,0.2573181,9.798149
88584582964063,0.4754858,0.28462046,9.920104
88584602821344,0.42375702,0.28897527,9.878058
88584622678625,0.38182548,0.29147962,9.741913
88584642535906,0.3175077,0.23669735,9.547568
88584662393187,0.3241013,0.25603384,9.595482
88584682241502,0.3365541,0.20385733,9.801222
88584702098527,0.43176696,0.25680265,9.866237
88584721955552,0.41397107,0.29876208,9.763282
88584741812577,0.38269833,0.34990996,9.769811
88584761669602,0.4103664,0.3325924,9.857032
88584781522752,0.42040765,0.26297078,9.770131
88584801379776,0.33464882,0.15348305,9.67853
88584821236673,0.27070558,0.12545604,9.764091
88584841093696,0.42254743,0.17965066,9.857777
88584860950054,0.4909671,0.22049801,9.8576975
88584880806951,0.46552068,0.26544067,9.727769
88584900663846,0.35005617,0.18148969,9.655153
88584920520742,0.3833056,0.11671818,9.683612
88584940377639,0.42055583,0.14018892,9.862968
88584960234534,0.3933734,0.18756065,9.876639
88584980095361,0.43053064,0.21913764,9.903436
88584999952258,0.44459143,0.16434982,9.731524
88585019809281,0.388605,0.3001945,9.681276
88585039666177,0.34813926,0.19752449,9.6900215
88585059523074,0.3759117,0.1668142,9.747558
88585079378963,0.3942995,0.11016416,9.78594
88585099235859,0.4153899,0.22924502,9.815279
88585119092756,0.46886227,0.30965844,9.7673645
88585138949651,0.46375036,0.27993426,9.762792
88585158808216,0.42008525,0.14457507,9.753481
88585178665113,0.40247005,0.10640693,9.672158
