UPTIMENANO,Ax,Ay,Az
54515782025935,1.6813037,-9.656719,-1.2525953
54515801881808,1.7220191000000002,-9.685459,-1.2310401000000002
54515821737681,1.6645386000000002,-9.623189,-1.2334352
54515841593554,1.6286133999999999,-9.582474000000001,-1.1999048
54515861451123,1.6381934999999999,-9.544153,-1.2334352
54515881306996,1.6549585999999998,-9.568104,-1.2454101999999998
54515901162869,1.6621436,-9.620794,-1.2478052
54515921018870,1.6453785,-9.644744000000001,-1.2502003000000002
54515940875363,1.6645386000000002,-9.678274,-1.2525953
54515960731236,1.6956740000000001,-9.75252,-1.2310401000000002
54515980587087,1.6836988000000002,-9.726174,-1.2478052
54516000442960,1.710044,-9.745335,-1.2118799999999998
54516020298833,1.705254,-9.80521,-1.22625
54516040154834,1.590293,-9.6615095,-1.2597803
54516060010823,1.6310083999999998,-9.560919,-1.2549903
54516079866696,1.705254,-9.536968,-1.2525953
54516099722569,1.6765138,-9.515413,-1.2693603999999998
54516119578442,1.6477735,-9.503438000000001,-1.22625
54516139434315,1.6860938,-9.551338000000001,-1.1639795
54516159295796,1.6477735,-9.551338000000001,-1.2430152
54516179151797,1.6357985000000002,-9.601633999999999,-1.2693603999999998
54516199007926,1.6645386000000002,-9.6758795,-1.22625
54516218863927,1.6884888,-9.702225,-1.214275
54516238719928,1.705254,-9.704619000000001,-1.2454101999999998
54516258575929,1.6741188000000002,-9.711803999999999,-1.2573853000000002
54516278439390,1.6645386000000002,-9.707015,-1.2765454
54516298295519,1.7028589,-9.656719,-1.2645704
54516318151776,1.7339942,-9.616004,-1.2645704
54516338008033,1.6932789000000001,-9.592053,-1.2166698999999999
54516357862156,1.6597486000000001,-9.601633999999999,-1.2118799999999998
54516377718413,1.6381934999999999,-9.594449000000001,-1.22625
54516397574542,1.6573536,-9.608819,-1.2933106
54516417430799,1.6908839,-9.635164,-1.2885206
54516437286928,1.6932789000000001,-9.695039999999999,-1.2525953
54516457140007,1.6765138,-9.683064,-1.2118799999999998
54516476996136,1.7172291000000002,-9.716595,-1.2070899
54516496852393,1.710044,-9.716595,-1.2406201000000001
54516516708522,1.6717237,-9.6758795,-1.2406201000000001
54516536564651,1.6836988000000002,-9.711803999999999,-1.2478052
54516556420908,1.6621436,-9.678274,-1.2861254999999998
54516576277457,1.6573536,-9.580078,-1.2717555
54516596133586,1.6573536,-9.584868,-1.2286451
54516615989715,1.6429833999999999,-9.608819,-1.2406201000000001
54516635845844,1.6501685000000001,-9.620794,-1.2406201000000001
54516655697407,1.6717237,-9.642349000000001,-1.2166698999999999
54516675553408,1.6693287,-9.637559,-1.1567944
54516695409537,1.6477735,-9.620794,-1.2621753
54516715265538,1.6549585999999998,-9.678274,-1.2981006000000002
54516735121667,1.6573536,-9.721385,-1.2669654
54516754977838,1.6741188000000002,-9.685459,-1.2046948999999998
54516774833967,1.7004639,-9.623189,-1.1975098
54516794689968,1.7148341,-9.613608000000001,-1.2454101999999998
54516814546097,1.6693287,-9.625584,-1.2645704
54516834402098,1.6166383,-9.637559,-1.2549903
54516854258227,1.6453785,-9.64714,-1.2765454
54516874116770,1.6669337,-9.687855,-1.2621753
54516893972899,1.6645386000000002,-9.718989,-1.2406201000000001
54516913829028,1.6405883999999997,-9.690249,-1.1879296999999998
54516933685137,1.6813037,-9.678274,-1.214275
54516953532538,1.7004639,-9.656719,-1.2478052
54516973388411,1.6932789000000001,-9.656719,-1.2166698999999999
54516993244284,1.6693287,-9.575289,-1.1855347
54517013100157,1.6908839,-9.587264,-1.2286451
54517032956158,1.6836988000000002,-9.632769,-1.3196558
54517052812031,1.6262183000000001,-9.695039999999999,-1.2741505
54517072668014,1.6501685000000001,-9.75731,-1.2454101999999998
54517092523887,1.6932789000000001,-9.733359,-1.2070899
54517112379760,1.7315991999999998,-9.697434,-1.2094848999999999
54517132235633,1.6549585999999998,-9.642349000000001,-1.1543995
54517152091634,1.6525636000000001,-9.594449000000001,-1.2286451
54517171950171,1.6453785,-9.577683,-1.2669654
54517191806044,1.6477735,-9.584868,-1.2597803
54517211662045,1.6477735,-9.572892999999999,-1.2310401000000002
54517231518046,1.6429833999999999,-9.606423,-1.2837305
54517251367111,1.6405883999999997,-9.625584,-1.2334352
54517271222856,1.6980689999999998,-9.64714,-1.1903248
54517291078729,1.6980689999999998,-9.666299,-1.1975098
54517310934474,1.6310083999999998,-9.632769,-1.2406201000000001
54517330790219,1.6262183000000001,-9.5489435,-1.2334352
54517350646092,1.6980689999999998,-9.570497999999999,-1.2765454
54517370496487,1.6860938,-9.584868,-1.3220508
54517390352104,1.6166383,-9.604028999999999,-1.2693603999999998
54517410207825,1.6070582,-9.606423,-1.1903248
54517430063442,1.7028589,-9.6686945,-1.2118799999999998
54517449919187,1.6956740000000001,-9.72378,-1.2789403999999998
54517469750704,1.6334034,-9.764495,-1.1927198
54517489605937,1.6429833999999999,-9.745335,-1.2094848999999999
54517509461042,1.6573536,-9.718989,-1.2693603999999998
54517529316275,1.6980689999999998,-9.692644,-1.2645704
54517549178256,1.6765138,-9.673484,-1.2478052
54517569033489,1.6549585999999998,-9.666299,-1.3100758
54517588888850,1.6310083999999998,-9.584868,-1.2933106
54517608744083,1.6836988000000002,-9.577683,-1.2478052
54517628599444,1.7028589,-9.601633999999999,-1.2334352
54517648454677,1.6429833999999999,-9.584868,-1.2549903
54517668313652,1.6381934999999999,-9.611214,-1.2621753
54517688168885,1.6741188000000002,-9.711803999999999,-1.2525953
54517708024246,1.6310083999999998,-9.75731,-1.2118799999999998
54517727879607,1.6357985000000002,-9.745335,-1.2118799999999998
54517747734840,1.6621436,-9.726174,-1.2382251
54517767593213,1.6669337,-9.699829,-1.214275
54517787448574,1.6573536,-9.6686945,-1.2382251
54517807303935,1.6836988000000002,-9.651928999999999,-1.1975098
54517827159296,1.6908839,-9.618399,-1.1927198
54517847014657,1.6813037,-9.560919,-1.2310401000000002
54517866870018,1.6573536,-9.553733,-1.2286451
54517886732654,1.6142433,-9.592053,-1.1927198
54517906588143,1.6094532,-9.64714,-1.2286451
54517926443760,1.6118482,-9.6615095,-1.2621753
54517946299249,1.6477735,-9.692644,-1.1999048
54517966157324,1.6597486000000001,-9.702225,-1.1496094
54517986012941,1.6789087,-9.702225,-1.1783496
54518005868558,1.6621436,-9.6758795,-1.2070899
54518025724047,1.6453785,-9.6615095,-1.1975098
54518045579664,1.6286133999999999,-9.620794,-1.214275
54518065432057,1.6381934999999999,-9.565708,-1.2334352
54518085287546,1.6214283,-9.553733,-1.2502003000000002
54518105142907,1.6238233,-9.575289,-1.2430152
54518124998396,1.6405883999999997,-9.599238,-1.22146
54518144853885,1.6765138,-9.671089,-1.2022998
54518164709374,1.6525636000000001,-9.637559,-1.22146
54518184572751,1.6142433,-9.659114,-1.1783496
54518204428368,1.6573536,-9.726174,-1.219065
54518224283985,1.6238233,-9.683064,-1.2885206
54518244139602,1.6429833999999999,-9.639954,-1.2741505
54518264000949,1.6573536,-9.687855,-1.1831397
54518283856694,1.6573536,-9.683064,-1.2406201000000001
54518303712439,1.6836988000000002,-9.656719,-1.3076807
54518323568056,1.6765138,-9.656719,-1.2382251
54518343423801,1.6453785,-9.649534,-1.1855347
54518363279554,1.6142433,-9.627979,-1.2789403999999998
54518383135299,1.6262183000000001,-9.649534,-1.2933106
54518402991044,1.6501685000000001,-9.632769,-1.2502003000000002
54518422846917,1.6693287,-9.596844,-1.2454101999999998
54518442702662,1.6621436,-9.656719,-1.2549903
54518462558407,1.6549585999999998,-9.654325,-1.2885206
54518482422168,1.6789087,-9.671089,-1.2789403999999998
54518502278169,1.6501685000000001,-9.632769,-1.1999048
54518522134170,1.6429833999999999,-9.6615095,-1.1759547
54518541990171,1.6405883999999997,-9.654325,-1.2693603999999998
54518561840638,1.6381934999999999,-9.604028999999999,-1.2406201000000001
54518581696511,1.6693287,-9.551338000000001,-1.214275
54518601552384,1.7124390999999999,-9.553733,-1.2334352
54518621408257,1.6789087,-9.565708,-1.3052857
54518641264130,1.590293,-9.592053,-1.2837305
54518661120003,1.6238233,-9.625584,-1.2621753
54518680978308,1.6860938,-9.651928999999999,-1.2621753
54518700834309,1.710044,-9.687855,-1.2861254999999998
54518720690310,1.6429833999999999,-9.639954,-1.2717555
54518740546311,1.6621436,-9.625584,-1.2765454
54518760402312,1.7076490000000002,-9.6758795,-1.2909156000000002
54518780258833,1.6908839,-9.64714,-1.2861254999999998
54518800114834,1.6836988000000002,-9.560919,-1.2765454
54518819970963,1.6645386000000002,-9.601633999999999,-1.2669654
54518839826942,1.6334034,-9.627979,-1.2933106
54518859683619,1.6381934999999999,-9.642349000000001,-1.3268408999999999
54518879539748,1.6525636000000001,-9.639954,-1.2693603999999998
54518899395877,1.6932789000000001,-9.6686945,-1.22625
54518919252006,1.6908839,-9.673484,-1.2885206
54518939108135,1.6932789000000001,-9.690249,-1.331631
54518958964264,1.7196240000000003,-9.716595,-1.331631
54518978814531,1.6908839,-9.718989,-1.2957056999999998
54518998670532,1.6789087,-9.695039999999999,-1.2789403999999998
54519018526533,1.6789087,-9.639954,-1.3268408999999999
54519038382534,1.6765138,-9.625584,-1.3675561999999999
54519058238535,1.6813037,-9.611214,-1.3124708
54519078070100,1.6908839,-9.594449000000001,-1.2789403999999998
54519097925461,1.6980689999999998,-9.584868,-1.2717555
54519117780694,1.6717237,-9.604028999999999,-1.2885206
54519137636055,1.6501685000000001,-9.639954,-1.3124708
54519157487996,1.6645386000000002,-9.673484,-1.331631
54519177343357,1.6645386000000002,-9.68067,-1.2885206
54519197198590,1.6884888,-9.690249,-1.2741505
54519217053823,1.6693287,-9.671089,-1.2981006000000002
54519236909184,1.7004639,-9.663903999999999,-1.3268408999999999
54519256764417,1.7531544,-9.685459,-1.2933106
54519276618780,1.6956740000000001,-9.604028999999999,-1.2909156000000002
54519296474013,1.6405883999999997,-9.560919,-1.2693603999999998
54519316329225,1.6836988000000002,-9.596844,-1.2981006000000002
54519336184458,1.6669337,-9.527389,-1.3747413
54519356039691,1.6573536,-9.534574000000001,-1.3507911
54519375894198,1.6645386000000002,-9.599238,-1.2645704
54519395749303,1.6501685000000001,-9.635164,-1.2382251
54519415604536,1.6813037,-9.651928999999999,-1.3004956
54519435459641,1.6789087,-9.613608000000001,-1.3100758
54519455314874,1.6717237,-9.639954,-1.2837305
54519475170107,1.6645386000000002,-9.656719,-1.2789403999999998
54519495032186,1.7076490000000002,-9.687855,-1.331631
54519514887547,1.7196240000000003,-9.659114,-1.3196558
54519534742780,1.7004639,-9.625584,-1.3028906999999998
54519554598141,1.7076490000000002,-9.678274,-1.3148658000000002
54519574446048,1.7028589,-9.6686945,-1.3627661
54519594301281,1.710044,-9.64714,-1.3004956
54519614156386,1.7268091,-9.644744000000001,-1.2382251
54519634011491,1.6717237,-9.568104,-1.2765454
54519653866724,1.6597486000000001,-9.577683,-1.3364209999999999
54519673723401,1.6669337,-9.627979,-1.3268408999999999
54519693578506,1.6573536,-9.599238,-1.2861254999999998
54519713433611,1.6813037,-9.627979,-1.2693603999999998
54519733288716,1.7004639,-9.697434,-1.3124708
54519753143949,1.6836988000000002,-9.77647,-1.3531861
54519772999054,1.6741188000000002,-9.807606,-1.3004956
54519792861337,1.6908839,-9.7621,-1.2933106
54519812716570,1.7244141,-9.644744000000001,-1.3076807
54519832571803,1.6908839,-9.532178,-1.2573853000000002
54519852427164,1.6765138,-9.477093,-1.3028906999999998
54519872285883,1.6501685000000001,-9.426797,-1.3555812
54519892141244,1.6501685000000001,-9.479486999999999,-1.3819263000000002
54519911996605,1.6501685000000001,-9.510622999999999,-1.3364209999999999
54519931851966,1.7076490000000002,-9.596844,-1.2909156000000002
54519951707327,1.6765138,-9.726174,-1.2837305
54519971567204,1.6573536,-9.788445,-1.2885206
54519991422693,1.6621436,-9.793235000000001,-1.3100758
54520011278054,1.6884888,-9.75252,-1.2549903
54520031133543,1.6956740000000001,-9.695039999999999,-1.2693603999999998
54520050988904,1.6669337,-9.630374,-1.3292358999999998
54520070844393,1.6549585999999998,-9.560919,-1.3819263000000002
54520090697926,1.6429833999999999,-9.481883,-1.3747413
54520110553287,1.6789087,-9.489068,-1.3364209999999999
54520130408776,1.7148341,-9.501043,-1.3052857
54520150264265,1.6884888,-9.544153,-1.3388159
54520170121424,1.6860938,-9.589659,-1.3100758
54520189976913,1.6765138,-9.623189,-1.2885206
54520209832402,1.6741188000000002,-9.6758795,-1.2957056999999998
54520229687891,1.7172291000000002,-9.74773,-1.3076807
54520249543380,1.6908839,-9.7621,-1.3292358999999998
54520269398849,1.6501685000000001,-9.77168,-1.3436059999999999
54520289260044,1.6621436,-9.745335,-1.3244458000000001
54520309115661,1.7076490000000002,-9.695039999999999,-1.3052857
54520328971278,1.7363893,-9.6615095,-1.3364209999999999
54520348826895,1.6765138,-9.613608000000001,-1.3004956
54520368682512,1.6310083999999998,-9.5633135,-1.3076807
54520388540079,1.6621436,-9.558523,-1.3244458000000001
54520408395824,1.6621436,-9.570497999999999,-1.334026
54520428251569,1.6525636000000001,-9.517808,-1.3004956
54520448107186,1.6789087,-9.584868,-1.3268408999999999
54520467963285,1.6884888,-9.699829,-1.3292358999999998
54520487819030,1.6884888,-9.711803999999999,-1.346001
54520507674775,1.6956740000000001,-9.711803999999999,-1.2789403999999998
54520527530520,1.6645386000000002,-9.707015,-1.2549903
54520547386265,1.6357985000000002,-9.707015,-1.2981006000000002
54520567242138,1.6645386000000002,-9.692644,-1.3651612
54520587094903,1.6741188000000002,-9.620794,-1.3004956
54520606950648,1.6573536,-9.541758999999999,-1.3004956
54520626806393,1.6645386000000002,-9.520203,-1.3412110000000002
54520646662138,1.710044,-9.5561285,-1.3292358999999998
54520666517883,1.6741188000000002,-9.5489435,-1.3220508
54520686372446,1.6357985000000002,-9.587264,-1.3172607
54520706228063,1.6286133999999999,-9.589659,-1.3292358999999998
54520726083808,1.6836988000000002,-9.64714,-1.3531861
54520745939404,1.7028589,-9.663903999999999,-1.3292358999999998
54520765795021,1.7220191000000002,-9.651928999999999,-1.2981006000000002
54520785650766,1.7507593999999997,-9.702225,-1.3172607
54520805505517,1.6860938,-9.704619000000001,-1.3244458000000001
54520825361134,1.6573536,-9.683064,-1.3483961000000002
54520845216751,1.6980689999999998,-9.663903999999999,-1.3675561999999999
54520865072368,1.6836988000000002,-9.627979,-1.3699511999999998
54520884932685,1.6693287,-9.594449000000001,-1.3076807
54520904788302,1.6813037,-9.546548,-1.3220508
54520924644047,1.6836988000000002,-9.513017999999999,-1.331631
54520944499664,1.7196240000000003,-9.592053,-1.3244458000000001
54520964355409,1.6932789000000001,-9.613608000000001,-1.3100758
54520984208040,1.6429833999999999,-9.618399,-1.334026
54521004063657,1.6597486000000001,-9.730965,-1.346001
54521023919274,1.7028589,-9.764495,-1.3436059999999999
54521043774891,1.6717237,-9.683064,-1.3148658000000002
54521063630508,1.705254,-9.649534,-1.3076807
54521083486253,1.7124390999999999,-9.627979,-1.3244458000000001
54521103330586,1.6453785,-9.584868,-1.334026
54521123186075,1.6453785,-9.551338000000001,-1.3436059999999999
54521143041436,1.6597486000000001,-9.541758999999999,-1.3220508
54521162896925,1.6310083999999998,-9.522598,-1.346001
54521182739450,1.6501685000000001,-9.570497999999999,-1.3268408999999999
54521202594555,1.6669337,-9.580078,-1.3124708
54521222449768,1.6549585999999998,-9.635164,-1.3124708
54521242304873,1.6789087,-9.695039999999999,-1.3531861
54521262159978,1.6836988000000002,-9.707015,-1.3412110000000002
54521282012937,1.6813037,-9.685459,-1.3412110000000002
54521301868042,1.6860938,-9.690249,-1.3244458000000001
54521321723147,1.6908839,-9.68067,-1.3268408999999999
54521341578124,1.6621436,-9.601633999999999,-1.3172607
54521361433229,1.6597486000000001,-9.582474000000001,-1.334026
54521381288334,1.6765138,-9.551338000000001,-1.3627661
54521401140209,1.6669337,-9.570497999999999,-1.3651612
54521420995314,1.6573536,-9.599238,-1.346001
54521440850291,1.6789087,-9.596844,-1.3412110000000002
54521460705268,1.6741188000000002,-9.596844,-1.3531861
54521480562391,1.6932789000000001,-9.654325,-1.3412110000000002
54521500417496,1.7076490000000002,-9.716595,-1.346001
54521520272473,1.6836988000000002,-9.72378,-1.3603711
54521540127450,1.6789087,-9.707015,-1.3483961000000002
54521559982555,1.7196240000000003,-9.733359,-1.334026
54521579837532,1.6645386000000002,-9.673484,-1.3747413
54521599694405,1.6789087,-9.630374,-1.3364209999999999
54521619549382,1.7124390999999999,-9.599238,-1.346001
54521639404487,1.6765138,-9.560919,-1.3579761000000001
54521659259592,1.6597486000000001,-9.5489435,-1.3747413
54521679114697,1.6453785,-9.5561285,-1.3268408999999999
54521698967501,1.6741188000000002,-9.580078,-1.3244458000000001
54521718822478,1.6956740000000001,-9.625584,-1.3699511999999998
54521738677327,1.6884888,-9.608819,-1.3771361999999998
54521758532304,1.6884888,-9.608819,-1.3244458000000001
54521778388441,1.7244141,-9.649534,-1.3364209999999999
54521798243418,1.6980689999999998,-9.618399,-1.3771361999999998
54521818098395,1.6884888,-9.601633999999999,-1.3891114
54521837953372,1.6908839,-9.630374,-1.3675561999999999
54521857808349,1.6860938,-9.632769,-1.3675561999999999
54521877663198,1.6741188000000002,-9.613608000000001,-1.3388159
54521897521449,1.705254,-9.627979,-1.3436059999999999
54521917376426,1.6741188000000002,-9.611214,-1.3436059999999999
54521937231531,1.6477735,-9.618399,-1.3603711
54521957086508,1.6860938,-9.644744000000001,-1.3747413
54521976941613,1.6860938,-9.642349000000001,-1.3412110000000002
54521996803794,1.6956740000000001,-9.608819,-1.3579761000000001
54522016658899,1.7004639,-9.592053,-1.3891114
54522036514132,1.7172291000000002,-9.627979,-1.3771361999999998
54522056369237,1.7076490000000002,-9.618399,-1.3651612
54522076223344,1.6621436,-9.596844,-1.3795313
54522096078577,1.6741188000000002,-9.635164,-1.3603711
54522115933682,1.6860938,-9.651928999999999,-1.3579761000000001
54522135788787,1.6621436,-9.627979,-1.3603711
54522155643892,1.6741188000000002,-9.623189,-1.331631
54522175499104,1.6477735,-9.625584,-1.3124708
54522195357495,1.6836988000000002,-9.644744000000001,-1.3699511999999998
54522215212600,1.6765138,-9.6615095,-1.3436059999999999
54522235067833,1.6597486000000001,-9.630374,-1.3292358999999998
54522254922938,1.6286133999999999,-9.616004,-1.3651612
54522274778171,1.6693287,-9.649534,-1.3747413
54522294642410,1.6956740000000001,-9.651928999999999,-1.3196558
54522314497771,1.7004639,-9.699829,-1.331631
54522334353132,1.6669337,-9.663903999999999,-1.3292358999999998
54522354208493,1.6597486000000001,-9.630374,-1.3436059999999999
54522374063982,1.6860938,-9.632769,-1.346001
54522393919343,1.6789087,-9.639954,-1.3364209999999999
54522413782500,1.6765138,-9.642349000000001,-1.3412110000000002
54522433638117,1.6836988000000002,-9.673484,-1.3627661
54522453493734,1.6789087,-9.718989,-1.3483961000000002
54522473349351,1.6429833999999999,-9.6758795,-1.3627661
54522493208376,1.6190332,-9.551338000000001,-1.3627661
54522513064121,1.6908839,-9.601633999999999,-1.3771361999999998
54522532919866,1.6501685000000001,-9.517808,-1.4154567
54522552775739,1.5926881000000002,-9.4507475,-1.3675561999999999
54522572631484,1.6214283,-9.479486999999999,-1.3675561999999999
54522592468451,1.6022681,-9.513017999999999,-1.3196558
54522612323940,1.5735278999999998,-9.5633135,-1.2837305
54522632179429,1.6094532,-9.654325,-1.2669654
54522652034896,1.6813037,-9.702225,-1.2502003000000002
54522671890385,1.710044,-9.651928999999999,-1.2765454
54522691745874,1.7459692999999998,-9.649534,-1.3028906999999998
54522711599601,1.7076490000000002,-9.683064,-1.2645704
54522731454962,1.6453785,-9.704619000000001,-1.2933106
54522751310451,1.6118482,-9.726174,-1.3436059999999999
54522771165812,1.6190332,-9.73815,-1.3148658000000002
54522791021577,1.6357985000000002,-9.6758795,-1.2813355
54522810876938,1.6597486000000001,-9.639954,-1.2597803
54522830732299,1.7004639,-9.608819,-1.2597803
54522850587660,1.6717237,-9.5633135,-1.2430152
54522870443021,1.6166383,-9.553733,-1.2549903
54522890295396,1.6190332,-9.594449000000001,-1.2981006000000002
54522910150757,1.6214283,-9.630374,-1.3244458000000001
54522930005990,1.6286133999999999,-9.702225,-1.2789403999999998
54522949861223,1.6238233,-9.721385,-1.2502003000000002
54522969716584,1.6477735,-9.718989,-1.214275
54522989571817,1.7028589,-9.740545,-1.2549903
54523009422478,1.6836988000000002,-9.692644,-1.2597803
54523029277583,1.6453785,-9.6615095,-1.2669654
54523049132816,1.6621436,-9.625584,-1.2789403999999998
54523068987921,1.6381934999999999,-9.572892999999999,-1.2789403999999998
54523088840168,1.6022681,-9.510622999999999,-1.2597803
54523108695273,1.6262183000000001,-9.498648,-1.2621753
54523128550357,1.6549585999999998,-9.551338000000001,-1.2645704
54523148405462,1.6310083999999998,-9.580078,-1.2166698999999999
54523168260567,1.6477735,-9.635164,-1.22146
54523188115672,1.6549585999999998,-9.711803999999999,-1.2645704
54523207975221,1.6214283,-9.702225,-1.2789403999999998
54523227830326,1.6190332,-9.695039999999999,-1.2430152
54523247685559,1.6046631000000002,-9.685459,-1.2406201000000001
54523267540664,1.5950831,-9.695039999999999,-1.219065
54523287395769,1.6597486000000001,-9.690249,-1.2406201000000001
54523307254226,1.6669337,-9.666299,-1.2286451
54523327109459,1.6357985000000002,-9.613608000000001,-1.2094848999999999
54523346964564,1.6046631000000002,-9.568104,-1.219065
54523366819797,1.6334034,-9.572892999999999,-1.2693603999999998
54523386670898,1.6453785,-9.560919,-1.2454101999999998
54523406526003,1.6357985000000002,-9.570497999999999,-1.2118799999999998
54523426381108,1.6046631000000002,-9.594449000000001,-1.2358301999999999
54523446236213,1.6357985000000002,-9.673484,-1.2741505
54523466091318,1.6405883999999997,-9.72857,-1.2549903
54523485946423,1.6118482,-9.72378,-1.2382251
54523505799706,1.6645386000000002,-9.77168,-1.2022998
54523525654811,1.6741188000000002,-9.802814999999999,-1.22146
54523545509788,1.6453785,-9.730965,-1.2046948999999998
54523565364893,1.6621436,-9.6615095,-1.2430152
54523585219870,1.6549585999999998,-9.539363,-1.2981006000000002
54523605077160,1.6573536,-9.477093,-1.3076807
54523624932393,1.6357985000000002,-9.460327000000001,-1.3148658000000002
54523644787498,1.6357985000000002,-9.489068,-1.2981006000000002
54523664642603,1.6381934999999999,-9.515413,-1.2645704
54523684495886,1.6334034,-9.5633135,-1.3052857
54523704350863,1.6789087,-9.718989,-1.3124708
54523724205968,1.6669337,-9.788445,-1.3196558
54523744060945,1.6501685000000001,-9.74773,-1.2430152
54523763916050,1.6789087,-9.73815,-1.1687696
54523783771027,1.6381934999999999,-9.72378,-1.214275
54523803635250,1.6070582,-9.742939999999999,-1.3028906999999998
54523823490483,1.6238233,-9.6758795,-1.331631
54523843345716,1.6094532,-9.601633999999999,-1.2621753
54523863200949,1.6669337,-9.568104,-1.2573853000000002
54523883056182,1.7028589,-9.489068,-1.3076807
54523902909049,1.6357985000000002,-9.505833,-1.2454101999999998
54523922764410,1.5567628,-9.551338000000001,-1.1807446000000001
54523942619643,1.5495777,-9.5489435,-1.2478052
54523962474876,1.5926881000000002,-9.5633135,-1.2837305
54523982330109,1.6214283,-9.68067,-1.1783496
54524002185342,1.6166383,-9.783655,-1.1136841999999998
54524022052931,1.6381934999999999,-9.800421,-1.0801538
54524041908548,1.6429833999999999,-9.7812605,-1.0466236
54524061764165,1.6381934999999999,-9.800421,-1.0921290000000001
54524081619633,1.6765138,-9.75731,-1.1735597
54524101468618,1.7387843,-9.639954,-1.1472143999999997
54524121324107,1.8082398000000002,-9.546548,-1.1112891000000003
54524141179596,1.7148341,-9.505833,-1.2070899
54524161035085,1.6118482,-9.529783,-1.2885206
54524180890574,1.6022681,-9.570497999999999,-1.2909156000000002
54524200738463,1.5783178999999998,-9.541758999999999,-1.2549903
54524220593568,1.5974781999999998,-9.639954,-1.1831397
54524240448801,1.6573536,-9.759705,-1.2046948999999998
54524260304034,1.6405883999999997,-9.73815,-1.2310401000000002
54524280159139,1.6765138,-9.702225,-1.1975098
54524300014372,1.6884888,-9.711803999999999,-1.1759547
54524319875329,1.6669337,-9.659114,-1.223855
54524339730690,1.7148341,-9.606423,-1.3076807
54524359586051,1.7435743000000001,-9.596844,-1.2957056999999998
54524379441284,1.6717237,-9.541758999999999,-1.2789403999999998
54524399301527,1.6142433,-9.565708,-1.2502003000000002
54524419157016,1.6405883999999997,-9.580078,-1.2549903
54524439012505,1.6932789000000001,-9.618399,-1.3076807
54524458867994,1.6501685000000001,-9.663903999999999,-1.3196558
54524478723355,1.6094532,-9.695039999999999,-1.2478052
54524498578844,1.6334034,-9.673484,-1.1951148999999999
54524518434693,1.6884888,-9.656719,-1.2046948999999998
54524538290182,1.6980689999999998,-9.64714,-1.2549903
54524558145523,1.6717237,-9.644744000000001,-1.2573853000000002
54524578001012,1.6789087,-9.630374,-1.2837305
54524597856501,1.6956740000000001,-9.659114,-1.2885206
54524617711002,1.6765138,-9.639954,-1.2813355
54524637566363,1.6310083999999998,-9.632769,-1.2286451
54524657421852,1.6669337,-9.651928999999999,-1.2046948999999998
54524677277341,1.6525636000000001,-9.656719,-1.1999048
54524697129654,1.6693287,-9.649534,-1.2549903
54524716984887,1.6357985000000002,-9.618399,-1.214275
54524736840248,1.6214283,-9.604028999999999,-1.2166698999999999
54524756695609,1.6549585999999998,-9.671089,-1.2382251
54524776550970,1.6405883999999997,-9.68067,-1.2741505
54524796406331,1.6645386000000002,-9.613608000000001,-1.2933106
54524816267606,1.705254,-9.596844,-1.223855
54524836123095,1.6932789000000001,-9.604028999999999,-1.1927198
54524855978584,1.6980689999999998,-9.616004,-1.2310401000000002
54524875834073,1.6932789000000001,-9.606423,-1.2046948999999998
54524895689562,1.6405883999999997,-9.596844,-1.1472143999999997
54524915548665,1.590293,-9.608819,-1.2094848999999999
54524935404282,1.6381934999999999,-9.623189,-1.2382251
54524955259899,1.6860938,-9.639954,-1.2166698999999999
54524975115516,1.6765138,-9.623189,-1.1783496
54524994971133,1.6501685000000001,-9.625584,-1.2022998
54525014826750,1.6932789000000001,-9.7142,-1.2549903
54525034676038,1.7315991999999998,-9.68067,-1.2837305
54525054531527,1.710044,-9.651928999999999,-1.2454101999999998
54525074387016,1.7076490000000002,-9.6686945,-1.1903248
54525094242505,1.7124390999999999,-9.7142,-1.1687696
54525114088870,1.6741188000000002,-9.70941,-1.2286451
54525133944231,1.6286133999999999,-9.659114,-1.2334352
54525153799464,1.6717237,-9.587264,-1.2573853000000002
54525173654825,1.6525636000000001,-9.484278,-1.2645704
54525193510058,1.6789087,-9.493857,-1.2573853000000002
54525213362883,1.6860938,-9.539363,-1.2789403999999998
54525233218116,1.7124390999999999,-9.623189,-1.2693603999999998
54525253073349,1.705254,-9.68067,-1.2406201000000001
54525272928582,1.6956740000000001,-9.75252,-1.2358301999999999
54525292783815,1.7076490000000002,-9.853110000000001,-1.2502003000000002
54525312639048,1.7124390999999999,-9.829161000000001,-1.2310401000000002
54525332479843,1.6884888,-9.604028999999999,-1.2406201000000001
54525352334820,1.7004639,-9.572892999999999,-1.1975098
54525372189797,1.6860938,-9.572892999999999,-1.2358301999999999
54525392044646,1.6621436,-9.510622999999999,-1.3004956
54525411897405,1.6741188000000002,-9.486672,-1.3076807
54525431752382,1.710044,-9.546548,-1.2502003000000002
54525451607231,1.6453785,-9.565708,-1.2382251
54525471462208,1.6381934999999999,-9.644744000000001,-1.2046948999999998
54525491317057,1.6860938,-9.649534,-1.1999048
54525511170890,1.7339942,-9.692644,-1.2166698999999999
54525531025739,1.7292042,-9.742939999999999,-1.2094848999999999
54525550880460,1.7004639,-9.697434,-1.2430152
54525570735309,1.7076490000000002,-9.6686945,-1.2741505
54525590590158,1.7148341,-9.592053,-1.2382251
54525610444879,1.7411792000000001,-9.618399,-1.2382251
54525630301972,1.6693287,-9.587264,-1.2430152
54525650156949,1.6022681,-9.582474000000001,-1.22146
54525670011798,1.6477735,-9.599238,-1.2525953
54525689866647,1.6693287,-9.606423,-1.2286451
54525709715760,1.6381934999999999,-9.592053,-1.1855347
54525729570481,1.6453785,-9.592053,-1.1783496
54525749425074,1.6334034,-9.616004,-1.22625
54525769279795,1.6621436,-9.642349000000001,-1.214275
54525789134516,1.6884888,-9.64714,-1.2334352
54525808989109,1.6884888,-9.695039999999999,-1.1999048
54525828842838,1.7148341,-9.74773,-1.1855347
54525848697431,1.6836988000000002,-9.678274,-1.2118799999999998
54525868552024,1.6741188000000002,-9.642349000000001,-1.2430152
54525888406617,1.6262183000000001,-9.68067,-1.1855347
54525908261338,1.6549585999999998,-9.687855,-1.214275
54525928117699,1.6334034,-9.656719,-1.2166698999999999
54525947972292,1.6094532,-9.632769,-1.1687696
54525967827013,1.6070582,-9.616004,-1.1735597
54525987681584,1.6310083999999998,-9.6615095,-1.2310401000000002
54526007539609,1.6549585999999998,-9.683064,-1.1951148999999999
54526027394330,1.6477735,-9.695039999999999,-1.1687696
54526047249051,1.6381934999999999,-9.707015,-1.2094848999999999
54526067103772,1.6669337,-9.735755000000001,-1.1903248
54526086958365,1.6860938,-9.721385,-1.219065
54526106813086,1.6693287,-9.697434,-1.2358301999999999
54526126669755,1.6214283,-9.64714,-1.2118799999999998
54526146524476,1.6166383,-9.608819,-1.1735597
54526166379325,1.6286133999999999,-9.599238,-1.2286451
54526186234046,1.6190332,-9.613608000000001,-1.2645704
54526206088767,1.5783178999999998,-9.570497999999999,-1.2669654
54526225944922,1.587898,-9.570497999999999,-1.2430152
54526245799643,1.6046631000000002,-9.649534,-1.2669654
54526265654492,1.5423926000000001,-9.654325,-1.22625
54526285509213,1.5567628,-9.695039999999999,-1.223855
54526305368256,1.6046631000000002,-9.690249,-1.2166698999999999
54526325223105,1.6286133999999999,-9.692644,-1.1975098
54526345077954,1.6357985000000002,-9.687855,-1.1520045
54526364932803,1.6214283,-9.673484,-1.1352394
54526384787652,1.6405883999999997,-9.589659,-1.1663746000000002
54526404642501,1.6501685000000001,-9.568104,-1.1927198
54526424499550,1.5663428,-9.565708,-1.1663746000000002
54526444354527,1.5160475,-9.594449000000001,-1.1903248
54526464209353,1.5304176,-9.654325,-1.1831397
54526484064330,1.5783178999999998,-9.711803999999999,-1.1304493
54526503919307,1.6262183000000001,-9.695039999999999,-1.1184741000000002
54526523779608,1.6357985000000002,-9.745335,-1.099314
54526543634713,1.590293,-9.750125,-1.1472143999999997
54526563489818,1.5711329,-9.716595,-1.1184741000000002
54526583344923,1.587898,-9.666299,-1.1160791
54526603200156,1.5687379,-9.616004,-1.1184741000000002
54526623055261,1.5423926000000001,-9.5633135,-1.1376343
54526642914314,1.5447876,-9.539363,-1.1496094
54526662769547,1.587898,-9.577683,-1.1567944
54526682624780,1.5687379,-9.616004,-1.1112891000000003
54526702480013,1.5735278999999998,-9.666299,-1.0729688
54526722341744,1.6070582,-9.730965,-1.0274634
54526742197105,1.6046631000000002,-9.75731,-1.0490186000000001
54526762052466,1.5663428,-9.740545,-1.0346485
54526781907827,1.5423926000000001,-9.740545,-1.0801538
54526801763188,1.5495777,-9.692644,-1.1232642
54526821618329,1.5974781999999998,-9.659114,-1.1088941
54526841473818,1.6070582,-9.599238,-1.1184741000000002
54526861329179,1.6334034,-9.618399,-1.0921290000000001
54526881184540,1.5687379,-9.568104,-1.089734
54526901040029,1.5376027,-9.592053,-1.0777588
54526920895390,1.5591576999999999,-9.6758795,-1.089734
54526940747757,1.5447876,-9.656719,-1.1448194
54526960602990,1.5711329,-9.594449000000001,-1.0849438999999999
54526980458351,1.6238233,-9.68067,-1.0226734
54527000313584,1.6381934999999999,-9.6686945,-1.0873389
54527020166165,1.6381934999999999,-9.639954,-1.1280543
54527040021398,1.6477735,-9.632769,-1.096919
54527059876631,1.6070582,-9.639954,-1.101709
54527079731864,1.5471827,-9.623189,-1.1448194
54527099586969,1.5543678,-9.592053,-1.1088941
54527119435516,1.6070582,-9.560919,-1.0705738
54527139290621,1.583108,-9.501043,-1.0753639
54527159145726,1.5639478,-9.462723,-1.096919
54527179000831,1.5519726999999999,-9.436378,-1.1088941
54527198855936,1.5591576999999999,-9.4435625,-1.1328443000000001
54527218711169,1.5304176,-9.479486999999999,-1.1256591999999999
54527238563740,1.5495777,-9.572892999999999,-1.101709
54527258418717,1.5376027,-9.565708,-1.101709
54527278273822,1.5543678,-9.572892999999999,-1.0729688
54527298128927,1.5495777,-9.536968,-1.0753639
54527317977574,1.5783178999999998,-9.510622999999999,-1.089734
54527337832551,1.5615528,-9.453142,-1.1088941
54527357687528,1.5256275,-9.412427000000001,-1.1041040000000002
54527377542377,1.5112573999999999,-9.335787,-1.1160791
54527397397354,1.5064673000000002,-9.285491,-1.096919
54527417252308,1.5376027,-9.287886,-1.1376343
54527437106913,1.5376027,-9.338181500000001,-1.0633887
54527456961890,1.5088624,-9.333391,-1.0490186000000001
54527476816867,1.4920973,-9.323812,-1.0298585
54527496671716,1.5543678,-9.431587,-1.0466236
54527516526693,1.5304176,-9.472302,-1.0801538
54527536385986,1.5016773,-9.457932000000001,-1.0418334999999999
54527556240963,1.5232325,-9.448353,-1.0083033000000001
54527576095940,1.5112573999999999,-9.402847,-1.0562036
54527595950917,1.5208374,-9.366921000000001,-1.0777588
54527615798878,1.5304176,-9.311836,-1.0442286
54527635653727,1.5184423999999999,-9.278306,-0.9963281999999999
54527655508576,1.5136524,-9.237591,-1.0178833
54527675363425,1.5519726999999999,-9.187294999999999,-1.0538087
54527695218146,1.5663428,-9.139395,-1.0801538
54527715072995,1.5543678,-9.17053,-1.0657837
54527734924798,1.5064673000000002,-9.19448,-1.0466236
54527754779519,1.465752,-9.204061,-1.0538087
54527774634240,1.5136524,-9.2328005,-1.0753639
54527794488961,1.5639478,-9.290281,-1.0466236
54527814343810,1.575923,-9.395662,-1.0154883
54527834197281,1.5256275,-9.378897,-0.96758795
54527854052002,1.4897022,-9.280700999999999,-1.0585986
54527873906723,1.5040723,-9.168135000000001,-1.089734
54527893761296,1.5471827,-9.096285,-1.0609937
54527913621667,1.5447876,-9.022039,-1.0681788
54527933476388,1.4585668999999999,-8.914263,-1.0849438999999999
54527953331237,1.4944923,-8.921448,-1.0657837
54527973186086,1.5519726999999999,-8.974138,-1.0849438999999999
54527993040807,1.5160475,-9.069939999999999,-1.0514137
54528012895656,1.477727,-9.1849,-1.0011181999999998
54528032749129,1.4394068000000002,-9.206455,-0.9364527
54528052603850,1.5136524,-9.254355,-0.96040285
54528072458571,1.5447876,-9.271121,-0.9867481
54528092313292,1.5088624,-9.16095,-1.0106983
54528112168013,1.5208374,-9.077125,-1.0753639
54528132026872,1.5112573999999999,-9.0076685,-1.096919
54528151881593,1.5184423999999999,-8.988508,-1.1352394
54528171736442,1.5208374,-8.981323,-1.1663746000000002
54528191591163,1.4825171,-8.916658,-1.1136841999999998
54528211446012,1.5208374,-9.000483500000001,-1.0609937
54528231300733,1.5543678,-9.079519,-1.0729688
54528251164738,1.5495777,-9.031619000000001,-1.0609937
54528271019715,1.5567628,-9.036408999999999,-1.0322535
54528290874692,1.5136524,-9.13221,-1.0035132
54528310729669,1.4489869,-9.139395,-1.0825489
54528330588578,1.456172,-9.08431,-1.0921290000000001
54528350443683,1.5184423999999999,-9.1202345,-1.0394385
54528370298894,1.4681469999999999,-9.129814999999999,-0.9316626
54528390153999,1.4513819,-9.096285,-0.90771246
54528410009104,1.4753321000000001,-9.053174,-0.9508228000000001
54528429863215,1.5160475,-9.012459,-0.9651929
54528449718320,1.5471827,-9.050778999999999,-0.977168
54528469573425,1.5495777,-9.08431,-0.96758795
54528489428530,1.5256275,-9.08431,-0.9388476999999998
54528509283763,1.5328126,-9.09868,-0.9987232
54528529138868,1.5567628,-9.127419,-1.0178833
54528549003995,1.5160475,-9.158555,-0.99393314
54528568859356,1.4920973,-9.15137,-0.9699829
54528588714717,1.5304176,-9.134604,-1.0106983
54528608570078,1.5304176,-9.148975,-1.089734
54528628424763,1.5160475,-9.11784,-1.0849438999999999
54528648280124,1.5064673000000002,-9.050778999999999,-1.0418334999999999
54528668135613,1.5447876,-9.074729,-1.0394385
54528687990974,1.4920973,-9.026829,-1.0514137
54528707846335,1.4849122,-8.993299,-1.0585986
54528727699490,1.5399976,-9.065149,-1.1280543
54528747554723,1.5208374,-9.081914999999999,-1.1280543
54528767410084,1.477727,-9.010064,-1.0825489
54528787265445,1.5208374,-9.050778999999999,-1.0609937
54528807120806,1.5974781999999998,-9.137,-1.1256591999999999
54528826976167,1.5735278999999998,-9.113049499999999,-1.0801538
54528846831220,1.5352076000000001,-9.062755000000001,-1.0777588
54528866686581,1.5519726999999999,-9.062755000000001,-1.1352394
