UPTIMENANO,Ax,Ay,Az
54507680778076,0.014340494,0.07783997,9.558063
54507700633564,0.24633095,0.18623109,10.066148
54507720489053,0.1624355,0.28638673,10.111917
54507740343838,0.05223528,0.33073866,9.949928
54507760199198,-0.014773341,0.44801757,9.546383
54507780054559,-0.20185196,0.43555582,9.340976
54507799910046,0.007875964,0.052114695,10.007769
54507819765406,0.2847521,-0.15283363,10.184976
54507839620767,0.20081875,-0.0013425422,9.871274
54507859473842,-0.08752364,0.5398328,9.688764
54507879329202,-0.05945669,0.5267303,10.41881
54507899184563,0.56433064,0.320364,11.554065
54507919039922,0.2499917,0.65684456,10.65651
54507938899244,-0.20722856,0.6106138,9.0641
54507958754605,0.26666886,0.4202638,10.432586
54507978609964,1.7036018,0.39738494,12.069005
54507998465324,2.1417868,1.7464368,11.65288
54508018320685,1.7389917,4.058023,9.727366
54508038187320,0.54824644,3.2641718,7.7499976
54508058042808,-0.77955914,0.32034108,6.9415455
54508077898425,-4.4096155,-4.6433587,6.323301
54508097754040,-4.54629,-5.4079013,8.005802
54508117609528,1.095185,0.16081075,10.189843
54508137465145,1.6391436,1.168918,11.503706
54508157322552,0.006906382,0.50068617,9.939114
54508177178168,-0.23402965,-0.19619933,9.2579565
54508197033913,-0.06776599,-0.36636236,9.4701395
54508216889528,0.8798454,0.80978054,10.550185
54508236748887,0.46052775,1.2965235,10.082205
54508256604760,0.18463702,1.4299939,8.783146
54508276460503,-0.1933312,0.969951,8.378097
54508296316247,-0.7633184,0.42457896,8.640449
54508316172120,0.21798469,1.1348321,9.571595
54508336018207,0.8357607,1.6111027,9.680477
54508355873823,0.94184184,-0.026311284,9.803641
54508375729440,0.5083116,-0.83335364,10.3335495
54508395585055,-0.019676212,0.43122956,11.106168
54508415440671,0.052592747,0.5804757,10.839031
54508435296288,0.24878666,0.29639596,10.116261
54508455158626,-0.13493173,0.12014239,10.38451
54508475014498,-0.2648462,0.12284789,10.158079
54508494870243,-0.3956224,0.5999169,9.834063
54508514725986,0.107752346,0.7089469,10.02267
54508534590696,0.32869527,0.6194124,10.360657
54508554446569,0.2169454,1.0671045,9.872898
54508574302568,0.16765037,0.19617712,9.742145
54508594158568,0.3420717,-0.32458174,9.996453
54508614014569,0.90549546,-0.6269778,11.082997
54508633875109,1.5835181,-0.6369321,10.5735655
54508653731237,1.8961,-3.4048147,8.758617
54508673587366,1.3064623,-3.040682,8.126021
54508693443365,1.7454022,0.13051993,8.542857
54508713299493,2.2270339,-0.24038155,7.2180014
54508733155622,2.2824814,-1.2530717,7.7332335
54508753016357,2.784958,-1.9958353,8.573619
54508772872613,0.91448027,-1.8696516,5.7855315
54508792728742,1.2457292,0.46203324,6.1085806
54508812584997,1.2797991,3.308662,7.939955
54508832446123,-0.10284833,2.4675894,8.338019
54508852302508,-0.8788879,-0.30889016,7.8931026
54508872158763,-0.8849946,-1.3169261,5.653676
54508892015147,-0.19918978,0.6108636,7.5392094
54508911871404,0.8264478,3.2011127,11.337978
54508931727787,3.1524951,1.524573,14.42699
54508951574973,3.4725063,-2.558365,10.607291
54508971430974,0.29561695,0.38246083,11.620313
54508991287101,-2.681934,3.7321742,8.641761
54509011143229,-2.5802367,4.899662,5.2189546
54509030999358,-1.2593488,4.245311,5.8774295
54509050852803,-1.8314171,2.842217,4.5117044
54509070708931,-0.49048004,1.7142032,3.3509293
54509090564932,0.79488695,2.2190359,3.4514925
54509110421059,1.1888664,2.5251446,2.5602186
54509130276303,3.2826736,2.232961,1.4446461
54509150132432,5.7508173,0.25763083,3.1202958
54509169988559,5.1436825,-3.1936393,6.2978916
54509189844687,4.121806,-2.9502115,7.730124
54509209700688,6.388952,-3.618183,6.8616195
54509229556815,-7.306623,7.4843698,10.780249
54509249409152,-5.300573,11.330748,16.055119
54509269265153,-2.7202218,12.432959,19.74644
54509289121024,1.4338425,8.049704,21.367758
54509308981098,1.4100542,6.0142136,20.9107
54509328837099,3.3203275,3.6761703,21.615736
54509348687998,8.457284,-2.4979193,22.807838
54509368543870,9.130198,-5.6347737,23.655146
54509388399743,-2.1170492,-15.965761,22.635256
54509408255614,-2.835119,-10.854945,15.071985
54509428111486,0.4083179,-2.0903032,15.615272
54509447915282,-0.28987363,3.1512816,14.700964
54509467770130,-2.114915,-1.4531864,12.765031
54509487624978,2.5985527,-7.0986376,16.153677
54509507479698,5.013584,-2.8930943,17.145266
54509527334546,7.8616147,1.3170587,18.422274
54509547195433,-6.216385,-3.8973074,3.25003
54509567050281,-4.6005764,-0.08317368,5.4189167
54509586905257,0.18221256,3.5429263,6.245476
54509606760105,0.39301264,-0.34977594,5.685471
54509626615081,0.4253001,-1.8977728,4.1491337
54509646470057,2.5621843,-1.0244051,7.3605833
54509666338668,0.1239163,0.48734623,0.0701809
54509686193900,1.5679864,-4.2177505,5.349316
54509706049004,0.52282894,-1.9468017,3.8792622
54509725904236,-0.48583698,1.2262892,5.3430896
54509745759468,0.42799804,-0.63001966,9.708641
54509765624873,3.4304276,-4.26667,12.360248
54509785480233,1.3275679,1.2987484,8.228777
54509805335465,-0.13395758,0.32880646,8.8534155
54509825190825,-0.027517922,0.61271155,9.81855
54509845046185,-1.358553,0.64023465,4.0911593
54509864901947,-0.64756435,-1.9996569,5.8747406
54509884757179,-1.060855,-0.78737414,7.2407517
54509904612539,-2.11769,1.7756042,0.9192638
54509924467771,-1.943261,1.9694508,6.943261
54509944323131,-2.1907194,0.30806616,1.9886873
54509964180807,-2.3070076,5.769268,-0.73682356
54509984035911,-0.963042,7.70426,16.877115
54510003891143,-0.8432165,-8.160365,26.657326
54510023746375,2.5135322,-13.062852,34.512325
54510043601479,9.98264,-0.7247459,19.55125
54510063468115,-3.1775386,5.1673713,14.98593
54510083323603,-14.343046,6.6861978,19.343073
54510103178963,-7.6910934,4.5293727,12.24508
54510123034323,-3.7051008,0.13802621,8.402564
54510142889683,-4.1424584,0.059949137,4.8816953
54510162749816,-3.306428,1.2597592,4.1698217
54510182605432,0.25151744,-2.281535,5.1276603
54510202460920,7.5518913,-2.5766785,7.8119082
54510222316408,6.5477643,0.8450397,4.0270934
54510242171896,1.8430823,-0.7685235,4.2725987
54510262034052,1.5683699,-2.723122,6.967606
54510281889796,1.4220214,1.633199,4.9965196
54510301745412,3.1608706,5.981878,7.4547024
54510321601156,-5.001103,-2.2424593,13.859116
54510341456772,-0.6339478,-5.343863,9.466316
54510361321964,1.8882241,0.53540206,5.696857
54510381177964,0.70495456,3.9478693,4.4221363
54510401033964,-1.8091928,3.4658902,3.5286448
54510420889836,-5.2959013,4.818245,3.3984468
54510440745836,-8.338318,6.8354015,4.1693087
54510460613110,-10.736653,6.0574546,8.697899
54510480469366,-10.049401,6.5640683,14.226569
54510500325622,-12.26715,6.3566074,15.909536
54510520181878,-6.321308,-7.152848,24.854397
54510540038134,1.7504704,-12.303833,20.832964
54510559897244,2.878017,-3.454168,15.432149
54510579753628,11.07261,0.54756385,18.292875
54510599610012,10.6858835,-1.9809498,14.002672
54510619466396,2.6643703,-2.8619387,11.278332
54510639322780,-1.4846635,-1.4776037,11.471403
54510659183383,-2.899292,0.8361706,11.667639
54510679040023,-1.7815076,2.1046526,10.44508
54510698896535,0.5993827,0.6752911,4.445544
54510718753047,-2.929752,0.48451108,11.874736
54510738609687,-2.222396,-0.18009289,9.282993
54510758469916,-2.293431,0.36586317,7.7306376
54510778326684,-1.9163026,-0.18860118,10.061951
54510798183324,1.1690778,1.5107745,11.032348
54510818040092,2.5497065,0.95144355,9.998912
54510837896732,1.3258377,-1.2686716,8.670229
54510857755854,-0.5606549,-0.93586653,12.10647
54510877612750,1.4807125,2.2025597,9.353371
54510897469646,-0.40342382,0.7900833,8.614972
54510917326414,0.15639313,-0.18675655,11.074015
54510937183310,2.740915,-0.73757756,12.020543
54510957035739,3.1678994,-2.6986458,10.620579
54510976892635,-0.059258036,-2.5113652,9.981248
54510996749659,-3.6227708,0.82564515,11.54126
54511016606555,-1.128173,1.7256728,11.002469
54511036463451,0.034916695,0.8275018,10.533473
54511056293443,-0.7445007,0.029734802,10.971849
54511076149443,-0.7857401,0.024035992,11.225417
54511096005443,-1.0537953,0.52111816,11.269017
54511115861443,-1.5516908,0.6717058,11.516906
54511135717443,-1.8423243,0.43899405,11.056313
54511155569392,-0.8263044,-0.10112004,9.842389
54511175425264,-1.0160913,0.501616,10.269101
54511195281136,-1.1262128,0.58481234,10.149131
54511215137008,-1.1838554,-2.5354977,10.789995
54511234992880,-1.7554175,-4.885977,11.495808
54511254847503,-0.04741981,-1.3425684,10.9646635
54511274703375,1.2972894,1.0634828,10.400137
54511294559247,0.9855098,1.0469357,10.473294
54511314415119,-0.1787878,-0.16775124,10.283984
54511334273694,0.21025574,0.12678508,10.109006
54511354127023,9.094983E-4,-0.01561324,9.999986
54511373982767,-0.5537901,-0.8288672,9.5267935
54511393838639,-0.8422883,-0.9880544,8.791967
54511413694511,-1.8830931,-0.40300035,8.521884
54511433550383,-1.4892371,0.09056381,8.820792
54511453404410,0.1784882,0.0019434617,9.395431
54511473260154,2.8420272,0.48702776,9.954837
54511493115898,3.7550495,-0.13870464,10.840773
54511512971642,1.4089466,-2.451804,11.950477
54511532827514,0.5074575,-1.2161008,12.369662
54511552690205,0.01972389,0.3501919,11.126418
54511572546077,-0.78630215,0.09662928,9.979316
54511592401949,-1.0800555,-0.4668521,9.837988
54511612257821,-0.9460764,-0.6573122,10.023165
54511632113693,-0.13183515,-0.8338861,10.390031
54511651970112,1.1640357,-0.5245669,10.60072
54511671825984,1.8761597,0.064787194,10.418982
54511691681856,1.6852504,0.18726145,10.395587
54511711537856,0.99669844,0.03134251,10.612199
54511731393728,0.3934426,-0.08012782,10.611092
54511751249959,0.23476267,0.03755266,10.1672735
54511771105959,0.6291262,0.43576145,9.739712
54511790961831,0.7764278,0.8127065,9.642164
54511810817703,0.21341716,0.68177843,9.985362
54511830673575,-0.35150352,0.524847,10.377674
54511850522826,-0.7019656,0.39660704,10.276058
54511870378570,-0.8755478,0.15924019,10.275701
54511890234314,-0.94322026,-0.093946844,10.211764
54511910090058,-0.64386475,-0.8706511,10.448795
54511929945802,-0.45177993,-0.96540594,10.68656
54511949801009,-0.58229905,-0.29106855,10.700654
54511969656625,-0.7009509,0.23138717,10.395219
54511989512369,-0.43427238,0.37557083,10.103589
54512009368113,-0.115979254,0.30075964,9.974502
54512029223857,0.18474339,0.15775296,9.81066
54512049085775,0.43043554,-0.038203683,9.848591
54512068941519,0.50883955,-0.27423763,10.035735
54512088797391,0.7255729,-0.23584305,10.179814
54512108653263,0.96114314,-0.1573631,10.164225
54512128509135,0.7261579,-0.27629915,10.128563
54512148366962,0.08160222,-0.25728196,10.079218
54512168223309,-0.33966008,0.06813442,10.103656
54512188079182,-0.5004709,0.21673468,10.100237
54512207935055,-0.4645716,0.034187302,10.067493
54512227790928,-0.25239387,-0.06064471,10.005279
54512247655297,-0.014404547,0.057420477,9.875486
54512267511298,0.030017285,0.17556147,9.8238535
54512287367427,-0.050052024,0.19117218,9.829125
54512307223556,0.046727784,0.14930145,9.859467
54512327079557,0.23018438,0.013336006,9.823404
54512346932198,0.3212849,-0.15789849,9.769719
54512366788199,0.31918094,-0.10649713,9.844525
54512386644328,0.082667656,-0.054330967,9.988818
54512406500329,-0.105839975,-0.06495807,10.044951
54512426356330,-0.23365581,-0.09843361,10.038365
54512446212459,-0.19677553,-0.04083387,10.025358
54512466077412,-0.010911755,0.042526998,9.953064
54512485933669,0.03557194,0.003863969,9.92159
54512505789798,-0.0260028,0.002805957,9.886079
54512525646055,-0.04502103,0.09878108,9.848353
54512545502312,-0.046585947,0.091458075,9.841917
54512565363329,-0.05517532,0.042779386,9.841462
54512585219586,-0.08357262,0.06599235,9.810373
54512605075971,-0.13064714,0.06653898,9.833672
54512624932228,-0.1284718,0.03720026,9.905725
54512644788590,-0.017762467,0.030789256,9.926203
54512664641279,0.03733005,0.02169765,9.959686
54512684497536,-0.016600918,0.03505002,10.003053
54512704353921,-0.06089957,0.08949878,9.993762
54512724210178,-0.13176496,0.07545316,9.985087
54512744066435,-0.16278967,0.062361892,9.929108
54512763926324,-0.16733441,0.07512081,9.885401
54512783782709,-0.108229645,0.06718912,9.857779
54512803639094,-0.027450118,0.0812749,9.8515215
54512823495479,-0.004961962,0.06659551,9.850278
54512843351736,-0.023035273,0.050089,9.852064
54512863209187,-0.046768565,0.052123204,9.85552
54512883065700,-0.059060883,0.025786577,9.879558
54512902922085,-0.047522675,0.06690634,9.939577
54512922778470,-0.06794344,0.06725069,9.935241
54512942634855,-0.11710323,0.06269946,9.925636
54512962479286,-0.13216753,0.052128725,9.916373
54512982335415,-0.08354435,0.056601413,9.894117
54513002191544,-0.015555476,0.08000625,9.850964
54513022047673,-0.02179747,0.07014743,9.863696
54513041903802,-0.03780321,0.039305948,9.859902
54513061758651,-0.04857377,0.044509456,9.834324
54513081614780,-0.048262887,0.029470673,9.823732
54513101470909,-0.02364645,-0.004328123,9.911444
54513121327015,-0.05028234,-0.040363073,9.970497
54513141183144,-0.09287144,-0.030661248,9.976051
54513161037553,-0.115321405,-0.035918273,9.941154
54513180893810,-0.08777878,-0.036757484,9.964817
54513200749939,-0.04255087,-0.003570594,9.897357
54513220606068,-0.05449915,-0.0049313824,9.789533
54513240462197,-0.12435401,0.024504839,9.724021
54513260317698,-0.13684295,0.06473892,9.664355
54513280173827,-0.06642065,0.07852881,9.746498
54513300029956,0.03172853,0.03660277,9.857658
54513319886085,0.02701349,-0.05733783,9.898839
54513339742214,-0.044038594,-0.12471572,9.976722
54513359593179,-0.098549955,-0.12263291,10.064237
54513379449180,-0.040267456,-0.10358432,10.039983
54513399305181,-0.022419883,-0.102195226,9.995746
54513419161310,-0.026565198,-0.044700723,9.961645
54513439017311,-0.017910074,-0.007071079,9.844557
54513458874298,-0.029097624,-0.06603619,9.770892
54513478730299,-0.038870607,-0.04106511,9.742187
54513498586300,0.01089469,0.042446725,9.739343
54513518442301,0.08989007,0.046941068,9.80948
54513538298174,0.13350035,-0.0037736658,9.785284
54513558155247,0.014066068,-0.09559597,9.761056
54513578011248,-0.057033174,-0.04141286,9.869968
54513597867101,-0.06412676,0.0053620045,9.94145
54513617723102,-0.06859433,0.01564025,9.997675
54513637579103,-0.1259985,-0.030891957,10.020902
54513657429666,-0.119781695,-0.033053152,9.983532
54513677285539,-0.040593874,2.3025132E-4,9.920181
54513697141284,0.0052720555,0.06131322,9.843998
54513716997157,2.0119989E-4,0.10084015,9.82076
54513736853030,-0.041863464,0.06664393,9.772759
54513756711243,-0.071119554,0.04256215,9.800139
54513776567116,-0.0405517,0.049962185,9.8181505
54513796422989,-0.028665958,0.03897652,9.798352
54513816278862,-0.06540752,0.009520729,9.873764
54513836134735,-0.0799499,-0.041815374,9.9169855
54513855989304,-0.08177699,-0.0828602,9.930263
54513875845177,-0.07391407,-0.06618153,9.926307
54513895701050,-0.058188353,0.022846265,9.925463
54513915556923,-0.08732675,0.0288857,9.917656
54513935412796,-0.116095,-0.002027602,9.960708
54513955268609,-0.122728914,-0.06403515,9.949989
54513975124354,-0.064511344,-0.054199968,9.904153
54513994980227,-0.03713851,-0.014988861,9.894773
54514014835972,-0.0024391136,-0.014848786,9.842515
54514034691717,-0.03982686,0.0091615105,9.782409
54514054559730,-0.08546461,0.015734006,9.802067
54514074415838,-0.0712137,0.007331133,9.826875
54514094271839,-0.060976464,-0.01936178,9.879701
54514114127968,-0.07947675,-0.033820666,9.96035
54514133983969,-0.07414952,-0.07075329,10.003742
54514153843852,-0.043503754,-0.08609659,9.982558
54514173699981,-0.058000814,0.0022295103,9.996989
54514193556238,-0.089967236,0.024537958,9.953541
54514213412367,-0.07421368,0.0111123165,9.857163
54514233268624,-0.028424054,7.266467E-4,9.839133
54514253124345,-0.03181786,-0.0091000935,9.819949
54514272980602,-0.044041272,0.043444626,9.799681
54514292836731,-0.046052612,0.057276808,9.807602
54514312692860,-0.014786708,-0.0052739,9.73215
54514332549117,-0.029473472,-0.06021068,9.759901
54514352405246,-0.034664366,0.007997972,9.884952
54514372262759,-0.024907697,-0.019276723,9.908262
54514392119016,-0.07248144,-0.07415319,9.99562
54514411975273,-0.12885801,-0.037507985,10.139617
54514431831530,-0.037617452,0.0035430032,10.202615
54514451687915,0.01736075,-0.059064455,10.026119
54514471544148,-0.064315766,-0.04682179,9.829772
54514491400405,-0.13398807,0.021949008,9.750655
54514511256790,-0.10616787,0.07541352,9.594854
54514531113047,-0.03352731,0.089333884,9.507895
54514550969409,0.03656944,0.07731828,9.621255
54514570826294,0.07959532,0.057007283,9.721225
54514590682551,0.04186108,-0.05216755,9.884892
54514610538936,-0.055740077,-0.11293619,10.008938
54514630395193,-0.14087693,-0.0792095,10.050078
54514650251450,-0.13239053,-0.075478405,10.058028
54514670109535,-0.1088724,-0.12145421,10.057385
54514689965920,-0.07504239,-0.08411395,10.025395
54514709822177,-0.10063131,-0.002392064,9.97251
54514729678562,-0.10183752,0.056105155,9.813585
54514749534819,-0.032384347,0.038752854,9.678325
54514769387540,0.022961328,0.05366612,9.672855
54514789243797,0.0083597535,0.024243698,9.654629
54514809100054,-0.08877631,-0.002838307,9.670734
54514828956311,-0.12646843,-0.062281568,9.732371
54514848812568,-0.075131655,-0.069938995,9.847116
54514868668167,-0.039921697,-0.061478015,9.941208
54514888524424,-0.06194241,-0.069930814,10.02568
54514908380681,-0.11584806,-0.10022922,10.086618
54514928236938,-0.11640662,-0.078067996,10.096296
54514948093195,-0.0897545,-0.039729513,10.04264
54514967936950,-0.12212755,9.274614E-4,10.010495
54514987792951,-0.12955795,0.013328844,9.89572
54515007648952,-0.12945394,0.03801432,9.749099
54515027504933,-0.11171089,0.032996263,9.686336
54515047360806,-0.06529225,-0.014880063,9.63328
54515067216655,-0.0179287,-0.008225858,9.640927
54515087072656,-0.045641858,-0.0027448975,9.71628
54515106928657,-0.087667555,-0.019485073,9.804352
54515126784658,-0.09881459,-0.099535435,9.892779
54515146640659,-0.13916337,-0.10995892,9.99197
54515166497086,-0.16400312,-0.09242613,10.060042
54515186353087,-0.14496307,-0.04362892,10.077427
54515206209088,-0.122077174,-0.030703094,10.052703
54515226065089,-0.09473504,-0.0346397,10.058554
54515245921218,-0.064764716,-0.02253437,9.950172
54515265773739,-0.07499611,-0.02038452,9.850413
54515285629612,-0.11059325,0.026065892,9.839195
54515305485485,-0.067354865,0.05084481,9.738119
54515325341358,-0.044598732,-0.010326841,9.663167
54515345197231,-0.087287575,-0.06698388,9.735324
54515365047838,-0.06534574,-0.071196064,9.822107
54515384903583,-0.06336364,-0.05537506,9.869568
54515404759328,-0.08872193,-0.07415793,9.937199
54515424615073,-0.11475805,-0.062360335,10.023671
54515444470946,-0.11459893,-0.07358648,10.011452
54515464326601,-0.1264246,-0.04910674,9.960637
54515484182218,-0.14263675,-0.0028315359,9.993025
54515504037941,-0.12228425,0.009021141,9.916673
54515523893686,-0.121556945,0.02075914,9.781957
54515543749431,-0.13104235,-0.019869465,9.744047
54515563610668,-0.09317736,-0.021887228,9.774563
54515583466413,-0.070155874,-0.07074801,9.739005
54515603322158,-0.11542682,-0.079717346,9.750414
54515623178031,-0.14021939,-0.072404176,9.801586
54515643033776,-0.092199974,-0.07409127,9.83193
54515662887711,-0.09947774,-0.083781004,9.883929
54515682743456,-0.1433648,-0.051961493,9.955529
54515702599201,-0.12828426,-0.039087463,9.970187
54515722455074,-0.12503505,-0.032860972,9.973897
54515742310819,-0.11045117,-0.022871759,9.953643
54515762170062,-0.07932811,-0.01622259,9.902869
54515782025935,-0.13578512,-0.011356469,9.880762
54515801881808,-0.17949842,-0.0055893846,9.912452
54515821737681,-0.13754323,-0.02919015,9.842665
54515841593554,-0.13541417,-0.068571456,9.792494
54515861451123,-0.12024841,-0.030182805,9.761175
54515881306996,-0.123647824,-0.015466841,9.788924
54515901162869,-0.12599194,-0.020026961,9.841908
54515921018870,-0.11160538,-0.03454571,9.862947
54515940875363,-0.12309905,-0.027082201,9.899131
54515960731236,-0.15878712,-0.037273604,9.973757
54515980587087,-0.13919026,-0.027767519,9.948377
54516000442960,-0.18255287,-0.03984605,9.966421
54516020298833,-0.1678051,-0.045363788,10.026142
54516040154834,-0.0646088,-0.06802039,9.87178
54516060010823,-0.09983492,-0.023114149,9.77936
54516079866696,-0.15598835,0.029796962,9.767571
54516099722569,-0.124097556,0.027099116,9.744175
54516119578442,-0.13309518,-0.020360949,9.721936
54516139434315,-0.20257668,-0.04928829,9.76639
54516159295796,-0.12046353,-0.018453682,9.771052
54516179151797,-0.092496425,-0.018208222,9.821895
54516199007926,-0.14124462,-0.04538894,9.89318
54516218863927,-0.16625385,-0.043476757,9.9211445
54516238719928,-0.15700133,-0.010552438,9.93045
54516258575929,-0.12598717,-0.024307705,9.934102
54516278439390,-0.105982,-0.016020425,9.930504
54516298295519,-0.1432252,0.011590419,9.885872
54516318151776,-0.1668011,0.04093945,9.851088
54516338008033,-0.17066644,-0.015423031,9.814562
54516357862156,-0.14936721,-0.043251086,9.817873
54516377718413,-0.124005765,-0.04587877,9.809349
54516397574542,-0.09154592,0.011779186,9.835669
54516417430799,-0.11858286,0.025220169,9.866158
54516437286928,-0.14359047,-0.011408325,9.920144
54516457140007,-0.15964502,-0.049159814,9.900162
54516476996136,-0.1917349,-0.03242925,9.938829
54516496852393,-0.16349101,-0.013288633,9.942268
54516516708522,-0.13659853,-0.030330079,9.896306
54516536564651,-0.13952625,-0.0247489,9.934332
54516556420908,-0.09833578,-0.004742244,9.90334
54516576277457,-0.10701854,0.002427076,9.804624
54516596133586,-0.13650759,-0.029358696,9.803398
54516615989715,-0.117283225,-0.035438493,9.826136
54516635845844,-0.12222409,-0.033155218,9.838996
54516655697407,-0.15382765,-0.04038605,9.860251
54516675553408,-0.19331191,-0.08372884,9.84698
54516695409537,-0.10568329,-0.019365067,9.841564
54516715265538,-0.084892474,-9.913289E-4,9.903825
54516735121667,-0.10700314,-0.030677924,9.942081
54516754977838,-0.16278231,-0.056392577,9.901132
54516774833967,-0.1883151,-0.03084487,9.843524
54516794689968,-0.16609092,0.014965562,9.843037
54516814546097,-0.119589336,-0.0042641773,9.850043
54516834402098,-0.087601006,-0.048812333,9.851955
54516854258227,-0.0934599,-0.016239293,9.868898
54516874116770,-0.118037365,-0.020655388,9.910193
54516893972899,-0.13036948,-0.044185415,9.937284
54516913829028,-0.1498177,-0.09176422,9.89812
54516933685137,-0.16159306,-0.04324418,9.896579
54516953532538,-0.15299648,-0.0019790928,9.883189
54516973388411,-0.16915415,-0.029007882,9.877767
54516993244284,-0.175034,-0.05012774,9.790054
54517013100157,-0.16081549,-0.007466625,9.811135
54517032956158,-0.09203951,0.043154158,9.866926
54517052812031,-0.0800619,-0.040809248,9.912305
54517072668014,-0.11574264,-0.05841366,9.973084
54517092523887,-0.17393993,-0.051947925,9.951362
54517112379760,-0.20098016,-0.017096322,9.922745
54517132235633,-0.18440263,-0.09604313,9.849021
54517152091634,-0.13280292,-0.034570765,9.811992
54517171950171,-0.101662084,-0.008488188,9.799699
54517191806044,-0.10816793,-0.013527677,9.806122
54517211662045,-0.12818192,-0.03153183,9.79048
54517231518046,-0.08773821,-0.0041555474,9.829701
54517251367111,-0.120084316,-0.045689967,9.841151
54517271222856,-0.19094828,-0.04260571,9.865564
54517291078729,-0.18556672,-0.041500807,9.885275
54517310934474,-0.108021796,-0.04846789,9.847616
54517330790219,-0.11143485,-0.039187517,9.76393
54517350646092,-0.13353847,0.0350539,9.802469
54517370496487,-0.09325543,0.056526512,9.820823
54517390352104,-0.07851812,-0.031508643,9.821152
54517410207825,-0.12576947,-0.09483971,9.81112
54517430063442,-0.17912418,-0.028544653,9.890356
54517449919187,-0.12656924,0.0029636472,9.9522295
54517469750704,-0.13957162,-0.10874029,9.970188
54517489605937,-0.13546929,-0.08634685,9.9553
54517509461042,-0.10541466,-0.028464632,9.940067
54517529316275,-0.13890457,8.4423873E-4,9.920215
54517549178256,-0.13520157,-0.021497408,9.8957205
54517569033489,-0.07695,0.010074174,9.893762
54517588888850,-0.07296286,-7.855919E-4,9.808019
54517608744083,-0.1426627,0.0034266908,9.803241
54517628599444,-0.16589186,9.3284587E-4,9.8277645
54517648454677,-0.10797626,-0.02014697,9.804695
54517668313652,-0.09894618,-0.023751015,9.830658
54517688168885,-0.12927611,-0.0277276,9.933446
54517708024246,-0.12484337,-0.0951507,9.965406
54517727879607,-0.128604,-0.08943581,9.954472
54517747734840,-0.13010569,-0.049004562,9.943594
54517767593213,-0.15064733,-0.05737048,9.915334
54517787448574,-0.12796934,-0.040128656,9.886642
54517807303935,-0.17546105,-0.048080027,9.8689165
54517827159296,-0.18475498,-0.039657075,9.836644
54517847014657,-0.15282594,-0.0066209026,9.784173
54517866870018,-0.13723566,-0.02281792,9.772966
54517886732654,-0.1296819,-0.08531185,9.79856
54517906588143,-0.10024561,-0.07443387,9.856553
54517926443760,-0.078626834,-0.051913373,9.875577
54517946299249,-0.14676009,-0.078918345,9.903258
54517966157324,-0.18977197,-0.10884232,9.907658
54517986012941,-0.18396027,-0.075525254,9.9146805
54518005868558,-0.1526603,-0.060668502,9.890169
54518025724047,-0.14739239,-0.07568747,9.872113
54518045579664,-0.12465094,-0.066361964,9.831918
54518065432057,-0.11974433,-0.03471109,9.782243
54518085287546,-0.0963308,-0.0314232,9.770138
54518105142907,-0.102500536,-0.03948202,9.7906065
54518124998396,-0.12892295,-0.048705265,9.813761
54518144853885,-0.16650315,-0.05348398,9.887143
54518164709374,-0.13672836,-0.04875706,9.853143
54518184572751,-0.13798077,-0.1096597,9.862136
54518204428368,-0.1397812,-0.065883674,9.940198
54518224283985,-0.06873466,-0.02963333,9.902184
54518244139602,-0.09353207,-0.01803926,9.861161
54518264000949,-0.1653448,-0.08348338,9.897821
54518283856694,-0.12598878,-0.04143752,9.901016
54518303712439,-0.09970188,0.029572709,9.888696
54518323568056,-0.1421717,-0.024815686,9.878021
54518343423801,-0.15589489,-0.08172154,9.8587675
54518363279554,-0.06963977,-0.031299785,9.845489
54518383135299,-0.067970015,-0.017569782,9.870453
54518402991044,-0.11536602,-0.028830577,9.852013
54518422846917,-0.13341744,-0.011906298,9.819327
54518442702662,-0.12021834,-0.022443894,9.878006
54518462558407,-0.09203054,-0.002800094,9.879105
54518482422168,-0.11561933,0.0028349012,9.898031
54518502278169,-0.1499006,-0.06474019,9.84512
54518522134170,-0.16045256,-0.09267694,9.868774
54518541990171,-0.09474471,-0.026078003,9.8741665
54518561840638,-0.11391473,-0.037631407,9.820682
54518581696511,-0.15586005,-0.024576364,9.770584
54518601552384,-0.17397317,0.017394457,9.782488
54518621408257,-0.099994086,0.043782584,9.798642
54518641264130,-0.04978799,-0.03632936,9.807177
54518661120003,-0.088168405,-0.036367945,9.84239
54518680978308,-0.13279977,-3.1089137E-4,9.878162
54518700834309,-0.13291743,0.025238475,9.920414
54518720690310,-0.095176585,-0.01974925,9.860833
54518740546311,-0.10614597,-5.1338173E-4,9.850527
54518760402312,-0.12816823,0.029574579,9.90898
54518780258833,-0.11994735,0.020994386,9.877535
54518800114834,-0.12332075,0.027468316,9.790793
54518819970963,-0.11502431,-7.2217925E-4,9.826192
54518839826942,-0.07369498,-0.008242491,9.850541
54518859683619,-0.053816546,0.015877679,9.869951
54518879539748,-0.10378227,-0.015060502,9.862047
54518899395877,-0.16229609,-0.024683477,9.890783
54518919252006,-0.11768676,0.017170204,9.903612
54518939108135,-0.089433976,0.046027362,9.926291
54518958964264,-0.10796101,0.058089316,9.956282
54518978814531,-0.111689046,0.012740542,9.949073
54518998670532,-0.11505923,-0.0021966845,9.921441
54519018526533,-0.08345734,0.0435753,9.874164
54519038382534,-0.054096643,0.074064024,9.865311
54519058238535,-0.095736705,0.04095265,9.844489
54519078070100,-0.12611303,0.026933476,9.825049
54519097925461,-0.13649137,0.028615389,9.815858
54519117780694,-0.105388656,0.018963588,9.832643
54519137636055,-0.072440945,0.014119474,9.867568
54519157487996,-0.068942495,0.030353485,9.905279
54519177343357,-0.098375514,-0.0019358265,9.906395
54519197198590,-0.12542133,0.0017885235,9.917644
54519217053823,-0.09550222,0.010116116,9.899115
54519236909184,-0.09855985,0.0529408,9.901042
54519256764417,-0.15936515,0.059665855,9.925995
54519276618780,-0.12114703,0.03667033,9.836825
54519296474013,-0.09692904,-0.006455677,9.782871
54519316329225,-0.107680105,0.035311237,9.828859
54519336184458,-0.044498213,0.09342371,9.768778
54519356039691,-0.053814113,0.06841603,9.770977
54519375894198,-0.1167248,-0.0019288674,9.823523
54519395749303,-0.12353255,-0.037883826,9.852713
54519415604536,-0.10300714,0.023849435,9.882643
54519435459641,-0.095584914,0.03713987,9.846116
54519455314874,-0.10783761,0.007996707,9.8671
54519475170107,-0.10551366,-0.0037444383,9.881673
54519495032186,-0.099931665,0.056128442,9.926264
54519514887547,-0.11752765,0.06161455,9.8984585
54519534742780,-0.11590097,0.04389119,9.860305
54519554598141,-0.11166716,0.046171326,9.914602
54519574446048,-0.07552062,0.07918402,9.911032
54519594301281,-0.124002576,0.044051595,9.882587
54519614156386,-0.17899765,0.011293105,9.874412
54519634011491,-0.11445134,0.017960541,9.795888
54519653866724,-0.06441322,0.050699215,9.811528
54519673723401,-0.07503598,0.03809257,9.860533
54519693578506,-0.09670351,0.008661947,9.82532
54519713433611,-0.12494567,0.0066510863,9.854969
54519733288716,-0.10764279,0.035637107,9.931845
54519753143949,-0.065655984,0.03690561,10.011976
54519772999054,-0.094145834,-0.01365345,10.033646
54519792861337,-0.11232541,0.001973984,9.990882
54519812716570,-0.12956685,0.059282884,9.883544
54519832571803,-0.1423698,0.024625205,9.761231
54519852427164,-0.10197065,0.059089005,9.711315
54519872285883,-0.04782458,0.08967818,9.665134
54519892141244,-0.028502913,0.09741884,9.720245
54519911996605,-0.059020314,0.058388513,9.744441
54519931851966,-0.13001645,0.046178047,9.83173
54519951707327,-0.10930192,-0.006916792,9.952143
54519971567204,-0.09063442,-0.029376017,10.01058
54519991422693,-0.0792024,-0.011793042,10.018985
54520011278054,-0.1371212,-0.02497286,9.975882
54520031133543,-0.13381931,0.0021612472,9.922827
54520050988904,-0.07333544,0.039299496,9.863201
54520070844393,-0.030079277,0.083511405,9.800609
54520090697926,-0.028159507,0.086986706,9.720446
54520110553287,-0.08040777,0.082112655,9.728
54520130408776,-0.12761064,0.08136224,9.7412195
54520150264265,-0.084436394,0.07864929,9.78371
54520170121424,-0.10136585,0.046970285,9.823864
54520189976913,-0.10842122,0.018137766,9.85214
54520209832402,-0.1005152,0.010599186,9.90424
54520229687891,-0.12193769,0.03284888,9.983047
54520249543380,-0.0876579,0.027623659,9.995805
54520269398849,-0.047982033,0.008676642,10.000585
54520289260044,-0.07045556,0.008529507,9.974136
54520309115661,-0.11785313,0.03580921,9.929677
54520328971278,-0.11814216,0.084278926,9.905795
54520348826895,-0.10042274,0.02870036,9.844417
54520368682512,-0.063599885,0.014002307,9.78892
54520388540079,-0.0748241,0.04777416,9.791546
54520408395824,-0.06796604,0.052098323,9.8045635
54520428251569,-0.08526015,0.032828994,9.746927
54520448107186,-0.08474552,0.055147424,9.820323
54520467963285,-0.08737382,0.039105542,9.934555
54520487819030,-0.0755823,0.04855959,9.948558
54520507674775,-0.12684926,0.0054792017,9.940525
54520527530520,-0.120782435,-0.03141016,9.92755
54520547386265,-0.0702981,-0.019826636,9.928832
54520567242138,-0.045471456,0.05026795,9.928601
54520587094903,-0.09851444,0.025590964,9.851055
54520606950648,-0.08818066,0.030996986,9.771107
54520626806393,-0.06594904,0.06939393,9.756774
54520646662138,-0.106396884,0.08369065,9.797571
54520666517883,-0.085394114,0.056075066,9.783782
54520686372446,-0.05994243,0.019010173,9.814412
54520706228063,-0.046443015,0.022258049,9.817239
54520726083808,-0.06868038,0.06407484,9.885568
54520745939404,-0.09865567,0.05625046,9.901755
54520765795021,-0.13423659,0.049333826,9.888867
54520785650766,-0.14078778,0.071643695,9.945278
54520805505517,-0.08881057,0.033079527,9.938196
54520825361134,-0.051986177,0.03551159,9.915785
54520845216751,-0.0688631,0.080410846,9.906236
54520865072368,-0.057616934,0.0800699,9.869138
54520884932685,-0.09071636,0.033056244,9.82552
54520904788302,-0.09067097,0.061377376,9.782598
54520924644047,-0.0866173,0.076860845,9.751522
54520944499664,-0.115806825,0.07912245,9.8335705
54520964355409,-0.106026694,0.046737947,9.848429
54520984208040,-0.052923612,0.029238274,9.848298
54521004063657,-0.054250754,0.025338516,9.96266
54521023919274,-0.08643633,0.045378797,10.002042
54521043774891,-0.085450895,0.021169921,9.913503
54521063630508,-0.11553246,0.045479164,9.885142
54521083486253,-0.10974599,0.0667763,9.867528
54521103330586,-0.05544799,0.03788208,9.81591
54521123186075,-0.049654122,0.051765792,9.7844515
54521143041436,-0.07512036,0.047986418,9.7744465
54521162896925,-0.038239993,0.04991524,9.754375
54521182739450,-0.06419819,0.038970068,9.801652
54521202594555,-0.086023115,0.037895408,9.811745
54521222449768,-0.076033555,0.01832494,9.863658
54521242304873,-0.06407962,0.050812744,9.931615
54521262159978,-0.07550277,0.0429464,9.94245
54521282012937,-0.07426651,0.04587525,9.920996
54521301868042,-0.08914656,0.036098383,9.92415
54521321723147,-0.09120666,0.043020204,9.915886
54521341578124,-0.078749485,0.03358762,9.832698
54521361433229,-0.06594568,0.0479831,9.815883
54521381288334,-0.05912189,0.08624139,9.792088
54521401140209,-0.050068166,0.07752742,9.809602
54521420995314,-0.055590965,0.051411435,9.833525
54521440850291,-0.074598506,0.06289148,9.833997
54521460705268,-0.062895395,0.068242155,9.834866
54521480562391,-0.08369608,0.060414135,9.892492
54521500417496,-0.08939258,0.06035082,9.956324
54521520272473,-0.06195468,0.05310455,9.961461
54521540127450,-0.06708862,0.04487697,9.942663
54521559982555,-0.10592442,0.056277383,9.972996
54521579837532,-0.039341457,0.06113313,9.911186
54521599694405,-0.07710335,0.05242775,9.866113
54521619549382,-0.09561757,0.08820383,9.84239
54521639404487,-0.06218686,0.08080868,9.800795
54521659259592,-0.038773246,0.084096596,9.788689
54521679114697,-0.061053623,0.038789585,9.786836
54521698967501,0.09271703,0.030366214,9.81454
54521718822478,0.11049446,-0.0064359433,9.868722
54521738677327,0.10713924,-0.016380168,9.852163
54521758532304,0.10174041,0.03553322,9.844944
54521778388441,0.13099337,0.032988146,9.892162
54521798243418,0.11483727,-0.014062858,9.863069
54521818098395,0.10962784,-0.029024178,9.846783
54521837953372,0.10471788,-0.004107461,9.872305
54521857808349,0.09960739,-0.0044206236,9.873875
54521877663198,0.08830192,0.020153746,9.849281
54521897521449,0.11675431,0.020992687,9.868997
54521917376426,0.08921318,0.015152505,9.847598
54521937231531,0.06387431,-0.0037921302,9.852677
54521957086508,0.09824087,-0.010090597,9.886563
54521976941613,0.09522569,0.022663493,9.879629
54521996803794,0.11221108,0.0033898395,9.850695
54522016658899,0.123035096,-0.028664285,9.839346
54522036514132,0.13191502,-0.010555721,9.875517
54522056369237,0.12299022,-0.0010745703,9.86297
54522076223344,0.08369229,-0.02342135,9.836548
54522096078577,0.08672552,0.0014529595,9.873304
54522115933682,0.095261455,0.0072728437,9.891289
54522135788787,0.07626202,-8.798471E-4,9.864355
54522155643892,0.085883446,0.028360138,9.857661
54522175499104,-0.13886048,0.0071198,9.852425
54522195357495,-0.077251546,0.0149108935,9.885672
54522215212600,-0.107167736,0.017223047,9.896917
54522235067833,-0.12016835,0.010835996,9.861601
54522254922938,-0.096446104,-0.030456468,9.847505
54522274778171,-0.07927695,-5.7761E-4,9.888569
54522294642410,-0.11971122,0.04522489,9.887374
54522314497771,-0.1167566,0.039975606,9.936612
54522334353132,-0.12424602,0.014006844,9.895501
54522354208493,-0.10716809,0.0050848583,9.863703
54522374063982,-0.095601,0.027882712,9.870914
54522393919343,-0.10841485,0.024449075,9.875278
54522413782500,-0.105463974,0.02010949,9.8779
54522433638117,-0.08955734,0.014894707,9.91262
54522453493734,-0.11354703,0.011703837,9.954026
54522473349351,-0.10531657,-0.022433238,9.907955
54522493208376,-0.08914404,-0.031717557,9.782511
54522513064121,-0.059347313,0.022917844,9.845961
54522532919866,-0.023021817,-0.021070793,9.762902
54522552775739,-0.074374765,-0.04751037,9.680687
54522572631484,-0.06939778,-0.024223343,9.713625
54522592468451,-0.12669379,-0.025879277,9.735992
54522612323940,-0.18013717,-0.042741038,9.774796
54522632179429,-0.20021057,-0.012465331,9.867182
54522652034896,-0.12862562,0.008158046,9.925036
54522671890385,-0.09493853,0.043778334,9.884465
54522691745874,-0.068010256,0.07857465,9.8918495
54522711599601,-0.11128326,0.03673646,9.912782
54522731454962,-0.08682182,-0.029287897,9.927296
54522751310451,-0.040618226,-0.06780965,9.949652
54522771165812,-0.070671655,-0.061608348,9.958561
54522791021577,-0.09469219,-0.033529796,9.89597
54522810876938,-0.11053348,-0.003174589,9.861963
54522830732299,-0.10549045,0.042090595,9.838452
54522850587660,-0.11597359,0.021915095,9.786869
54522870443021,-0.1035394,-0.031250138,9.769885
54522890295396,-0.066676706,-0.037253883,9.816006
54522910150757,-0.045717955,-0.04182712,9.8551235
54522930005990,-0.10093921,-0.04486739,9.920134
54522949861223,-0.13219343,-0.05165388,9.934033
54522969716584,-0.16705829,-0.02628394,9.93075
54522989571817,-0.12906653,0.022894988,9.966734
54523009422478,-0.11773873,0.011734082,9.917421
54523029277583,-0.10671698,-0.02116846,9.88157
54523049132816,-0.089480095,8.26339E-4,9.851005
54523068987921,-0.082274966,-0.014082094,9.795545
54523088840168,-0.09282947,-0.03848102,9.726056
54523108695273,-0.088401005,-0.012991981,9.718746
54523128550357,-0.06800463,0.0042473357,9.775553
54523148405462,-0.11617821,-0.028414644,9.793062
54523168260567,-0.119808175,-0.021523219,9.850315
54523188115672,-0.08716681,-0.024705978,9.932218
54523207975221,-0.0682768,-0.054636918,9.919186
54523227830326,-0.10262805,-0.058691077,9.906876
54523247685559,-0.10232214,-0.07124574,9.894779
54523267540664,-0.12372716,-0.08416509,9.899587
54523287395769,-0.10874394,-0.018124735,9.908718
54523307254226,-0.11846797,-0.0077627916,9.884912
54523327109459,-0.12778352,-0.030370899,9.825625
54523346964564,-0.10958631,-0.051872965,9.777268
54523366819797,-0.06356115,-0.020366108,9.793627
54523386670898,-0.087045394,-0.008471915,9.780686
54523406526003,-0.12027133,-0.022392148,9.783862
54523426381108,-0.09618258,-0.05522486,9.805272
54523446236213,-0.07109904,-0.035768308,9.892889
54523466091318,-0.09709983,-0.04261513,9.944866
54523485946423,-0.11002554,-0.07131861,9.933074
54523505799706,-0.15680449,-0.0313267,9.983806
54523525654811,-0.14262603,-0.02595396,10.018424
54523545509788,-0.14754361,-0.04255757,9.94116
54523565364893,-0.103201926,-0.010391704,9.881388
54523585219870,-0.03347526,0.009211257,9.768429
54523605077160,0.027411692,-0.014504926,9.709335
54523624932393,0.007509747,-0.02076031,9.690306
54523644787498,0.006492104,1.8987803E-4,9.716136
54523664642603,0.01120861,0.036702357,9.737785
54523684495886,-0.007695484,0.0055094776,9.789213
54523704350863,0.013151778,0.016279327,9.949858
54523724205968,-0.009675452,0.022357212,10.016648
54523744060945,-0.0061956896,0.09313531,9.9638195
54523763916050,0.036694,0.15932707,9.949352
54523783771027,-0.009191483,0.11918861,9.934574
54523803635250,-0.05839829,0.040922146,9.959918
54523823490483,-0.03781712,-5.264337E-4,9.901075
54523843345716,-0.028558576,0.057480656,9.816858
54523863200949,0.032998383,0.047586877,9.793108
54523883056182,0.06998067,-0.01983847,9.728664
54523902909049,0.013741046,0.054206327,9.725464
54523922764410,-0.057792548,0.13711481,9.748006
54523942619643,-0.07669871,0.07255776,9.75343
54523962474876,-0.043365702,0.03299937,9.779501
54523982330109,-0.012813134,0.14992432,9.884851
54524002185342,-0.020280518,0.23022999,9.975987
54524022052931,0.004436526,0.26214612,9.991493
54524041908548,0.017945595,0.2909608,9.969098
54524061764165,0.0022478956,0.25048208,9.993095
54524081619633,0.08856103,0.16066448,9.967918
54524101468618,0.15997618,0.11951965,9.860441
54524121324107,0.24166752,0.08665289,9.776266
54524141179596,0.11144922,0.05869037,9.733586
54524161035085,-0.020915106,0.061262015,9.750432
54524180890574,-0.03207831,0.0736784,9.7888565
54524200738463,-0.027421378,0.10971437,9.751844
54524220593568,0.02656207,0.17509185,9.841194
54524240448801,0.05424387,0.14826529,9.97121
54524260304034,0.026011622,0.13310935,9.950887
54524280159139,0.07677785,0.13036546,9.917409
54524300014372,0.09892773,0.14209026,9.925877
54524319875329,0.055344116,0.10639997,9.877276
54524339730690,0.044487644,0.0016904243,9.845408
54524359586051,0.07498874,-0.008006622,9.83934
54524379441284,0.031526916,0.035857353,9.77104
54524399301527,0.002574185,0.09727424,9.7807
54524419157016,0.019648947,0.08101354,9.799871
54524439012505,0.02686559,0.016967334,9.853416
54524458867994,-0.01685432,0.04276288,9.892092
54524478723355,-0.0065407646,0.12934259,9.905774
54524498578844,0.045775294,0.1516312,9.881677
54524518434693,0.08420802,0.10806314,9.876019
54524538290182,0.06143055,0.061227422,9.875132
54524558145523,0.034663346,0.07225418,9.868653
54524578001012,0.024129791,0.04475852,9.859422
54524597856501,0.032649737,0.03694592,9.890986
54524617711002,0.023355765,0.050089907,9.868036
54524637566363,0.02212369,0.11654562,9.84611
54524657421852,0.064127184,0.11677229,9.867721
54524677277341,0.055873793,0.13025627,9.869288
54524697129654,0.03411467,0.07656529,9.872594
54524716984887,0.035625797,0.12146559,9.830964
54524736840248,0.023707446,0.12540759,9.814803
54524756695609,0.03268398,0.102721766,9.888904
54524776550970,-0.001676175,0.08628077,9.900651
54524796406331,0.007756991,0.04272914,9.841894
54524816267606,0.084069006,0.066948816,9.823113
54524836123095,0.09429481,0.09949562,9.823865
54524855978584,0.07306319,0.06998034,9.841554
54524875834073,0.08657,0.09090411,9.827821
54524895689562,0.08295923,0.16490205,9.801681
54524915548665,0.004058341,0.1510054,9.813177
54524935404282,0.022021603,0.102812365,9.839286
54524955259899,0.0718426,0.09335615,9.860933
54524975115516,0.08960899,0.12479201,9.83775
54524994971133,0.053972166,0.12327467,9.838817
54525014826750,0.0495239,0.075634025,9.939802
54525034676038,0.0590575,-0.0013200261,9.917576
54525054531527,0.0843956,0.026132124,9.8806505
54525074387016,0.13524985,0.051871765,9.889168
54525094242505,0.15967184,0.064941354,9.931488
54525114088870,0.08951027,0.07692454,9.928292
54525133944231,0.064645775,0.10589124,9.872025
54525153799464,0.054804828,0.042941593,9.812568
54525173654825,0.03468399,0.03604431,9.709745
54525193510058,0.051978137,0.016767941,9.72266
54525213362883,0.03758475,0.01198188,9.771209
54525233218116,0.06152235,0.009199099,9.856249
54525253073349,0.088691615,0.038268432,9.907225
54525272928582,0.09372696,0.06382227,9.975039
54525292783815,0.09108342,0.06889411,10.077193
54525312639048,0.10914806,0.066478096,10.052064
54525332479843,0.07768526,0.03735511,9.829553
54525352334820,0.12014903,0.035620056,9.795418
54525372189797,0.07932159,0.034719612,9.798112
54525392044646,0.006819399,0.019826042,9.741948
54525411897405,0.0033567508,0.0013063316,9.721609
54525431752382,0.07368411,0.002215972,9.778467
54525451607231,0.061076812,0.069282085,9.784413
54525471462208,0.09394876,0.104629464,9.855775
54525491317057,0.11701237,0.063914515,9.868052
54525511170890,-0.10311157,-0.029821191,9.920828
54525531025739,-0.1052387,-0.04875487,9.96817
54525550880460,-0.061397858,-0.039580163,9.923284
54525570735309,-0.0422126,-0.008546026,9.90057
54525590590158,-0.07498374,-0.009045227,9.8222
54525610444879,-0.09161546,0.0050497814,9.852414
54525630301972,-0.042287536,-0.03918552,9.810404
54525650156949,-0.01611632,-0.10195677,9.791442
54525670011798,-0.021073207,-0.05197086,9.819693
54525689866647,-0.05321796,-0.05229092,9.827208
54525709715760,-0.06663453,-0.09948115,9.802158
54525729570481,-0.07675133,-0.09857275,9.80243
54525749425074,-0.032068,-0.082825005,9.830123
54525769279795,-0.05944712,-0.07440825,9.859157
54525789134516,-0.061477423,-0.043700233,9.870863
54525808989109,-0.086959764,-0.07496927,9.913191
54525828842838,-0.11447244,-0.07552992,9.967224
54525848697431,-0.07479958,-0.06747175,9.897591
54525868552024,-0.0449645,-0.0474742,9.865006
54525888406617,-0.058380354,-0.12759148,9.886644
54525908261338,-0.05454756,-0.08962084,9.902365
54525928117699,-0.039162166,-0.097590715,9.868608
54525947972292,-0.06091782,-0.1403101,9.834793
54525967827013,-0.05581744,-0.13550055,9.818651
54525987681584,-0.047234114,-0.013775239,9.875118
54526007539609,-0.08722479,0.003929869,9.895517
54526027394330,-0.11414609,-0.0067431177,9.902619
54526047249051,-0.07449464,-0.015905153,9.918006
54526067103772,-0.09911322,0.0062193633,9.948396
54526086958365,-0.07048482,0.02921935,9.941253
54526106813086,-0.049746282,0.017890867,9.917225
54526126669755,-0.06375338,-0.021785717,9.8569975
54526146524476,-0.096798584,-0.022007808,9.813781
54526166379325,-0.04208728,-0.0053885067,9.813537
54526186234046,-0.007459354,-0.015245038,9.830644
54526206088767,0.0032001263,-0.047596034,9.782046
54526225944922,-0.021264844,-0.039559755,9.780538
54526245799643,-0.008181976,-0.035508197,9.863686
54526265654492,-0.04413317,-0.0998995,9.85275
54526285509213,-0.052430402,-0.09302569,9.8946295
54526305368256,-0.06276151,-0.04552004,9.8969755
54526325223105,-0.083901204,-0.023501292,9.900815
54526345077954,-0.12895086,-0.018224755,9.891435
54526364932803,-0.14272079,-0.03080528,9.872828
54526384787652,-0.103547335,0.004466818,9.7980995
54526404642501,-0.07568762,0.01916754,9.782031
54526424499550,-0.09486604,-0.064327344,9.762349
54526444354527,-0.07056879,-0.11740503,9.78519
54526464209353,-0.07180807,-0.029443366,9.845911
54526484064330,-0.07794326,0.041368943,9.903554
54526503919307,-0.04458863,0.080162235,9.89348
54526523779608,-0.05887681,0.10103881,9.941941
54526543634713,-0.066432275,0.035302427,9.945069
54526563489818,-0.09165359,0.046445794,9.90561
54526583344923,-0.06985824,0.05872934,9.858807
54526603200156,-0.07302786,0.04527218,9.806737
54526623055261,-0.07124038,0.01415993,9.753199
54526642914314,-0.057339728,0.006211803,9.731604
54526662769547,-0.027442414,0.026751595,9.777021
54526682624780,-0.077328905,0.05096028,9.805859
54526702480013,-0.106797665,0.08407882,9.851198
54526722341744,-0.12122775,0.14040293,9.9144125
54526742197105,-0.115544,0.121799335,9.942449
54526762052466,-0.1504205,0.109812155,9.918038
54526781907827,-0.14173512,0.059154868,9.919696
54526801763188,-0.10060893,0.029553518,9.879234
54526821618329,-0.06527438,0.07029106,9.852455
54526841473818,-0.039926413,0.06873221,9.796565
54526861329179,-0.039187945,0.105629176,9.816398
54526881184540,-0.08047934,0.068162754,9.756329
54526901040029,-0.116645366,0.058552068,9.773241
54526920895390,-0.109845355,0.061999395,9.860285
54526940747757,-0.07287838,0.010297883,9.846003
54526960602990,-0.073942974,0.07403679,9.782027
54526980458351,-0.085609876,0.1556184,9.867445
54527000313584,-0.03452086,0.11181131,9.865897
54527020166165,-0.0052212616,0.07884266,9.842694
54527040021398,-0.014138157,0.10962428,9.833432
54527059876631,-0.0450566,0.0817797,9.834449
54527079731864,-0.06419202,0.011622835,9.813556
54527099586969,-0.07291599,0.04480133,9.779871
54527119435516,-0.04700451,0.10673065,9.753272
54527139290621,-0.051072314,0.088592745,9.691337
54527159145726,-0.046046488,0.05978836,9.653318
54527179000831,-0.04328343,0.04298875,9.627032
54527198855936,-0.02524058,0.02789151,9.638141
54527218711169,-0.05940703,0.01685274,9.6677885
54527238563740,-0.07697012,0.047734186,9.759458
54527258418717,-0.08499315,0.040658876,9.75048
54527278273822,-0.08975211,0.073776625,9.756746
54527298128927,-0.084886566,0.06892625,9.72108
54527317977574,-0.048517086,0.07418483,9.701684
54527337832551,-0.039096143,0.04867736,9.645003
54527357687528,-0.062046885,0.031271998,9.598725
54527377542377,-0.050993543,0.012931465,9.522797
54527397397354,-0.055647604,0.025458887,9.470441
54527417252308,-0.0031647983,-0.004465582,9.482784
54527437106913,-0.06862649,0.041668367,9.523139
54527456961890,-0.09664225,0.029521134,9.512049
54527476816867,-0.1197142,0.029777419,9.497641
54527496671716,-0.08894093,0.061009895,9.615335
54527516526693,-0.08703582,0.019151641,9.655333
54527536385986,-0.13108832,0.023068411,9.631989
54527556240963,-0.14064005,0.061688583,9.622093
54527576095940,-0.10342196,0.023463873,9.581323
54527595950917,-0.07415062,0.018294094,9.550282
54527615798878,-0.08232937,0.049939808,9.493871
54527635653727,-0.11915912,0.07366686,9.453341
54527655508576,-0.09804759,0.05784583,9.415271
54527675363425,-0.036988392,0.06570082,9.376556
54527695218146,0.0012589255,0.061578225,9.335143
54527715072995,-0.023209581,0.060468104,9.361964
54527734924798,-0.07260467,0.035635006,9.375327
54527754779519,-0.094904795,-2.9212653E-4,9.378946
54527774634240,-0.054090194,0.02056488,9.417473
54527794488961,-0.055054262,0.074729875,9.478504
54527814343810,-0.091513984,0.0992745,9.579925
54527834197281,-0.15591787,0.09324467,9.549578
54527854052002,-0.091237135,0.011190278,9.458477
54527873906723,-0.036674645,0.0069047324,9.354304
54527893761296,-0.055637255,0.0043025305,9.28756
54527913621667,-0.04275213,0.017994061,9.215338
54527933476388,0.0044862875,-0.038989812,9.097641
54527953331237,-0.024168963,-0.01115349,9.10829
54527973186086,-0.025166309,0.03818564,9.171631
54527993040807,-0.054488476,-0.022638172,9.255496
54528012895656,-0.10062959,-0.09363787,9.355717
54528032749129,-0.1538459,-0.15049772,9.362764
54528052603850,-0.15445097,-0.0831317,9.424747
54528072458571,-0.13881966,-0.05011083,9.449442
54528092313292,-0.098161325,-0.057119027,9.338538
54528112168013,-0.033317883,-0.013384313,9.266191
54528132026872,-0.0050353836,-0.003770517,9.199195
54528151881593,0.031172208,0.016419543,9.186213
54528171736442,0.06092209,0.027962653,9.183304
54528191591163,0.02539929,-0.00943801,9.107371
54528211446012,-0.04159893,-0.0024371753,9.18943
54528231300733,-0.044887748,0.01734896,9.273764
54528251164738,-0.05163695,0.018888323,9.224643
54528271019715,-0.081515685,0.017494127,9.22707
54528290874692,-0.10429062,-0.048927367,9.310327
54528310729669,-0.011402174,-0.09155543,9.316196
54528330588578,-1.9574846E-4,-0.07181974,9.264595
54528350443683,-0.07024871,-0.032984838,9.303697
54528370298894,-0.16059919,-0.15993018,9.291158
54528390153999,-0.17439367,-0.17735332,9.252621
54528410009104,-0.14213769,-0.13079078,9.219725
54528429863215,-0.14297646,-0.08036444,9.188444
54528449718320,-0.1460551,-0.055416502,9.232596
54528469573425,-0.15740766,-0.063606866,9.264626
54528489428530,-0.17439203,-0.096081614,9.257107
54528509283763,-0.1229202,-0.06994504,9.279705
54528529138868,-0.116116956,-0.04686212,9.314167
54528549003995,-0.12361469,-0.098964795,9.3349
54528568859356,-0.1358545,-0.12819035,9.320939
54528588714717,-0.11271118,-0.07483798,9.315922
54528608570078,-0.040821154,-0.047989134,9.339673
54528628424763,-0.038076214,-0.056518298,9.306227
54528648280124,-0.07067497,-0.067902796,9.233735
54528668135613,-0.089081414,-0.03897127,9.263264
54528687990974,-0.055079114,-0.07247096,9.209082
54528707846335,-0.044044357,-0.0695138,9.175961
54528727699490,-0.005359083,-0.008026934,9.263959
54528747554723,0.0013611024,-0.028730161,9.277165
54528767410084,-0.020034175,-0.070374474,9.1941
54528787265445,-0.058724813,-0.04769697,9.2384815
54528807120806,-0.03359814,0.028587418,9.343548
54528826976167,-0.06482592,-0.0053739487,9.31054
54528846831220,-0.06507629,-0.004271728,9.254605
54528866686581,-0.02190699,0.036045935,9.264403
54528886541942,-0.001714703,0.049326662,9.265391
54528906397303,-0.0065272884,0.029253555,9.256204
54528926253232,-0.011180216,0.024700977,9.267337
54528946108465,-0.053998053,-0.025143694,9.2507
54528965963826,-0.09029261,-0.015679084,9.2440405
54528985819187,-0.09049217,5.3951686E-4,9.244921
54529005674548,-0.061076414,-0.044151142,9.273458
54529025529781,-0.041932285,-0.05742122,9.281183
54529045380554,-0.061538685,-0.006460434,9.217581
54529065235787,-0.06041136,-0.005446697,9.2447405
54529085091148,-0.081494756,-0.055776816,9.307052
54529104946381,-0.060286734,-0.0799134,9.319956
54529124801614,-0.044332985,-0.016736642,9.247874
54529144647205,-0.0981053,-0.013006088,9.251657
54529164502310,-0.12217443,-0.020298474,9.2958
54529184357543,-0.09868857,-0.051228244,9.2780285
54529204212648,-0.0811289,-0.045012336,9.265241
54529224063943,-0.03876218,-0.029799191,9.27474
54529243918920,-0.02792293,-0.040654555,9.216618
54529263773897,-0.049698077,-0.07502438,9.206344
54529283628874,-0.05925827,-0.056463365,9.285669
54529303483851,-4.6357582E-4,-0.021491982,9.280232
54529323338933,0.014816621,0.0131906085,9.252531
54529343187730,-0.052273877,0.0018295159,9.296616
54529363042579,-0.04592177,0.013804178,9.367662
54529382897428,-0.047231127,0.01993928,9.315073
54529402752277,-0.09953939,0.015067287,9.243709
54529422607126,-0.139928,-0.0020111955,9.287661
54529442453497,-0.07757075,-0.035489023,9.3591
54529462308090,-0.022093287,-0.06119785,9.353629
54529482162683,-0.036401246,-0.06160873,9.301691
54529502017404,-0.048480503,-0.028589128,9.29559
54529521870815,-0.02882853,0.0090963235,9.335602
54529541725408,-0.01737394,0.049850326,9.366139
54529561580001,-0.018216291,0.042702124,9.418446
54529581434594,-0.013995772,-0.032783564,9.413351
54529601289187,-0.010448379,-0.011782369,9.3516865
54529621143780,-0.034091476,0.009656861,9.333071
54529640992133,-0.046517283,0.003439429,9.348471
54529660846598,-0.017095594,-0.06316015,9.363202
54529680700935,-0.08768484,-0.12683924,9.357639
54529700555400,-0.15188308,-0.13823335,9.379832
54529720409865,-0.18564709,-0.11397011,9.407826
54529740264220,-0.14960645,-0.062183514,9.414607
54529760118685,-0.13553466,-0.08198007,9.337886
54529779973022,-0.13850507,-0.09723488,9.354286
54529799827337,-0.08712577,-0.050126713,9.414573
54529819681802,0.035383213,-0.044637125,9.410242
54529839536139,0.013857764,-0.04010068,9.417677
54529859394456,-0.06402655,-0.066008665,9.41476
54529879248921,-0.10116451,-0.08305167,9.456512
54529899103386,-0.1439852,-0.06672214,9.50697
54529918957851,-0.13908242,-0.04652698,9.542793
54529938812340,-0.12225486,-0.04880492,9.479484
54529958666677,-0.13653338,-0.046355978,9.457479
54529978521142,-0.09847961,-0.051899742,9.469968
54529998375607,-0.041026976,-0.067310885,9.469031
54530018230072,0.021260552,-0.07801745,9.454533
54530038085537,-0.033421233,-0.056886565,9.476205
54530057940002,-0.06799211,-0.029743802,9.548581
54530077794467,-0.09007263,-0.015996227,9.548016
54530097648804,-0.10258431,-0.039179306,9.584576
54530117503269,-0.12869643,-0.07301344,9.599057
54530137357606,-0.093573794,-0.101930596,9.614236
54530157216515,-0.037040103,-0.08731829,9.638613
54530177071108,-0.042134617,0.0101610925,9.620703
54530196925573,-0.056999996,0.009422826,9.615148
54530216780166,-0.04329245,-0.011248841,9.601868
54530236641879,-0.051738635,-3.3895473E-4,9.608562
54530256496600,-0.0812337,0.01458554,9.642136
54530276351172,-0.043016057,0.048154738,9.664245
54530296205893,0.0072097443,-0.0037469717,9.648984
54530316060486,-0.059158053,-0.109509364,9.704176
54530335913903,-0.07821237,-0.15011624,9.766413
54530355768624,-0.075270176,-0.14833908,9.779073
54530375623217,-0.049965423,-0.16593255,9.762068
54530395477938,-0.045569412,-0.23152038,9.783848
54530415332531,-0.07963889,-0.18393706,9.789163
54530435187252,-0.12844715,-0.113128304,9.791019
54530455046995,-0.10783724,-0.09631182,9.777978
54530474901844,-0.04533373,-0.11016885,9.743648
54530494756565,-0.03846318,-0.15579867,9.7181
54530514611414,-0.054450013,-0.18040702,9.742035
54530534480855,-0.055627458,-0.17800601,9.786374
54530554335960,-0.07021031,-0.2162932,9.846793
54530574191193,-0.02752773,-0.2351119,9.820486
54530594046298,-0.055664167,-0.11216543,9.83559
54530613901531,-0.11692955,0.060107276,9.863703
54530633756636,-0.15066846,0.055354647,9.834605
54530653618283,-0.09419345,0.07074771,9.87641
54530673473644,-0.059206944,0.22061867,9.838177
54530693328877,-0.010521453,0.35560915,9.890373
54530713184238,-0.047497544,0.29471123,9.977295
54530733039599,-0.04588793,0.027538685,9.76024
54530752892727,0.020877559,0.10181119,9.801914
54530772747960,-0.045498937,0.18195803,9.807817
54530792603193,-0.058561333,0.09198796,9.795124
54530812458426,-0.022906315,-0.0696302,9.848338
54530832317725,0.37305018,0.5965391,9.975581
54530852173086,0.14767161,0.11474847,9.888833
54530872028447,-0.29044056,-0.3738136,9.813679
54530891883808,-0.90742725,-0.8231234,9.442832
54530911739297,0.4035152,0.14493637,10.273352
54530931594658,0.24650846,0.2611162,9.9661875
54530951447429,-0.35818997,-0.39408165,9.546687
54530971302918,0.13506924,-0.4101996,9.646805
54530991158279,0.3594458,0.045933366,9.953048
54531011013640,-0.084068045,0.22702308,10.027436
54531030869001,-0.3868616,0.51128787,10.125897
54531050716072,0.07051081,0.21925667,9.7575655
54531070571305,-0.07879577,-0.1539701,9.840263
54531090426538,-0.3063451,-0.19396324,10.01581
54531110281771,-0.104129426,-0.30842033,9.351408
54531130137004,0.14289361,-0.25635043,9.434904
54531149984527,0.203654,-0.1957476,9.560571
54531169839632,-0.05617296,-0.31279558,9.903363
54531189694609,-0.10752181,-0.51936734,9.701353
54531209549714,0.18938255,-0.18492796,9.79637
54531229404798,-0.27332795,1.8530384E-4,9.854584
54531249256093,-0.3687828,-0.8951716,9.8811865
54531269111070,-0.549205,-0.907036,9.927038
54531288966047,0.56551075,-0.31763384,9.408996
54531308821024,-0.17642824,-0.24867651,9.633667
54531328676001,-0.91888183,-0.3381558,9.60627
54531348530978,-0.832256,-0.24312878,9.973978
54531368377647,0.21632592,0.38627818,10.187482
54531388232496,0.3381137,-0.24678919,9.8637495
54531408087217,0.12685244,-0.74848765,9.870174
54531427942066,0.28237662,-0.834553,9.727655
54531447796787,0.23883581,-0.9428778,9.847306
54531467647498,0.30467018,-0.7065063,10.031664
54531487502219,0.79592186,-0.33180937,9.975328
54531507356940,0.8211794,-0.7748467,9.6331835
54531527211661,0.47694203,-0.7355101,9.763767
54531547066254,0.1653537,-0.18289757,10.106098
54531566918635,-0.43488994,0.6135356,10.216369
54531586773228,-1.3396147,0.9305932,9.939373
54531606627821,-1.6252891,1.3123085,10.223858
54531626482414,-1.6898547,1.3601527,10.072625
54531646337007,-1.3960686,0.2649907,9.404635
54531666188566,-0.6500115,-1.0916009,9.452588
54531686043031,0.18714473,-1.0167861,9.6169
54531705897602,1.1222975,-0.31582296,9.5821495
54531725752067,0.28141412,-0.31475937,10.242954
54531745606660,0.49030274,-0.24886547,10.239505
54531765457755,1.1471012,-0.10079503,9.629392
54531785312220,1.4223981,-0.27433622,9.356199
54531805166557,0.40486947,-0.8699407,9.71259
54531825021022,0.71566343,-1.026501,9.656858
54531844875487,1.6129419,-0.4083056,9.549033
54531864734200,1.2525592,-0.6262917,10.033132
54531884588665,1.2768352,-1.7694671,10.225688
54531904443258,2.1451359,-2.0034282,10.519622
54531924297723,1.2647046,-1.8825884,10.51637
54531944152188,1.0530362,-1.8613971,10.165813
54531964004783,0.037854414,-1.5194811,10.557578
54531983859120,-2.0772383,-1.2397503,11.820699
54532003713457,-2.2677085,-0.082367055,11.413596
54532023567794,-3.0678105,-0.9696335,10.488287
54532043422259,-3.072294,-3.0461698,9.040306
54532063278284,-2.8096826,-3.5375152,9.800445
54532083132621,-3.841132,0.087482065,12.043606
54532102986958,-4.132101,3.0255513,12.888799
54532122841295,-3.893065,1.9629983,11.697401
54532142695632,-2.9384277,0.8279069,9.40044
54532162554671,-2.2521465,0.32118875,8.294238
54532182409242,-2.5205555,2.6448066,7.942421
54532202263707,-0.91099036,2.6886709,8.526446
54532222118172,-2.1220937,2.0826514,8.546393
54532241972637,-5.448495,2.2661412,5.784453
54532261834532,-3.7823825,2.9108295,6.740053
54532281689253,-1.8153086,1.2721745,7.7865715
54532301543974,-1.0583025,-0.5850979,9.254341
54532321398567,0.6307872,-2.1317613,12.338411
54532341253288,-1.1453123,-3.3254614,11.504116
54532361106565,-2.520201,-0.6971784,9.072602
54532380961158,-3.5485258,1.6562608,8.188461
54532400815879,-2.0625184,2.1974256,7.1952076
54532420670600,-1.8326379,0.52619797,6.849083
54532440525193,-2.0418096,-0.7580143,7.1621437
54532460387948,-1.4083856,-0.35585678,8.271748
54532480242925,0.1075152,0.19131465,8.165401
54532500097774,0.48364365,-0.4791988,8.711146
54532519952751,-0.6448822,-1.5945812,9.347639
54532539807600,-0.045837224,-1.7864951,8.559846
54532559667539,0.2552086,-2.6558375,9.347467
54532579522644,0.45345536,0.6408775,11.098226
54532599377621,0.01046116,-0.6255942,12.720816
54532619232726,0.29855087,-2.564029,12.467201
54532639087703,-1.652983,-2.1287525,13.0257225
54532658947304,-7.198944,-3.1083243,14.009178
54532678802409,-8.199902,2.5426035,16.034992
54532698657514,-4.078303,3.9626827,15.323824
54532718512619,-1.9537477,0.478945,14.948647
54532738367852,-2.4234962,-0.6859923,15.090074
54532758225359,-5.569313,5.874296,11.023087
54532778080464,-7.395954,5.20675,7.920848
54532797935697,-4.806056,2.5755663,8.645429
54532817790802,-2.4573493,1.2896576,9.130401
54532837646035,-1.2650559,0.94353855,9.237963
54532857498540,-1.2590822,0.47316578,7.880376
54532877353773,-2.2571552,-0.80900174,7.3238573
54532897209006,-2.535566,-1.2333541,5.7060432
54532917064111,-3.0263772,-0.5510601,5.360024
54532936919344,0.10225539,0.5247608,7.6215878
54532956765663,3.6457107,2.6275556,10.254158
54532976620640,5.1369743,1.7701284,11.067607
54532996475617,0.8957828,4.5867414,9.132909
54533016330594,1.332702,-0.69579846,8.158432
54533036185571,2.6628525,0.5921247,7.3104653
54533056037952,2.7482193,1.9840088,7.7212873
54533075892929,3.6090024,1.989596,6.818441
54533095747778,1.7324228,6.7761416,5.999612
54533115602755,0.2781929,2.0601506,8.954216
54533135457581,-4.8075404,6.0581565,5.3360715
54533155307346,-1.6403221,6.2711034,9.064389
54533175162195,-0.8767506,1.4074928,11.066333
54533195017044,-2.6999052,4.1380453,10.623749
54533214871893,-0.7232445,2.8982928,14.239017
54533234726742,-0.6356341,2.1590629,13.671375
54533254581591,-0.58728725,2.5482457,13.134703
54533274435648,1.1790664,2.4902136,14.701501
54533294290497,2.0646174,2.7363884,15.552955
54533314145218,2.1533978,2.5069795,15.164194
54533334000067,2.5084457,1.579868,15.100554
54533353854916,2.6132193,2.9457889,16.75709
54533373708133,2.0557277,6.437062,17.5296
54533393562854,1.4692421,8.722826,16.237566
54533413417575,0.6953546,8.376055,14.6225395
54533433272296,0.4080827,5.548131,12.465497
54533453127017,-0.059700094,2.2948527,10.945682
54533472982366,-0.49227855,0.56357837,8.7951
54533492837087,-0.706141,0.79029727,7.5181046
54533512691808,-0.19902493,0.30719152,7.507379
54533532546657,0.1925284,-0.42770597,7.285223
54533552401378,0.7156242,-2.1184003,7.1407495
54533572262219,-0.53408873,-1.8951411,6.3950334
54533592117068,-1.5858238,-1.6187655,4.3081117
54533611971894,-3.5228155,0.48749647,1.9994049
54533631826743,-3.9503453,-0.13956161,5.394307
54533651681592,-3.875615,-1.7171183,6.897037
54533671536349,-3.81686,-1.0790694,6.9905868
54533691391198,-3.9899883,0.7011563,6.332078
54533711246047,-3.9455626,2.0719728,7.014656
54533731100896,-4.109369,1.1863059,8.880251
54533750955745,-3.5359435,-0.99917704,9.562794
54533770809168,-3.3866925,-1.6513073,9.442615
54533790663889,-3.7339516,-0.59823376,10.021918
54533810518738,-3.2180269,0.58034974,9.956761
54533830373587,-2.6797028,-0.11290185,9.676476
54533850182910,-1.6932387,-1.6520027,9.453494
54533870036863,-1.3161283,-1.1271857,9.307805
54533889890816,-1.8751895,0.6719209,9.878744
54533909744769,-1.3874043,0.22892477,9.862535
54533929598594,-0.7549315,-1.710453,8.981516
54533949452547,-0.27693832,-1.9444768,7.9615355
54533969315448,-0.7908201,-0.75719374,8.995198
54533989169401,-1.2805235,0.293054,9.982587
54534009023354,-1.3701438,0.87040186,10.124075
54534028877435,-0.6590522,0.71568155,9.420312
54534048731388,-0.28192914,0.51402175,7.7926397
54534068596965,-0.5804501,1.1897895,8.253596
54534088451025,-2.083951,-0.3056711,9.418652
54534108305234,-0.8740725,0.006336824,9.085007
54534128159443,-0.9413414,0.26445726,9.529745
54534148025982,-0.94324446,0.29774106,9.453584
54534167880447,-0.75927275,1.7409285,9.946747
54534187734908,-1.4981847,1.2518214,9.456486
54534207589244,0.052854735,0.09874368,8.202104
54534227443708,0.32202825,-0.3743764,9.138572
54534247298044,0.34345892,-0.7510057,10.319865
54534267168485,0.13324988,-0.6046435,10.412873
54534287023333,0.2855368,-3.2419822E-4,8.822761
54534306878053,0.8929115,0.38905594,8.694884
54534326732773,0.782293,-0.5500135,10.34507
54534346587621,0.3575599,-0.6955669,11.186619
54534366450960,0.30935615,0.22312944,9.606281
54534386305936,1.1199456,0.2101234,8.376855
54534406160912,0.39947906,1.2548448,9.430043
54534426015888,-2.1925569,2.4274132,12.985044
54534445870864,-0.49408963,2.6367018,11.817691
54534465728193,1.9896894,1.075846,8.965258
54534485583297,0.9560294,1.1792693,9.043258
54534505438273,-1.0210849,3.4437785,9.511534
54534525293377,-0.3790794,3.0359225,9.495403
54534545148481,-0.17575121,1.8222923,9.5859
54534565002671,-0.25829503,2.3382146,9.703303
54534584857775,1.0313103,1.8021612,9.016278
54534604712751,0.90843797,2.1014783,9.58855
54534624567727,-1.1268079,2.8568394,11.568576
54534644422831,-1.2922626,1.4508353,11.337017
54534664277807,-0.17800614,-0.25291783,9.987216
54534684137874,-0.17172891,-1.8340052,9.895583
54534703992978,-0.71979576,-1.1579666,10.247661
54534723848210,0.36585566,1.8643402,9.896612
54534743703314,0.7201137,2.6944268,9.9186125
54534763558546,0.91186845,0.87464464,9.74177
54534783417851,0.08765492,-1.0431296,10.917875
54534803273083,-1.5442376,-2.8051574,12.434727
54534823128316,-0.6979248,-2.8287458,11.019522
54534842983547,1.0227294,-3.5914624,9.285796
54534862844444,1.1014417,-4.5209265,8.614716
54534882699805,1.2253196,-4.455867,8.261673
54534902555164,1.260842,-3.426548,7.388995
54534922410524,-1.4149457,-2.5390227,8.064151
54534942266013,0.55095345,0.62886745,8.154881
54534962116357,0.40975577,0.6213,7.1429996
54534981971717,-0.42027414,-0.75978374,6.1760783
54535001827078,1.1867639,-0.54664266,8.107296
54535021682437,0.84547883,2.2035735,9.97957
54535041537797,1.2312586,5.461301,12.052292
54535061393030,0.56241703,3.7402291,10.493598
54535081238582,-0.67523605,0.6983419,7.9782147
54535101093814,-1.4611001,1.1834548,7.276508
54535120949047,-1.2427602,1.4799314,9.977803
54535140804150,0.3592157,-0.045456026,13.54705
54535160659876,-0.68553686,-3.0132287,13.902115
54535180515237,-4.119595,-4.415558,11.319234
54535200370468,-2.1473212,-1.3849145,12.081651
54535220225828,1.7195855,-0.55056185,10.921743
54535240081189,-0.102297515,-1.4516475,8.888628
54535259936548,-2.0762632,-0.16434628,10.739209
54535279788063,-1.5073597,1.6140834,10.684968
54535299643424,-2.2742558,1.8232081,8.715242
54535319498655,0.5235633,2.8445854,7.8250995
54535339354015,0.36209255,1.1455072,8.646394
54535359209376,-0.10235357,-0.56674975,9.43752
54535379061715,0.4207662,-0.85175115,9.6756315
54535398917075,0.3140801,-0.22379377,8.864533
54535418772436,-1.3097305,-0.91996145,7.8894296
54535438627795,-1.5401855,-0.6009198,7.2488065
54535458463338,-1.9594842,-0.39057443,8.172953
54535478317803,-1.9404339,-0.39863485,9.713765
54535498172266,-1.151348,1.1044825,11.489689
54535518026730,-0.5915746,2.0490456,11.024068
54535537881195,-0.47311753,1.4082208,9.484513
54535557735786,-0.3619795,0.4467505,9.071633
54535577583371,-0.24753767,-0.86042935,10.374048
54535597437708,-1.3893522,-0.24612883,11.722638
54535617292043,-1.5182688,0.42683068,11.63815
54535637146379,-1.0654349,0.4583329,11.399096
54535657000716,-0.5806628,0.13350643,10.557679
54535676856076,0.0793509,-0.4648818,9.171453
54535696710412,0.33987066,-0.615404,8.741846
54535716564749,0.01064838,-0.7809404,8.699453
54535736419084,-0.46644717,-0.6759669,9.74724
54535756276644,-0.60713786,0.57391274,11.475613
54535776130981,-0.17361021,0.9855271,11.714825
54535795985316,-0.087957315,0.43551022,10.850707
54535815839780,0.06473181,-0.29636866,9.921124
54535835694117,-0.36916324,-0.97402817,9.2016535
54535855550685,-0.6271817,-0.5802625,9.410368
54535875407398,-0.52216417,0.33429885,10.142877
54535895261863,-0.19439612,1.0239087,10.627159
54535915116326,0.13555002,1.6159446,11.152737
54535934970790,-0.80756557,1.6383408,10.926948
54535954825255,-1.6682241,1.2738396,9.799754
54535974682052,-0.005680257,1.6310928,9.62679
54535994536516,2.2633889,1.767272,10.290521
54536014391109,1.9918624,1.5799798,9.757868
54536034245572,0.6516641,0.5272962,8.393142
54536054103694,-0.43651155,0.082830034,7.924616
54536073958287,-1.3953749,0.76467586,7.9192815
54536093812878,-0.26517937,0.51227945,8.37951
54536113667342,1.2016404,0.34828338,9.214305
54536133521935,0.64008194,0.4950381,10.096916
54536153376526,0.11177325,2.0054755,11.669443
54536173234771,-0.6963842,0.50555533,10.098894
54536193089492,-1.2476857,-0.7051873,7.9324565
54536212944083,-1.0116829,-0.50559145,8.136143
54536232798675,-1.0063106,-0.12213623,8.498412
54536252653268,-1.0352908,-0.061640635,9.108408
54536272516082,-0.52351815,0.3257579,10.044968
54536292370930,-0.4537165,0.32230672,10.620238
54536312225651,-1.1501318,0.44419342,10.277414
54536332080498,-1.1706598,0.00858987,9.801009
54536351935346,-0.59460723,-0.3773007,9.693025
54536371790067,-0.32921228,-0.4221504,10.038483
54536391652999,-0.5606895,-0.21743952,10.379134
54536411507975,-0.72519773,-0.07725358,10.380786
54536431362952,-0.25915077,-0.12590055,10.755361
54536451218055,0.29281142,-0.3321939,11.047165
54536471079449,0.31261182,-0.5881276,10.952381
54536490934682,-0.04946374,-0.61284053,10.771552
54536510789913,-0.4746828,-0.21620473,10.562022
54536530645145,-0.88284445,0.36605573,10.450333
54536550500378,-0.7469426,0.9408797,10.501548
54536570359345,-0.014613659,1.4048105,10.461205
54536590214705,0.66493213,1.4803915,10.470115
54536610070066,0.8802439,1.413005,10.393909
54536629925297,0.7923906,1.5885571,10.256849
54536649780657,0.55955654,1.6618305,10.167219
54536669636018,0.28015733,1.6366866,9.913171
54536689486347,-0.12762648,1.4137259,9.168729
54536709341579,-0.23344617,0.877768,8.662237
54536729196812,0.33805007,0.64832467,8.779115
54536749052043,0.7706857,0.68826455,9.284319
54536768916657,0.7961487,0.91753316,9.695645
54536788772146,0.38966966,1.3293267,9.356067
54536808627505,0.07878095,1.1674165,8.655493
54536828482993,-0.13724387,0.71421665,8.240851
54536848338354,-0.056854226,0.50112504,8.203732
54536868189939,0.015825802,0.46362987,8.149635
54536888045299,-0.45542288,-0.19038227,7.790947
54536907900660,0.23618521,-0.013575135,8.383677
54536927756019,0.8650581,0.23553395,9.37184
54536947611379,0.790333,0.3499752,10.400414
54536967466740,0.6254715,0.32696167,9.885204
