UPTIMENANO,Ax,Ay,Az
82359609156975,-1.4585668999999999,9.604028999999999,-0.6610254
82359629013488,-1.5687379,9.678274,-0.6514453
82359648862458,-1.5040723,9.721385,-0.75203615
82359668718970,-1.3891114,9.766891000000001,-0.7831714
82359688575355,-1.3675561999999999,9.733359,-0.78556645
82359708431866,-1.3962965,9.637559,-0.85741705
82359728292625,-1.3962965,9.587264,-0.91010743
82359748149138,-1.3723463,9.558523,-0.86220706
82359768005777,-1.3603711,9.7142,-0.613125
82359787862289,-1.2741505,9.843531,-0.5005590999999999
82359807718930,-1.1999048,9.754914999999999,-0.68018556
82359827580580,-1.223855,9.625584,-0.88376224
82359847437348,-1.2310401000000002,9.465117,-0.91010743
82359867294117,-1.22146,9.565708,-0.81909674
82359887150884,-1.2717555,9.783655,-0.73048097
82359907007652,-1.3651612,9.793235000000001,-0.64186525
82359926864421,-1.3555812,9.750125,-0.6825806
82359946727443,-1.2789403999999998,9.599238,-0.6586304000000001
82359966584467,-1.1400293,9.625584,-0.74006104
82359986441364,-1.1567944,9.608819,-0.8047266
82360006298259,-1.3004956,9.606423,-0.7544312
82360026158506,-1.3483961000000002,9.72857,-0.6610254
82360046015531,-1.2885206,9.769285,-0.613125
82360065872554,-1.2478052,9.74773,-0.62989014
82360085729706,-1.2597803,9.639954,-0.7711963000000001
82360105586731,-1.22625,9.524992999999998,-0.8981324
82360125437165,-1.2358301999999999,9.551338000000001,-0.8214916999999999
82360145293933,-1.3244458000000001,9.695039999999999,-0.7113208000000001
82360165150830,-1.3747413,9.695039999999999,-0.6442603
82360185007597,-1.3388159,9.735755000000001,-0.5676197
82360204864493,-1.2070899,9.798025,-0.7041358
82360224721262,-1.214275,9.814791,-0.76161623
82360244573616,-1.3100758,9.68067,-0.7664063
82360264430384,-1.3939015,9.572892999999999,-0.70174074
82360284287025,-1.3220508,9.604028999999999,-0.62989014
82360304143792,-1.2693603999999998,9.704619000000001,-0.47900394
82360324001041,-1.22146,9.745335,-0.5388794
82360343857682,-1.2478052,9.742939999999999,-0.6394701999999999
82360363714449,-1.2382251,9.742939999999999,-0.7209009
82360383571089,-1.2406201000000001,9.690249,-0.75203615
82360403427858,-1.2286451,9.575289,-0.6610254
82360423284497,-1.2741505,9.611214,-0.5125342
82360443143947,-1.346001,9.637559,-0.45505372
82360463000716,-1.3004956,9.692644,-0.5676197
82360482857483,-1.2693603999999998,9.79084,-0.6227050999999999
82360502714123,-1.1879296999999998,9.745335,-0.55324954
82360522570892,-1.1232642,9.7142,-0.6346801999999999
82360542426239,-1.1759547,9.5489435,-0.613125
82360562283007,-1.219065,9.422008,-0.62510014
82360582139648,-1.3819263000000002,9.606423,-0.5604346
82360601996287,-1.4130616000000003,9.75731,-0.48618898
82360621851921,-1.2981006000000002,9.850716,-0.5221143
82360641708562,-1.2118799999999998,9.759705,-0.5484595
82360661565329,-1.1352394,9.503438000000001,-0.6346801999999999
82360681421969,-1.2094848999999999,9.623189,-0.613125
82360701278610,-1.3292358999999998,9.6615095,-0.5364844
82360721135377,-1.3507911,9.630374,-0.5604346
82360740985806,-1.3388159,9.733359,-0.44068359999999995
82360760842447,-1.2813355,9.695039999999999,-0.5388794
82360780698958,-1.3124708,9.692644,-0.6586304000000001
82360800555598,-1.3292358999999998,9.718989,-0.7424561
82360820412111,-1.3747413,9.654325,-0.5987549
82360840266367,-1.3579761000000001,9.642349000000001,-0.6394701999999999
82360860122879,-1.4346168,9.616004,-0.6322852
82360879979392,-1.4370118,9.656719,-0.7065308000000001
82360899836031,-1.3364209999999999,9.568104,-0.62510014
82360919691538,-1.3364209999999999,9.493857,-0.5029541000000001
82360939548051,-1.3579761000000001,9.620794,-0.57001466
82360959404562,-1.3436059999999999,9.75252,-0.60354495
82360979261074,-1.3364209999999999,9.853110000000001,-0.5963599
82360999117715,-1.3723463,9.788445,-0.58198977
82361018974226,-1.3196558,9.6686945,-0.6777906
82361038829670,-1.2909156000000002,9.599238,-0.6346801999999999
82361058686183,-1.2861254999999998,9.529783,-0.67539555
82361078542694,-1.4346168,9.560919,-0.61073
82361098399206,-1.4897022,9.627979,-0.62989014
82361118255719,-1.5232325,9.78605,-0.6394701999999999
82361138113048,-1.453777,9.896221,-0.65384036
82361157969560,-1.2933106,9.659114,-0.70174074
82361177826201,-1.3052857,9.642349000000001,-0.6825806
82361197682712,-1.3771361999999998,9.639954,-0.7113208000000001
82361217536675,-1.4178516,9.510622999999999,-0.68018556
82361237393060,-1.4801221000000002,9.551338000000001,-0.58198977
82361257249443,-1.3004956,9.616004,-0.63707525
82361277105827,-1.22146,9.764495,-0.5939649
82361296962212,-1.223855,9.903406,-0.60833496
82361316818595,-1.2286451,9.704619000000001,-0.68737066
82361336671913,-1.2909156000000002,9.678274,-0.67539555
82361356528298,-1.3124708,9.637559,-0.57001466
82361376384553,-1.2789403999999998,9.606423,-0.54366946
82361396240937,-1.2478052,9.6615095,-0.59156984
82361416097194,-1.2094848999999999,9.73815,-0.6562354
82361435956600,-1.2022998,9.850716,-0.6179150999999999
82361455812984,-1.2286451,9.7142,-0.5963599
82361475669369,-1.2621753,9.431587,-0.7065308000000001
82361495525624,-1.3100758,9.431587,-0.732876
82361515382008,-1.3531861,9.692644,-0.61552006
82361535238393,-1.3747413,9.924961,-0.51013917
82361555100731,-1.2549903,9.826766000000001,-0.64186525
82361574957243,-1.2070899,9.656719,-0.72569096
82361594813756,-1.2885206,9.589659,-0.6730005
82361614670267,-1.2837305,9.510622999999999,-0.73048097
82361634527681,-1.3939015,9.618399,-0.6394701999999999
82361654384194,-1.2909156000000002,9.769285,-0.6322852
82361674226140,-1.2741505,9.798025,-0.55324954
82361694082652,-1.2430152,9.862691,-0.6466553
82361713939165,-1.1999048,9.575289,-0.76161623
82361733795682,-1.2166698999999999,9.5489435,-0.7831714
82361753652322,-1.1711646,9.536968,-0.6825806
82361773508835,-1.223855,9.690249,-0.51971924
82361793365346,-1.2717555,9.735755000000001,-0.6059399999999999
82361813221858,-1.2549903,9.79084,-0.73048097
82361833078371,-1.1136841999999998,9.853110000000001,-0.6993457
82361852935162,-1.0370435,9.6686945,-0.5676197
82361872791674,-1.0801538,9.654325,-0.6658155
82361892648315,-1.1543995,9.678274,-0.7041358
82361912504826,-1.101709,9.608819,-0.58677983
82361932361308,-1.1424243,9.635164,-0.6011499
82361952217821,-1.1424243,9.733359,-0.6179150999999999
82361972074332,-1.0681788,9.750125,-0.62749517
82361991930844,-1.0418334999999999,9.807606,-0.58198977
82362011787485,-0.98435307,9.702225,-0.6322852
82362031648901,-0.98914313,9.580078,-0.7376661
82362051505541,-1.101709,9.64714,-0.7209009
82362071362182,-1.1184741000000002,9.651928999999999,-0.6442603
82362091218949,-1.2046948999999998,9.716595,-0.6610254
82362111075589,-1.2310401000000002,9.75252,-0.6011499
82362130932358,-1.101709,9.769285,-0.7185059
82362150791752,-1.099314,9.78605,-0.69695073
82362170648520,-1.094524,9.637559,-0.63707525
82362190505289,-1.099314,9.601633999999999,-0.7759864000000001
82362210362056,-1.1400293,9.666299,-0.78556645
82362230220830,-1.0753639,9.72378,-0.66342044
82362250077727,-1.089734,9.80521,-0.5748047
82362269934494,-1.0921290000000001,9.695039999999999,-0.5460645000000001
82362289791390,-1.0274634,9.594449000000001,-0.7831714
82362309648287,-1.0059083,9.584868,-0.85741705
82362329501543,-1.1041040000000002,9.807606,-0.71371585
82362349358311,-1.1615845,9.917776,-0.5748047
82362369215080,-1.1639795,9.855506,-0.57959473
82362389071719,-1.1759547,9.687855,-0.73527104
82362408928487,-1.0490186000000001,9.5561285,-0.79035646
82362428785256,-1.0322535,9.580078,-0.76161623
82362448631874,-1.1088941,9.618399,-0.5963599
82362468488386,-1.0585986,9.678274,-0.64186525
82362488344899,-1.089734,9.754914999999999,-0.5604346
82362508201410,-0.974773,9.77647,-0.6179150999999999
82362528058629,-0.977168,9.690249,-0.7185059
82362547915142,-0.9987232,9.78605,-0.66342044
82362567771781,-0.97237796,9.604028999999999,-0.6610254
82362587628293,-0.9987232,9.721385,-0.6346801999999999
82362607484806,-1.0538087,9.6686945,-0.6011499
82362627341317,-1.0849438999999999,9.604028999999999,-0.6466553
82362647190172,-1.1088941,9.726174,-0.7783814
82362667046557,-1.0753639,9.697434,-0.6394701999999999
82362686902940,-1.0394385,9.81,-0.6945557
82362706759196,-1.094524,9.75252,-0.6706055000000001
82362726615581,-0.97956306,9.6615095,-0.7209009
82362746469710,-0.9484278,9.718989,-0.76880133
82362766325966,-0.97237796,9.68067,-0.62510014
82362786182351,-1.0562036,9.654325,-0.71371585
82362806038606,-1.1735597,9.702225,-0.69695073
82362825893899,-1.0633887,9.690249,-0.6730005
82362845750156,-0.93405765,9.656719,-0.6945557
82362865606411,-0.91010743,9.635164,-0.7113208000000001
82362885462667,-1.0298585,9.745335,-0.7879615
82362905319052,-1.1041040000000002,9.8866415,-0.6562354
82362925175307,-1.0442286,9.742939999999999,-0.6514453
82362945036622,-0.974773,9.68067,-0.73048097
82362964893007,-0.9987232,9.637559,-0.7664063
82362984749262,-1.0873389,9.589659,-0.71371585
82363004605646,-1.0202783000000002,9.627979,-0.6706055000000001
82363024461903,-1.0059083,9.788445,-0.60833496
82363044319311,-1.0657837,10.008787,-0.7232959
82363064175695,-1.1256591999999999,9.857901,-0.7185059
82363084032080,-1.089734,9.764495,-0.63707525
82363103888335,-0.9627979,9.611214,-0.6322852
82363123739899,-0.98195803,9.402847,-0.7592211999999999
82363143596284,-1.1903248,9.620794,-0.8262818000000001
82363163452539,-1.2525953,9.750125,-0.6394701999999999
82363183308795,-1.0681788,9.83874,-0.5604346
82363203165052,-1.0106983,9.77168,-0.732876
82363223021307,-1.0418334999999999,9.539363,-0.9484278
82363242876545,-1.1472143999999997,9.606423,-0.9196875
82363262732802,-1.2478052,9.524992999999998,-0.5460645000000001
82363282589057,-1.22146,9.72857,-0.5843848
82363302445313,-1.1328443000000001,9.642349000000001,-0.69216067
82363322301570,-1.0442286,9.802814999999999,-0.71371585
82363342157307,-1.0538087,9.730965,-0.6849755999999999
82363362013563,-1.0059083,9.788445,-0.77359134
82363381869820,-1.0226734,9.539363,-0.728086
82363401725947,-1.096919,9.678274,-0.6011499
82363421584434,-1.089734,9.735755000000001,-0.5628295999999999
82363441440691,-1.089734,9.750125,-0.7161109
82363461296946,-1.1041040000000002,9.726174,-0.7496411000000001
82363481153202,-1.0609937,9.666299,-0.6730005
82363501009459,-1.0442286,9.726174,-0.6490503000000001
82363520865714,-1.0849438999999999,9.656719,-0.7041358
82363540725310,-1.1376343,9.72378,-0.73527104
82363560581567,-1.1663746000000002,9.702225,-0.7185059
82363580437950,-1.099314,9.766891000000001,-0.69216067
82363600294206,-1.0705738,9.754914999999999,-0.7232959
82363620150463,-1.0681788,9.764495,-0.6586304000000001
82363640010259,-1.0633887,9.687855,-0.71371585
82363659866643,-1.0585986,9.522598,-0.75203615
82363679723028,-1.1160791,9.611214,-0.7592211999999999
82363699583431,-1.0753639,9.673484,-0.65384036
82363719439815,-1.0849438999999999,9.6686945,-0.5388794
82363739296200,-1.1400293,9.778865,-0.65384036
82363759161872,-1.1280543,9.821976,-0.7161109
82363779018512,-1.0370435,9.783655,-0.7232959
82363798875153,-1.0609937,9.7142,-0.6394701999999999
82363818731664,-1.1328443000000001,9.596844,-0.64186525
82363838591827,-1.2525953,9.599238,-0.5939649
82363858448468,-1.2981006000000002,9.707015,-0.62749517
82363878305235,-1.1663746000000002,9.721385,-0.68737066
82363898161875,-1.1424243,9.783655,-0.5843848
82363918018644,-1.1496094,9.637559,-0.49576905
82363937880938,-1.1280543,9.539363,-0.59156984
82363957737834,-1.1663746000000002,9.778865,-0.62510014
82363977594731,-1.2166698999999999,9.764495,-0.6514453
82363997451498,-1.214275,9.7621,-0.5963599
82364017308394,-1.219065,9.683064,-0.53169435
82364037165291,-1.1711646,9.522598,-0.57719976
82364057024034,-1.2118799999999998,9.656719,-0.6586304000000001
82364076880930,-1.2789403999999998,9.584868,-0.6346801999999999
82364096737827,-1.1879296999999998,9.74773,-0.6706055000000001
82364116594722,-1.1472143999999997,9.759705,-0.57719976
82364136454073,-1.1831397,9.829161000000001,-0.57719976
82364156310970,-1.1352394,9.711803999999999,-0.68737066
82364176167993,-1.1280543,9.532178,-0.65384036
82364196025017,-1.1520045,9.539363,-0.5939649
82364215881914,-1.2310401000000002,9.592053,-0.5843848
82364235736358,-1.3124708,9.690249,-0.6562354
82364255593254,-1.2693603999999998,9.814791,-0.7065308000000001
82364275450151,-1.1232642,9.821976,-0.66342044
82364295307174,-1.0178833,9.721385,-0.5843848
82364315164070,-1.0777588,9.656719,-0.62749517
82364335020967,-1.2502003000000002,9.6758795,-0.7089258
82364354876894,-1.2741505,9.663903999999999,-0.6849755999999999
82364374733790,-1.2478052,9.699829,-0.55803955
82364394590687,-1.1927198,9.742939999999999,-0.58677983
82364414447582,-1.1496094,9.711803999999999,-0.6706055000000001
82364434297266,-1.1256591999999999,9.659114,-0.7041358
82364454154035,-1.099314,9.699829,-0.7065308000000001
82364474010802,-1.1232642,9.534574000000001,-0.6059399999999999
82364493867570,-1.219065,9.568104,-0.6442603
82364513724339,-1.2717555,9.68067,-0.61552006
82364533584111,-1.1711646,9.788445,-0.5963599
82364553441007,-1.1472143999999997,9.908196,-0.6586304000000001
82364573297904,-1.1184741000000002,9.683064,-0.6730005
82364593154799,-1.1448194,9.659114,-0.6849755999999999
82364613011695,-1.2813355,9.616004,-0.57959473
82364632868592,-1.2933106,9.570497999999999,-0.6562354
82364652718380,-1.2885206,9.663903999999999,-0.6466553
82364672575148,-1.1591895,9.802814999999999,-0.66342044
82364692431917,-1.0753639,9.699829,-0.6945557
82364712288684,-1.2454101999999998,9.616004,-0.68018556
82364732140423,-1.2382251,9.505833,-0.69695073
82364751997064,-1.1927198,9.587264,-0.6346801999999999
82364771853703,-1.2621753,9.881851,-0.61073
82364791710343,-1.3172607,9.879456,-0.62510014
82364811566856,-1.1927198,9.80521,-0.7711963000000001
82364831423495,-1.1735597,9.671089,-0.6706055000000001
82364851269889,-1.1831397,9.575289,-0.60354495
82364871126274,-1.1831397,9.5489435,-0.69695073
82364890982657,-1.331631,9.484278,-0.6179150999999999
82364910839041,-1.2430152,9.692644,-0.6394701999999999
82364930695426,-1.1136841999999998,9.814791,-0.57719976
82364950543087,-1.0801538,9.922566,-0.6227050999999999
82364970399215,-1.1711646,9.833950999999999,-0.7831714
82364990255344,-1.2693603999999998,9.683064,-0.8167017
82365010111471,-1.2669654,9.606423,-0.69216067
82365029964167,-1.2118799999999998,9.582474000000001,-0.55803955
82365049820296,-1.1855347,9.565708,-0.70174074
82365069676295,-1.2478052,9.623189,-0.74006104
82365089532295,-1.223855,9.604028999999999,-0.76161623
82365109388424,-1.1663746000000002,9.77647,-0.69216067
82365129244423,-1.1064991000000002,9.829161000000001,-0.613125
82365149096638,-1.1591895,9.82437,-0.69216067
82365168952511,-1.2358301999999999,9.733359,-0.79754156
82365188808382,-1.3076807,9.630374,-0.8167017
82365208664382,-1.2837305,9.637559,-0.80712163
82365228520255,-1.1615845,9.520203,-0.6227050999999999
82365248376754,-1.0633887,9.568104,-0.73048097
82365268232626,-1.1376343,9.639954,-0.66342044
82365288088499,-1.1927198,9.520203,-0.6993457
82365307944370,-1.2525953,9.64714,-0.7759864000000001
82365327800517,-1.2717555,9.843531,-0.6394701999999999
82365347656390,-1.1783496,9.896221,-0.6011499
82365367512389,-1.1543995,9.884246000000001,-0.6490503000000001
82365387368261,-1.2022998,9.68067,-0.8095166
82365407224134,-1.2981006000000002,9.596844,-0.8861573
82365427080005,-1.2645704,9.489068,-0.6586304000000001
82365446939552,-1.2118799999999998,9.436378,-0.58198977
82365466795553,-1.2286451,9.663903999999999,-0.6658155
82365486651424,-1.2573853000000002,9.673484,-0.7113208000000001
82365506507296,-1.2406201000000001,9.766891000000001,-0.8047266
82365526363297,-1.1615845,9.848321,-0.7041358
82365546230760,-1.1136841999999998,9.711803999999999,-0.62749517
82365566087016,-1.2861254999999998,9.70941,-0.6610254
82365585943145,-1.3699511999999998,9.733359,-0.728086
82365605799272,-1.3124708,9.802814999999999,-0.72569096
82365625660459,-1.1927198,9.673484,-0.613125
82365645516716,-1.1160791,9.524992999999998,-0.64186525
82365665372971,-1.1304493,9.524992999999998,-0.7232959
82365685226400,-1.1735597,9.546548,-0.7185059
82365705082785,-1.2166698999999999,9.68067,-0.67539555
82365724939040,-1.1855347,9.853110000000001,-0.63707525
82365744797173,-1.1472143999999997,9.946517,-0.60833496
82365764653558,-1.22146,9.920172,-0.6322852
82365784509941,-1.2741505,9.656719,-0.80233157
82365804366197,-1.2334352,9.498648,-0.82388675
82365824222582,-1.2310401000000002,9.424402,-0.63707525
82365844082250,-1.2286451,9.584868,-0.5508545
82365863938634,-1.2573853000000002,9.692644,-0.7185059
82365883795019,-1.1831397,9.685459,-0.7664063
82365903651530,-1.1496094,9.800421,-0.6777906
82365923513509,-1.1136841999999998,9.817185,-0.5604346
82365943370150,-1.1112891000000003,9.759705,-0.48618898
82365963226661,-1.214275,9.754914999999999,-0.49576905
82365983083301,-1.2334352,9.599238,-0.7089258
82366002939942,-1.2837305,9.560919,-0.68976563
82366022796581,-1.3004956,9.666299,-0.61552006
82366042656756,-1.1543995,9.716595,-0.5724097
82366062513397,-1.101709,9.843531,-0.5628295999999999
82366082370036,-1.1208692,9.754914999999999,-0.54366946
82366102226804,-1.1543995,9.568104,-0.5963599
82366122083445,-1.2669654,9.608819,-0.62510014
82366141943089,-1.2741505,9.568104,-0.6011499
82366161799857,-1.1855347,9.70941,-0.57001466
82366181656754,-1.1400293,9.862691,-0.54366946
82366201513521,-1.1160791,9.879456,-0.46702883
82366221370289,-1.1448194,9.7812605,-0.5292993
82366241227058,-1.1591895,9.457932000000001,-0.60354495
82366261090865,-1.1855347,9.541758999999999,-0.6945557
82366280947761,-1.2094848999999999,9.671089,-0.5340894
82366300804658,-1.22146,9.704619000000001,-0.46463382
82366320661681,-1.1927198,9.862691,-0.58198977
82366340517877,-1.1567944,9.81958,-0.5891748
82366360374774,-1.1496094,9.78605,-0.60354495
82366380231797,-1.1567944,9.534574000000001,-0.60354495
82366400088821,-1.2837305,9.577683,-0.613125
82366419945846,-1.3388159,9.72857,-0.5724097
82366439790214,-1.1831397,9.692644,-0.51013917
82366459646982,-1.0514137,9.735755000000001,-0.49576905
82366479503623,-1.0825489,9.683064,-0.5628295999999999
82366499360390,-1.2166698999999999,9.654325,-0.613125
82366519217158,-1.2861254999999998,9.68067,-0.60833496
82366539073927,-1.2070899,9.72857,-0.5484595
82366558927341,-1.1999048,9.7740755,-0.45744875
82366578783981,-1.1735597,9.742939999999999,-0.5724097
82366598640622,-1.1831397,9.635164,-0.63707525
82366618497261,-1.2166698999999999,9.639954,-0.60833496
82366638342654,-1.1711646,9.582474000000001,-0.5939649
82366658199039,-1.1999048,9.64714,-0.51732427
82366678055550,-1.1591895,9.730965,-0.41194338
82366697911934,-1.1424243,9.730965,-0.51013917
82366717768447,-1.214275,9.75731,-0.51732427
82366737624752,-1.1472143999999997,9.671089,-0.5891748
82366757481136,-1.1041040000000002,9.666299,-0.5724097
82366777337521,-1.1639795,9.79084,-0.49816409999999994
82366797193904,-1.1855347,9.716595,-0.5005590999999999
82366817050288,-1.2118799999999998,9.70941,-0.48139894
82366836906673,-1.1759547,9.759705,-0.49337405
82366856760318,-1.1472143999999997,9.766891000000001,-0.50774413
82366876616574,-1.1496094,9.745335,-0.5005590999999999
82366896472959,-1.0585986,9.683064,-0.56522465
82366916329214,-1.0777588,9.601633999999999,-0.55324954
82366936184269,-1.1735597,9.582474000000001,-0.51732427
82366956040526,-1.1615845,9.64714,-0.6346801999999999
82366975896781,-1.1472143999999997,9.75252,-0.58677983
82366995752909,-1.1328443000000001,9.735755000000001,-0.4382886
82367015609166,-1.1448194,9.788445,-0.50534916
82367035465421,-1.1879296999999998,9.79084,-0.5412744
82367055331777,-1.219065,9.697434,-0.49576905
82367075188162,-1.214275,9.659114,-0.55324954
82367095044545,-1.22146,9.642349000000001,-0.5748047
82367114900929,-1.2382251,9.711803999999999,-0.51971924
82367134757314,-1.2022998,9.726174,-0.4766089
82367154615117,-1.2382251,9.70941,-0.51492923
82367174471501,-1.1831397,9.604028999999999,-0.51492923
82367194328014,-1.1160791,9.501043,-0.5292993
82367214184397,-1.2166698999999999,9.74773,-0.5604346
82367234039135,-1.2573853000000002,9.850716,-0.57719976
82367253895520,-1.2046948999999998,9.81958,-0.45505372
82367273752031,-1.2118799999999998,9.843531,-0.36883304
82367293608415,-1.1448194,9.730965,-0.42870852
82367313464800,-1.1711646,9.587264,-0.5245093000000001
82367333321183,-1.2070899,9.515413,-0.59156984
82367353164200,-1.2166698999999999,9.575289,-0.60833496
82367373020329,-1.1903248,9.733359,-0.44307864
82367392876456,-1.1136841999999998,9.833950999999999,-0.34248779999999995
82367412732712,-1.1112891000000003,9.798025,-0.2706372
82367432588841,-1.1136841999999998,9.829161000000001,-0.22992188
82367452449893,-1.0562036,9.577683,-0.3544629
82367472306149,-1.1280543,9.654325,-0.54366946
82367492162406,-1.1352394,9.687855,-0.5939649
82367512018533,-1.1184741000000002,9.673484,-0.51732427
82367531878190,-1.1304493,9.695039999999999,-0.39278322
82367551734447,-1.1112891000000003,9.687855,-0.31374758
82367571590702,-1.1400293,9.716595,-0.38320315
82367591446958,-1.1352394,9.618399,-0.40954837
82367611303215,-1.1472143999999997,9.616004,-0.5029541000000001
82367631159470,-1.1903248,9.78605,-0.49816409999999994
82367651015793,-1.1304493,9.829161000000001,-0.43110353
82367670872178,-1.1064991000000002,9.831555,-0.32093263
82367690728433,-1.0873389,9.78605,-0.2921924
82367710580298,-1.1280543,9.683064,-0.47900394
82367730436555,-1.1903248,9.455538,-0.51732427
82367750296588,-1.214275,9.522598,-0.50534916
82367770152972,-1.1663746000000002,9.692644,-0.38559815
82367790009229,-1.1711646,9.901011,-0.30177248
82367809865612,-1.1807446000000001,9.980047,-0.2562671
82367829732452,-1.1496094,9.884246000000001,-0.34009278
82367849589221,-1.1088941,9.630374,-0.49816409999999994
82367869445860,-1.1208692,9.568104,-0.5005590999999999
82367889302500,-1.1041040000000002,9.479486999999999,-0.47900394
82367909159141,-1.2382251,9.582474000000001,-0.36883304
82367929015908,-1.2885206,9.793235000000001,-0.28979737
82367948872548,-1.1831397,9.860296,-0.39517823
82367968719198,-1.1472143999999997,9.884246000000001,-0.36164796
82367988575838,-1.1256591999999999,9.778865,-0.35685793
82368008432350,-1.1424243,9.524992999999998,-0.50534916
82368028288862,-1.2310401000000002,9.594449000000001,-0.5221143
82368048145374,-1.2669654,9.750125,-0.48139894
82368068009700,-1.3100758,9.800421,-0.43589357
82368087866212,-1.2669654,9.77647,-0.29937744
82368107722852,-1.096919,9.671089,-0.3903882
82368127579492,-1.1304493,9.695039999999999,-0.46463382
82368147436004,-1.1759547,9.630374,-0.4742139
82368167297770,-1.2094848999999999,9.7142,-0.5364844
82368187154538,-1.1903248,9.742939999999999,-0.4263135
82368207011306,-1.2166698999999999,9.721385,-0.3903882
82368226867946,-1.22146,9.704619000000001,-0.42152345
82368246724714,-1.1615845,9.6686945,-0.48379397
82368266576984,-1.1184741000000002,9.584868,-0.43589357
82368286433624,-1.1304493,9.584868,-0.46702883
82368306290136,-1.1639795,9.73815,-0.5029541000000001
82368326146776,-1.219065,9.795630000000001,-0.44547364
82368346003288,-1.2382251,9.635164,-0.37122804
82368365861250,-1.1663746000000002,9.702225,-0.39517823
82368385717890,-1.0514137,9.7812605,-0.364043
82368405574530,-1.0274634,9.678274,-0.364043
82368425431170,-1.1711646,9.707015,-0.4742139
82368445287810,-1.1879296999999998,9.616004,-0.39517823
82368465136525,-1.0585986,9.654325,-0.38559815
82368484993037,-1.0418334999999999,9.7621,-0.36883304
82368504849421,-1.1615845,9.82437,-0.45744875
82368524705933,-1.2118799999999998,9.74773,-0.40715334
82368544562445,-1.1136841999999998,9.534574000000001,-0.35925296
82368564416448,-1.1232642,9.671089,-0.39996827
82368584272832,-1.1400293,9.783655,-0.44307864
82368604129344,-1.1088941,9.73815,-0.5029541000000001
82368623985728,-1.2070899,9.759705,-0.34248779999999995
82368643842112,-1.1951148999999999,9.702225,-0.3520679
82368663700396,-1.1543995,9.635164,-0.488584
82368683556908,-1.1543995,9.64714,-0.52690434
82368703413420,-1.1975098,9.666299,-0.5388794
82368723270060,-1.2549903,9.75731,-0.40715334
82368743126572,-1.2406201000000001,9.798025,-0.38799320000000004
82368762986802,-1.2118799999999998,9.783655,-0.47181886
82368782843442,-1.2046948999999998,9.7812605,-0.5029541000000001
82368802700082,-1.0825489,9.544153,-0.52690434
82368822556722,-1.0633887,9.489068,-0.5245093000000001
82368842413362,-1.2022998,9.587264,-0.53169435
82368862262810,-1.3148658000000002,9.716595,-0.6059399999999999
82368882119194,-1.2837305,9.922566,-0.48618898
82368901975706,-1.1496094,9.881851,-0.26584718
82368921832218,-1.0298585,9.754914999999999,-0.4263135
82368941688730,-1.0801538,9.551338000000001,-0.5460645000000001
82368961536349,-1.0921290000000001,9.465117,-0.64186525
82368981392605,-1.096919,9.630374,-0.62989014
82369001248861,-1.1543995,9.7740755,-0.3784131
82369021104989,-1.1280543,9.879456,-0.35925296
82369040961245,-1.099314,9.778865,-0.39278322
82369060818592,-1.0059083,9.536968,-0.48139894
82369080674848,-1.0801538,9.611214,-0.5484595
82369100531104,-1.1615845,10.023157000000001,-0.5508545
82369120387360,-1.0729688,9.616004,-0.60354495
82369140243616,-1.1352394,9.599238,-0.44068359999999995
82369160098031,-1.1448194,9.793235000000001,-0.46463382
82369179954287,-1.094524,9.884246000000001,-0.62989014
82369199810415,-1.1376343,9.635164,-0.47900394
82369219666671,-1.1711646,9.584868,-0.5245093000000001
82369239522799,-1.1711646,9.623189,-0.613125
82369259378031,-1.1304493,9.635164,-0.51492923
82369279234159,-1.1951148999999999,9.829161000000001,-0.5221143
82369299090287,-1.22625,9.7740755,-0.56522465
82369318946415,-1.219065,9.812395,-0.44786867
82369338802543,-1.0609937,9.77647,-0.49097902
82369358656507,-1.0322535,9.513017999999999,-0.6490503000000001
82369378512635,-1.1879296999999998,9.524992999999998,-0.6993457
82369398368635,-1.2022998,9.587264,-0.73527104
82369418224763,-1.1639795,9.745335,-0.5891748
82369438080763,-1.1879296999999998,9.915381,-0.39996827
82369457939126,-1.1088941,9.74773,-0.51492923
82369477795254,-1.0825489,9.687855,-0.68018556
82369497651382,-1.0585986,9.594449000000001,-0.7424561
82369517507510,-1.0921290000000001,9.589659,-0.7376661
82369537363638,-1.2525953,9.75731,-0.52690434
82369557217022,-1.2597803,9.80521,-0.48379397
82369577073022,-1.1280543,9.81,-0.5412744
82369596929022,-1.0178833,9.730965,-0.6849755999999999
82369616784894,-1.0346485,9.582474000000001,-0.82388675
82369636640894,-1.1136841999999998,9.472302,-0.7568262
82369656509913,-1.1735597,9.522598,-0.613125
82369676366297,-1.2406201000000001,9.730965,-0.5748047
82369696222553,-1.1927198,9.850716,-0.5987549
82369716078809,-1.1975098,9.783655,-0.6682104999999999
82369735932816,-1.1783496,9.826766000000001,-0.7759864000000001
82369755793710,-1.1184741000000002,9.75252,-0.7448511
82369775650222,-1.1136841999999998,9.599238,-0.6322852
82369795506606,-1.1064991000000002,9.596844,-0.72569096
82369815363118,-1.2454101999999998,9.582474000000001,-0.6849755999999999
82369835219502,-1.2166698999999999,9.711803999999999,-0.6442603
82369855075970,-1.1376343,9.568104,-0.6227050999999999
82369874932482,-1.1208692,9.77168,-0.7113208000000001
82369894788994,-1.0681788,9.764495,-0.7161109
82369914645378,-1.0442286,9.659114,-0.71371585
82369934501890,-1.1615845,9.850716,-0.70174074
82369954364649,-1.2022998,9.716595,-0.6466553
82369974221289,-1.1759547,9.702225,-0.7783814
82369994077929,-1.1903248,9.649534,-0.7592211999999999
82370013934569,-1.1160791,9.707015,-0.75203615
82370033791209,-1.0514137,9.608819,-0.7496411000000001
82370053653968,-1.101709,9.649534,-0.79035646
82370073510736,-1.1328443000000001,9.7142,-0.7448511
82370093367376,-1.1256591999999999,9.865086,-0.68018556
82370113224144,-1.101709,9.656719,-0.6945557
82370133080912,-1.0801538,9.702225,-0.87897223
82370152940415,-1.0657837,9.654325,-0.77359134
82370172797183,-1.0226734,9.584868,-0.8167017
82370192653951,-1.1448194,9.702225,-0.75203615
82370212510847,-1.1543995,9.68067,-0.76161623
82370232367615,-1.1208692,9.783655,-0.83586186
82370252224570,-1.1400293,9.807606,-0.7185059
82370272081338,-1.0633887,9.699829,-0.7807764
82370291938234,-1.0466236,9.611214,-0.852627
82370311795002,-1.0729688,9.558523,-0.79993653
82370331651898,-1.0753639,9.644744000000001,-0.7664063
82370351505642,-1.1376343,9.735755000000001,-0.67539555
82370371362538,-1.1400293,9.77168,-0.7041358
82370391219306,-1.089734,9.81958,-0.80233157
82370411076202,-1.0394385,9.73815,-0.78556645
82370430932970,-1.0011181999999998,9.596844,-0.7544312
82370450778271,-1.0370435,9.565708,-0.76401126
82370470634912,-1.1256591999999999,9.642349000000001,-0.78556645
82370490491553,-1.1615845,9.716595,-0.76401126
82370510348063,-1.1088941,9.745335,-0.7065308000000001
82370530204703,-1.0442286,9.83874,-0.62031007
82370550060946,-0.92208254,9.7142,-0.7783814
82370569917586,-0.96758795,9.601633999999999,-0.84065187
82370589774226,-1.0298585,9.616004,-0.85741705
82370609630738,-1.1136841999999998,9.616004,-0.7831714
82370629487378,-1.1472143999999997,9.671089,-0.62989014
82370649334989,-1.1376343,9.73815,-0.6466553
82370669191373,-1.0466236,9.742939999999999,-0.72569096
82370689047757,-0.9867481,9.8866415,-0.80712163
82370708904141,-0.9268726,9.635164,-0.76161623
82370728760653,-1.0346485,9.718989,-0.8167017
82370748617012,-1.1064991000000002,9.663903999999999,-0.76161623
82370768473396,-1.0657837,9.75731,-0.71371585
82370788329780,-1.1472143999999997,9.817185,-0.6682104999999999
82370808186164,-1.1280543,9.735755000000001,-0.7232959
82370828042548,-1.0226734,9.671089,-0.83586186
82370847896492,-1.0011181999999998,9.64714,-0.76880133
82370867752748,-1.0825489,9.620794,-0.74006104
82370887609132,-1.1400293,9.599238,-0.8214916999999999
82370907465516,-1.1424243,9.697434,-0.7831714
82370927321772,-1.1232642,9.733359,-0.68976563
82370947176302,-1.094524,9.726174,-0.7496411000000001
82370967032430,-1.0490186000000001,9.639954,-0.80233157
82370986888686,-0.9580079,9.64714,-0.7831714
82371006744942,-1.0466236,9.702225,-0.63707525
82371026601198,-1.1496094,9.73815,-0.6490503000000001
82371046457123,-1.1256591999999999,9.735755000000001,-0.7879615
82371066313379,-1.0442286,9.663903999999999,-0.7664063
82371086169507,-0.9436377,9.75252,-0.6658155
82371106025636,-0.9699829,9.735755000000001,-0.6562354
82371125881893,-1.1807446000000001,9.639954,-0.7496411000000001
82371145738019,-1.2525953,9.503438000000001,-0.84544194
82371165585229,-1.1759547,9.5561285,-0.79035646
82371185441229,-1.1783496,9.860296,-0.6730005
82371205297229,-1.2478052,9.800421,-0.6610254
82371225153229,-1.2358301999999999,9.72857,-0.86939216
82371245006402,-1.1424243,9.654325,-0.852627
82371264859115,-1.0154883,9.611214,-0.732876
82371284715116,-1.0178833,9.735755000000001,-0.71371585
82371304570989,-1.0681788,9.769285,-0.62510014
82371324426990,-0.9627979,9.74773,-0.74006104
82371344282863,-0.95561284,9.740545,-0.6777906
82371364139740,-0.9412427,9.630374,-0.72569096
82371383995613,-1.0490186000000001,9.642349000000001,-0.74006104
82371403851614,-1.1328443000000001,9.75731,-0.7065308000000001
82371423707487,-1.1472143999999997,9.659114,-0.74724615
82371443563360,-1.2070899,9.735755000000001,-0.79754156
82371463418189,-1.2621753,9.596844,-0.7496411000000001
82371483274062,-1.2693603999999998,9.651928999999999,-0.76880133
82371503129807,-1.2789403999999998,9.608819,-0.8262818000000001
82371522985680,-1.1927198,9.604028999999999,-0.7711963000000001
82371542841553,-1.0753639,9.6758795,-0.74006104
82371562705324,-1.0035132,9.678274,-0.613125
82371582561325,-0.99393314,9.78605,-0.70174074
82371602417198,-1.0705738,9.75252,-0.68737066
82371622273199,-1.0538087,9.742939999999999,-0.7209009
82371642129200,-1.0011181999999998,9.74773,-0.66342044
82371661992477,-1.0059083,9.627979,-0.62510014
82371681848734,-1.1088941,9.601633999999999,-0.7544312
82371701704863,-1.2358301999999999,9.671089,-0.7759864000000001
82371721560972,-1.2454101999999998,9.754914999999999,-0.7568262
82371741417229,-1.2022998,9.695039999999999,-0.7711963000000001
82371761279214,-1.219065,9.671089,-0.78556645
82371781135471,-1.2094848999999999,9.70941,-0.7496411000000001
82371800991852,-1.1280543,9.632769,-0.6682104999999999
82371820848108,-1.1831397,9.611214,-0.7807764
82371840704492,-1.2645704,9.716595,-0.76401126
82371860562899,-1.1208692,9.6758795,-0.6658155
82371880419283,-1.1328443000000001,9.798025,-0.6849755999999999
82371900275795,-1.1975098,9.853110000000001,-0.7232959
82371920132179,-1.1711646,9.594449000000001,-0.73048097
82371939988691,-1.1975098,9.496253,-0.7759864000000001
82371959846264,-1.2310401000000002,9.582474000000001,-0.7041358
82371979702648,-1.223855,9.716595,-0.6059399999999999
82371999559160,-1.1208692,9.836346,-0.5676197
82372019415544,-1.1064991000000002,9.759705,-0.69695073
82372039272056,-1.1496094,9.848321,-0.6682104999999999
82372059128838,-1.0609937,9.592053,-0.5221143
82372078985350,-0.99393314,9.448353,-0.6682104999999999
82372098841734,-1.1328443000000001,9.649534,-0.7232959
82372118698118,-1.1304493,9.74773,-0.5604346
82372138554630,-1.0849438999999999,9.829161000000001,-0.62510014
82372158416474,-1.0921290000000001,9.860296,-0.62031007
82372178273114,-1.0609937,9.742939999999999,-0.73048097
82372198129627,-1.1472143999999997,9.616004,-0.73527104
82372217986268,-1.1951148999999999,9.608819,-0.6610254
82372237842778,-1.1615845,9.534574000000001,-0.67539555
82372257701977,-1.1999048,9.630374,-0.6179150999999999
82372277558489,-1.1328443000000001,9.678274,-0.6849755999999999
82372297415129,-1.0729688,9.81,-0.7759864000000001
82372317271769,-1.0801538,9.764495,-0.6442603
82372337128281,-1.089734,9.635164,-0.6322852
82372356982952,-1.1567944,9.608819,-0.69695073
82372376839593,-1.1687696,9.644744000000001,-0.68737066
82372396696234,-1.1639795,9.745335,-0.70174074
82372416552747,-1.1400293,9.742939999999999,-0.6658155
82372436409388,-1.1424243,9.68067,-0.68018556
82372456261267,-1.1855347,9.671089,-0.6706055000000001
82372476117780,-1.2478052,9.70941,-0.73048097
82372495974421,-1.2382251,9.73815,-0.72569096
82372515830934,-1.1041040000000002,9.704619000000001,-0.5676197
82372535687447,-1.1064991000000002,9.896221,-0.62510014
82372555547196,-1.2837305,9.836346,-0.6658155
82372575403837,-1.2502003000000002,9.6686945,-0.73527104
82372595260478,-1.094524,9.666299,-0.8095166
82372615117119,-0.9508228000000001,9.529783,-0.78556645
82372634973760,-1.0585986,9.524992999999998,-0.8430469
82372654824747,-1.2837305,9.527389,-0.7951465
82372674681260,-1.2597803,9.592053,-0.7424561
82372694537901,-1.22146,9.72857,-0.7161109
82372714394414,-1.1352394,9.793235000000001,-0.84544194
82372734251055,-1.0729688,9.802814999999999,-0.84065187
82372754060228,-1.0801538,9.829161000000001,-0.7209009
82372773915845,-1.1472143999999997,9.604028999999999,-0.7711963000000001
82372793771460,-1.2070899,9.572892999999999,-0.8286768
82372813627076,-1.2094848999999999,9.616004,-0.8765772
82372833482692,-1.1663746000000002,9.644744000000001,-0.7951465
82372853336042,-1.1112891000000003,9.735755000000001,-0.7544312
82372873191530,-1.1208692,9.568104,-0.8047266
82372893047018,-1.1543995,9.644744000000001,-0.90771246
82372912902507,-1.2885206,9.766891000000001,-0.79993653
82372932757866,-1.2454101999999998,9.826766000000001,-0.79754156
82372952623265,-1.1376343,9.845925,-0.7783814
82372972478882,-1.1184741000000002,9.649534,-0.83586186
82372992334497,-1.1807446000000001,9.584868,-0.97237796
82373012190113,-1.2717555,9.517808,-0.852627
82373032045602,-1.2382251,9.627979,-0.78556645
82373051913764,-1.2166698999999999,9.666299,-0.8143066999999999
82373071769508,-1.1687696,9.690249,-0.81909674
82373091625253,-1.1448194,9.74773,-0.87178713
82373111480996,-1.1520045,9.659114,-0.89573735
82373131342525,-1.1567944,9.565708,-0.88376224
82373151198398,-1.2382251,9.441168,-0.728086
82373171054269,-1.2741505,9.417216999999999,-0.7209009
82373190910141,-1.3388159,9.455538,-0.7711963000000001
82373210766014,-1.1855347,9.491463000000001,-0.84065187
82373230621885,-1.0442286,9.683064,-0.81909674
82373250482706,-1.1280543,9.745335,-0.6658155
82373270338579,-1.1879296999999998,9.536968,-0.855022
82373290194578,-1.2693603999999998,9.338181500000001,-1.0035132
82373310049443,-1.2957056999999998,9.316627,-0.86220706
82373329905444,-1.2046948999999998,9.436378,-0.7783814
82373349766203,-1.2430152,9.666299,-0.81191164
82373369622332,-1.2933106,9.570497999999999,-0.9268726
82373389478333,-1.3004956,9.589659,-0.91729254
82373409334334,-1.2621753,9.625584,-0.7376661
82373429198757,-1.2334352,9.460327000000001,-0.79993653
82373449054886,-1.2693603999999998,9.486672,-0.90771246
82373468911143,-1.3004956,9.498648,-0.8478370000000001
82373488767272,-1.2118799999999998,9.501043,-0.81909674
82373508623529,-1.1520045,9.5633135,-0.8167017
82373528479658,-1.2358301999999999,9.4507475,-0.8310718
82373548344819,-1.2813355,9.457932000000001,-0.8334668
82373568201076,-1.2454101999999998,9.503438000000001,-0.8382569
82373588057461,-1.2166698999999999,9.431587,-0.84544194
82373607913846,-1.2406201000000001,9.522598,-0.732876
82373627770231,-1.3028906999999998,9.541758999999999,-0.75203615
82373647626432,-1.3028906999999998,9.611214,-0.8167017
82373667482817,-1.2286451,9.553733,-0.7209009
82373687339202,-1.1999048,9.424402,-0.6825806
82373707195715,-1.2525953,9.455538,-0.68018556
82373727052100,-1.2885206,9.412427000000001,-0.76880133
82373746908485,-1.3148658000000002,9.479486999999999,-0.7711963000000001
82373766769922,-1.2525953,9.515413,-0.6825806
82373786626415,-1.2118799999999998,9.539363,-0.61552006
82373806483056,-1.1520045,9.627979,-0.73048097
82373826339695,-1.1543995,9.532178,-0.7376661
82373846204562,-1.2358301999999999,9.441168,-0.75203615
82373866061459,-1.2621753,9.285491,-0.7807764
82373885918354,-1.223855,9.3309965,-0.79035646
82373905775250,-1.1927198,9.532178,-0.67539555
82373925632147,-1.1663746000000002,9.580078,-0.58198977
82373945494729,-1.1472143999999997,9.5489435,-0.6945557
82373965351753,-1.1328443000000001,9.469908,-0.7496411000000001
82373985208778,-1.1112891000000003,9.438772,-0.81191164
82374005065929,-1.1112891000000003,9.474698,-0.72569096
82374024922953,-1.1448194,9.522598,-0.69695073
82374044779978,-1.1088941,9.441168,-0.7592211999999999
82374064637630,-1.1232642,9.524992999999998,-0.7783814
82374084494782,-1.2430152,9.558523,-0.7113208000000001
82374104351935,-1.22146,9.508227999999999,-0.8598120000000001
82374124209086,-1.1520045,9.527389,-1.0562036
82374144072937,-1.2166698999999999,9.263936,-1.0298585
82374163930346,-0.8765772,8.995694,-1.3915064
82374183787753,-0.76161623,9.381292,-1.710044
82374203645161,-0.94603276,9.560919,-1.2046948999999998
82374223502442,-0.6610254,9.457932000000001,-1.1184741000000002
82374243347579,-0.19878663,9.6686945,-1.5567628
82374263204859,-0.18681154,9.7621,-1.2430152
82374283062012,-0.4047583,9.577683,-0.9699829
82374302919291,-0.73048097,9.659114,-0.98195803
82374322776443,-1.2717555,9.81,-0.6658155
82374342633724,-1.5471827,9.82437,-0.5891748
82374362465397,-1.3986914,9.472302,-0.4167334
82374382321782,-0.5556446,9.3309965,-0.732876
82374402178167,-0.22273682,9.587264,-1.0178833
82374422034552,0.08861572,9.453142,-0.6442603
82374441890937,0.364043,9.259146000000001,-0.68976563
82374461736832,0.07424561,9.108259,-0.57001466
82374481592955,-0.11496094,9.189691,-0.36883304
82374501449083,-0.22273682,9.340575999999999,-0.47181886
82374521305211,-0.25147706,9.390872,-0.613125
82374541161339,-0.22752686,9.467513,-0.24189699
82374561021740,-0.14130616,9.395662,-0.13891114
82374580877868,-0.07664063,9.453142,-0.24189699
82374600734124,-0.050295413,9.484278,-0.27542725
82374620590252,0.21555176,9.8938265,-0.84065187
82374640446508,0.25147706,10.394385,-0.7232959
82374660302332,0.28261232,11.254197,-0.11496094
82374680158588,0.38559815,12.104429,0.57001466
82374700014844,0.64186525,12.418177,1.0705738
82374719871100,0.87178713,12.274476,0.57719976
82374739727228,0.43110353,12.049344,0.62989014
82374759579089,0.05748047,11.730806,1.4489869
82374779435217,0.52690434,11.357183000000001,0.855022
82374799291345,1.3579761000000001,12.660074,-1.334026
82374819147473,1.6118482,13.859979000000001,-2.955454
82374839003601,2.8979738,13.110337,-4.615203
82374858851708,3.3123120999999998,10.842253999999999,-4.9433207999999995
82374878707708,1.9567311,9.433982,-2.9961696
82374898563580,-0.9268726,10.775193,-1.6310083999999998
82374918419580,-2.0118165,11.812237,-0.732876
82374938275452,-1.8753004,11.491304,0.71371585
82374958120478,-4.126619,11.802657,2.1722827000000002
82374977976223,-3.5853443,10.703342,1.9279908
82374997831968,-1.9040406000000003,9.062755000000001,-0.32332766
82375017687713,0.13172609,8.516689999999999,-3.0033545
82375037543458,0.8214916999999999,7.8269243,-4.1864944
82375057406797,2.059717,8.638836,-2.2417382999999997
82375077262670,3.2213013,8.337064,-1.094524
82375097118543,2.9674294,5.6666164000000006,-1.8274
82375116974416,0.80233157,3.5134937999999996,-1.1831397
82375136830289,-2.2513185,3.1063403999999997,0.89573735
82375156690812,-4.6199927,3.9182522000000004,1.6525636000000001
82375176546813,-5.0439115,4.761299,0.15328126
82375196402814,-3.168611,4.9648757,0.6586304000000001
82375216258815,-0.6322852,5.568420400000001,2.1603076
82375236114816,0.09101075,8.047266,3.6691701
82375255974799,-0.9364527,12.604988,6.215076
82375275830800,-5.024751,19.301464000000003,5.755232299999999
82375295686801,-2.7087672,18.199755,9.292676
82375315542802,2.7662477,5.750442,9.812395
82375335398803,2.0836669999999997,-0.31853762,1.0657837
82375355253242,2.560276,6.835386,-1.4250367
82375375109243,0.5604346,19.835552,-14.183307000000001
82375394965116,-1.6477735,28.352241999999997,-0.19639161
82375414821117,2.7446926,11.817027000000001,1.5687379
82375434677098,1.1064991000000002,5.271438,-5.388794
82375454539943,-0.5221143,8.011341,-3.9901028
82375474396072,-2.454895,11.247012,-3.4823585
82375494252201,-4.3325906,12.966637,0.023950197000000003
82375514108202,-2.6057813,11.067386,3.159031
82375533964331,0.1580713,8.087981,0.5724097
82375553828896,0.17004639,7.6425076,-1.8369801
82375573685153,-0.17483643,7.7311233999999995,0.7089258
82375593541538,-1.0538087,7.774234,3.796106
82375613397795,-0.6179150999999999,8.940608000000001,1.334026
82375633254180,-0.84065187,8.372989,-1.0681788
82375653117183,-0.4766089,7.814949,-0.7376661
82375672973696,-1.3124708,8.135881,-0.9388476999999998
82375692830209,-2.3782544,9.048384,-0.7759864000000001
82375712686722,-2.5051906,10.154883,-0.76161623
82375732543235,0.52690434,10.4638405,-1.8465601000000003
82375752402692,2.9003687,11.714041,-0.79035646
82375772259333,2.4716603999999998,12.645703,1.22146
82375792115958,0.6227050999999999,13.141473000000001,2.4788454
82375811972598,0.76161623,12.78701,3.5110989000000004
82375831829238,1.3795313,12.485237,2.8955786
82375851685007,0.7424561,12.81575,0.26345217
82375871541519,0.3065625,11.752361,-2.1459377
82375891398159,0.81191164,11.692486,-3.5685792000000003
82375911254799,2.320774,11.381133,-2.9578493
82375931111311,3.0776002,12.125983999999999,-3.2213013
82375950969969,1.5064673000000002,13.589341000000001,-2.7973828
82375970826737,0.244292,14.532979000000001,-1.7220191000000002
82375990683377,-1.9088306000000002,14.058765,1.9639161
82376010540017,-2.6297317000000002,11.821816,4.3493557
82376030396785,0.47900394,9.850716,-0.31853762
82376050258288,2.0525317,8.231683,-4.9385304
82376070115056,3.0919703999999997,8.440049,-7.9682302
82376089971696,3.8248462999999995,8.341853,-6.0450295999999994
82376109828464,2.2561085,7.33355,-3.1207106
82376129685232,-2.304009,7.3143899999999995,-1.4729371
82376149546710,-4.5170069999999996,6.799461,-0.028740235
82376169403606,-4.617598,6.68929,1.0801538
82376189260503,-4.049978299999999,6.2821364,1.6717237
82376209117528,-3.6883302000000002,5.743257,1.5064673000000002
82376228974422,-3.5997144999999997,7.7359133,0.9963281999999999
82376248829062,-2.318379,9.386082,2.3686745
82376268685958,-0.45026368,10.782378,3.9877076000000002
82376288542854,-1.22625,12.003839,4.6654983
82376308399750,-1.3603711,12.71995,8.926238
82376328256646,3.7266505,10.684182,10.312955
82376348106927,7.872429400000001,6.5312185,-0.05508545
82376367963696,8.229287,6.337222,-5.2977834
82376387820593,5.1828227,9.359736,-1.8369801
82376407677362,1.3483961000000002,13.060042,-5.4055595
82376427534131,-9.7740755,18.020128,-2.4956105
82376447390900,-8.818462,13.972545000000002,7.2664895000000005
82376467231803,-1.9734962,5.166057599999999,-2.2585034
82376487088188,-1.9950514,7.764653699999999,-8.806486999999999
82376506944701,0.9484278,10.676997,-7.199428999999999
82376526801086,2.4740553,12.10922,0.2562671
82376546657599,0.8047266,12.755875,4.152964
82376566506042,1.3531861,9.912986,0.043110352000000005
82376586362299,0.51013917,7.381450699999999,-1.2669654
82376606218428,-1.0585986,7.6425076,0.4047583
82376626074685,-1.2573853000000002,8.866363,0.97956306
82376645930942,-1.4274316999999999,9.271121,0.45026368
82376665787315,-2.411785,8.258028,0.62749517
82376685643572,-1.6884888,7.937094999999999,-0.040715333
82376705499829,-2.43813,9.175321,-0.3903882
82376725356086,-2.8213332,10.030342,-0.21315674
82376745212195,-1.8729054,10.358459,-0.9244776
82376765052757,0.047900394000000006,10.727293,-0.5508545
82376784908629,1.2717555,11.239827,-0.58198977
82376804764501,2.3327491,11.357183000000001,-2.0022363999999997
82376824620501,2.794988,11.60387,-1.7818946
82376844476373,1.6836988000000002,12.013418,-0.4143384
82376864324291,1.1543995,12.513978,-0.13172609
82376884180035,0.4143384,12.959452,0.39517823
82376904035651,0.41912845,12.861256,-0.93405765
82376923891395,1.4705421,11.639795,-2.4213647999999997
82376943747139,0.9627979,10.95482,-2.7830129
82376963601335,-0.29937744,10.099798,-3.6883302000000002
82376983456823,-1.3052857,11.03625,-3.4847536
82377003312439,-2.1818627999999998,12.078084,-3.8128712
82377023168055,-3.3650026,11.874507000000001,-4.4643164
82377043023671,-3.6811452000000005,12.339141,-0.5676197
82377062883121,-3.410508,12.23376,2.3495142
82377082738737,-3.0704152999999996,10.427916,0.40954837
82377102594353,-3.5925295,8.943004,0.7807764
82377122449969,-2.4093897,8.629255,1.1088941
82377142305585,-2.1435425,8.684341,-0.85741705
82377162169643,-0.35685793,7.3000197,-1.7627343999999998
82377182025388,0.1820215,6.5096636,-3.3865578000000003
82377201881261,0.119750984,5.918093700000001,-2.7901978
82377221737003,1.6908839,4.86189,0.1341211
82377241592747,-0.9268726,5.245093,2.0190015
82377261458950,-2.6321266,6.2605815,2.1507277
82377281314950,-1.7723145,7.0102224,1.1520045
82377301170950,-1.2765454,6.564749000000001,0.8047266
82377321026822,-0.63707525,6.246211,1.6980689999999998
82377340882822,-0.29937744,7.2425394,3.5781593000000003
82377360742245,-0.5460645000000001,9.204061,6.368357
82377380598245,-0.07903565,10.145303,5.1732426
82377400454245,-0.14130616,10.358459,1.8226098999999998
82377420310245,0.0023950195999999997,9.874666,0.019160157
82377440166373,0.31135255,9.433982,1.1687696
82377460025146,1.0585986,10.976375,3.2213013
82377479881146,2.1579127000000002,13.869557999999998,4.481082
82377499737274,2.6153615,15.684982999999999,1.3364209999999999
82377519593274,-3.2859669,16.774717000000003,-8.150250999999999
82377539449402,-5.740862,15.632292999999999,-5.7719974999999994
82377559310589,-1.9136206999999998,8.610096,0.047900394000000006
82377579166845,-1.2981006000000002,5.1085769999999995,0.31135255
82377599022973,-2.8165430000000002,6.0282645,-0.39757326
82377618879101,-1.9998415,9.795630000000001,-0.5963599
82377638735357,-0.07903565,13.167817999999999,-4.232
82377658599243,0.52690434,12.638518,-4.761299
82377678455627,0.2945874,10.703342,0.76880133
82377698312139,-0.21555176,9.843531,4.495451999999999
82377718168523,-1.0538087,8.861572,1.2933106
82377738024907,-0.24668702,8.143066000000001,-1.2957056999999998
82377757885454,-0.7448511,9.968072,-2.2537133999999996
82377777746088,-1.1663746000000002,10.650652000000001,-1.9926563999999998
82377797602600,-1.0418334999999999,9.72857,-0.4622388
82377817459240,-1.1448194,10.087823,0.100590825
82377837315752,-1.1136841999999998,10.657836999999999,0.7568262
82377857171831,-1.0250684,10.514136,2.5171657000000005
82377877028471,-0.8310718,10.018367,1.0729688
82377896885111,-0.61073,9.666299,0.07903565
82377916741751,-1.0514137,10.078242,-0.18920656
82377936598391,-1.2022998,10.662627,-0.7951465
82377956456685,-0.8933423,10.612332,-1.4178516
82377976313325,-0.79993653,10.166859,-0.5676197
82377996170093,-1.0250684,10.111773,-0.0047900393
82378016026733,-1.4394068000000002,10.37283,0.7065308000000001
82378035883501,-1.2765454,10.854229,0.97237796
82378055743972,-0.6514453,10.918895,0.07424561
82378075600740,-0.10777588,10.195599000000001,-1.2478052
82378095457508,-0.29698244,9.721385,-1.6286133999999999
82378115314276,-1.0394385,9.479486999999999,-0.9627979
82378135171044,-2.0046315,9.594449000000001,-0.66342044
82378155031379,-2.0118165,9.496253,-1.4010864
82378174888276,-1.5998731000000002,9.196876,-1.8489552
82378194745173,-1.4465919,9.345366499999999,-1.3819263000000002
82378214601942,-1.4154567,9.644744000000001,-0.8885523000000001
82378234458839,-1.575923,9.577683,-1.1543995
82378254316684,-1.7507593999999997,9.491463000000001,-1.7292042
82378274173581,-1.8800903999999998,9.850716,-1.6813037
82378294030606,-1.9088306000000002,9.994417,-0.98914313
82378313887503,-1.7675245,9.704619000000001,-0.80712163
82378333744528,-1.7723145,9.551338000000001,-0.91010743
82378353591117,-1.6190332,9.539363,-1.1208692
82378373447886,-1.3891114,9.795630000000001,-1.3076807
82378393304527,-1.2094848999999999,9.972861,-1.1879296999999998
82378413161168,-1.2909156000000002,9.881851,-1.0538087
82378433017937,-1.6381934999999999,9.659114,-1.1208692
82378452855560,-1.7220191000000002,9.594449000000001,-1.3603711
82378472711817,-1.8130298999999999,9.81,-1.3843212999999999
82378492568074,-1.8896705000000003,10.035132,-1.1831397
82378512424331,-1.9064356,10.183622999999999,-1.0729688
82378532280588,-2.088457,10.248289,-0.93405765
82378552130303,-2.047742,10.130933,-0.9627979
82378571986432,-1.949546,10.174044,-0.8382569
82378591842433,-1.8561403000000003,10.114168,-0.7759864000000001
82378611698562,-1.5040723,9.821976,-0.69216067
82378631554543,-1.1232642,9.616004,-0.5292993
82378651405898,-0.87178713,9.381292,-0.3520679
82378671261771,-0.7544312,9.000483500000001,-0.7927515
82378691117644,-0.98435307,8.823253,-1.3555812
82378710973645,-1.3651612,8.854387,-1.2933106
82378730829518,-1.4298267,9.0076685,-1.1903248
82378750679399,-1.3028906999999998,9.239985,-0.8933423
82378770535272,-1.1903248,9.400452,-0.8430469
82378790391017,-1.2789403999999998,9.589659,-1.0370435
82378810246881,-1.6741188000000002,9.941727,-1.0250684
82378830102625,-2.074087,10.085427000000001,-0.72569096
82378849958497,-2.0549269,9.946517,-0.75203615
82378869812479,-1.8657203000000002,9.659114,-1.0394385
82378889668223,-1.6693287,9.527389,-1.1064991000000002
82378909523967,-1.4226416000000002,9.501043,-1.3986914
82378929379839,-1.1855347,9.520203,-1.4130616000000003
82378949235583,-1.2789403999999998,9.604028999999999,-1.1352394
82378969090833,-1.4370118,9.702225,-1.0154883
82378988946577,-1.6980689999999998,9.74773,-0.84544194
82379008802321,-1.8513502,9.745335,-0.9029224
82379028658065,-1.7124390999999999,9.7142,-1.1975098
82379048513809,-1.5112573999999999,9.750125,-1.5112573999999999
82379068380712,-1.3723463,9.72378,-1.5160475
82379088236584,-1.4082716,9.486672,-1.3268408999999999
82379108092584,-1.5687379,9.407638,-1.0801538
82379127948456,-1.5998731000000002,9.474698,-0.9963281999999999
82379147804456,-1.4609618999999998,9.546548,-1.1064991000000002
82379167666008,-1.3172607,9.587264,-1.1711646
82379187522008,-1.22625,9.690249,-1.2741505
82379207378008,-1.2669654,9.707015,-1.2957056999999998
82379227234008,-1.3124708,9.77168,-1.1975098
82379247090009,-1.2741505,9.73815,-1.0154883
82379266949690,-1.3723463,9.695039999999999,-0.9580079
82379286805819,-1.3915064,9.618399,-1.0394385
82379306661817,-1.2669654,9.584868,-1.0777588
82379326517945,-1.1400293,9.656719,-0.9963281999999999
82379346374073,-1.1400293,9.754914999999999,-0.92926764
82379366230742,-1.1376343,9.77647,-0.90052736
82379386086870,-1.0562036,9.704619000000001,-0.9580079
82379405942999,-1.0777588,9.592053,-1.0705738
82379425799000,-1.1879296999999998,9.568104,-1.1184741000000002
82379445655129,-1.2430152,9.678274,-1.0250684
82379465508660,-1.3244458000000001,9.865086,-0.90052736
82379485364661,-1.3388159,9.7812605,-0.86939216
82379505220662,-1.1903248,9.740545,-0.977168
82379525076663,-1.0633887,9.635164,-1.0250684
82379544932664,-1.0514137,9.604028999999999,-1.1400293
82379564798117,-1.0729688,9.611214,-1.1256591999999999
82379584654246,-0.98435307,9.582474000000001,-1.0370435
82379604510503,-0.96040285,9.64714,-1.0418334999999999
82379624366632,-1.0370435,9.740545,-1.0633887
82379644222889,-1.0538087,9.74773,-1.0633887
82379664087738,-1.0322535,9.656719,-1.0250684
82379683944251,-1.0154883,9.627979,-0.96758795
82379703800636,-1.0178833,9.611214,-0.9963281999999999
82379723657149,-0.99393314,9.68067,-1.0178833
82379743513519,-0.98435307,9.750125,-1.0322535
82379763378467,-0.97956306,9.733359,-1.0705738
82379783237351,-1.0083033000000001,9.584868,-1.0681788
82379803093991,-1.0322535,9.608819,-1.0873389
82379822950759,-1.1232642,9.671089,-1.0562036
82379842807399,-1.1951148999999999,9.75731,-0.977168
82379862662876,-1.2358301999999999,9.798025,-0.8909473
82379882519644,-1.1975098,9.649534,-0.8813671999999999
82379902376412,-1.1112891000000003,9.613608000000001,-0.98914313
82379922233052,-1.094524,9.730965,-1.0130934
82379942089820,-1.0490186000000001,9.639954,-0.9268726
82379961951379,-1.1304493,9.620794,-0.97956306
82379981808275,-1.2334352,9.587264,-0.8669971
82380001665171,-1.1376343,9.6615095,-0.90771246
82380021522067,-1.096919,9.70941,-0.8861573
82380041378963,-1.0394385,9.589659,-0.8262818000000001
82380061233543,-1.0083033000000001,9.632769,-0.8765772
82380081090439,-1.0154883,9.745335,-0.8646021
82380100947207,-0.9963281999999999,9.699829,-0.8310718
82380120804103,-0.96040285,9.635164,-1.0130934
82380140660871,-1.1567944,9.644744000000001,-0.9412427
82380160517452,-1.2406201000000001,9.637559,-0.80233157
82380180374349,-1.1807446000000001,9.718989,-0.74724615
82380200231118,-1.1855347,9.735755000000001,-0.7041358
82380220088015,-1.1496094,9.735755000000001,-0.76161623
82380239944784,-1.1041040000000002,9.637559,-0.7783814
82380259798390,-1.0442286,9.666299,-0.8478370000000001
82380279655158,-1.0753639,9.735755000000001,-0.71371585
82380299511926,-1.0346485,9.6615095,-0.6586304000000001
82380319368694,-1.0202783000000002,9.690249,-0.69216067
82380339225462,-1.0178833,9.6615095,-0.68737066
82380359077257,-1.0178833,9.606423,-0.84544194
82380378933897,-1.1232642,9.639954,-0.9196875
82380398790409,-1.1759547,9.718989,-0.7185059
82380418647050,-1.1783496,9.798025,-0.728086
82380438503691,-1.2070899,9.81,-0.7568262
82380458351070,-1.1783496,9.759705,-0.8167017
82380478207455,-1.1352394,9.632769,-0.852627
82380498063840,-1.1112891000000003,9.570497999999999,-0.9053174
82380517920225,-1.2166698999999999,9.663903999999999,-0.92926764
82380537776610,-1.2525953,9.769285,-0.9268726
82380557631305,-1.214275,9.901011,-0.8669971
82380577487690,-1.2478052,9.812395,-0.8143066999999999
82380597343947,-1.22625,9.513017999999999,-0.83586186
82380617200332,-1.2022998,9.4435625,-0.87897223
82380637056589,-1.2094848999999999,9.524992999999998,-0.8478370000000001
82380656912466,-1.2382251,9.6615095,-0.9029224
82380676768851,-1.2070899,9.649534,-0.86939216
82380696625236,-1.1783496,9.515413,-0.9244776
82380716481621,-1.2286451,9.70941,-0.9963281999999999
82380736337878,-1.2621753,9.754914999999999,-0.87418216
82380756193549,-1.2549903,9.601633999999999,-0.8430469
82380776049790,-1.2645704,9.412427000000001,-0.8262818000000001
82380795906174,-1.1807446000000001,9.474698,-0.86939216
82380815762558,-1.1615845,9.656719,-0.9148975
82380835618814,-1.1136841999999998,9.642349000000001,-0.98435307
82380855468865,-1.1951148999999999,9.572892999999999,-0.9987232
82380875325121,-1.2813355,9.620794,-0.93405765
82380895181249,-1.2022998,9.620794,-0.8813671999999999
82380915037505,-1.1927198,9.7621,-0.977168
82380934893761,-1.2909156000000002,9.783655,-0.974773
82380954749098,-1.4058765,9.81,-1.0178833
82380974605354,-1.4801221000000002,9.83874,-0.90052736
82380994461482,-1.3436059999999999,9.730965,-0.74724615
82381014317610,-1.1855347,9.6686945,-0.8262818000000001
82381034173738,-1.1543995,9.584868,-0.92926764
82381054029866,-1.1999048,9.510622999999999,-1.1855347
82381073880533,-1.3220508,9.64714,-1.1807446000000001
82381093736533,-1.3244458000000001,9.802814999999999,-0.9412427
82381113592533,-1.3196558,9.730965,-0.91250247
82381133448533,-1.3124708,9.604028999999999,-1.0705738
82381153304533,-1.3483961000000002,9.520203,-1.2310401000000002
82381173157065,-1.3555812,9.575289,-1.1927198
82381193012938,-1.3100758,9.580078,-1.0322535
82381212868939,-1.3436059999999999,9.608819,-1.0274634
82381232724812,-1.3244458000000001,9.611214,-1.1376343
82381252580809,-1.2813355,9.584868,-1.2549903
82381272435899,-1.2573853000000002,9.656719,-1.1663746000000002
82381292291771,-1.3076807,9.651928999999999,-1.0370435
82381312147771,-1.331631,9.577683,-1.0633887
82381332003643,-1.3483961000000002,9.553733,-1.1256591999999999
82381351859515,-1.2645704,9.604028999999999,-1.1352394
82381371711956,-1.2573853000000002,9.702225,-1.219065
82381391567829,-1.2981006000000002,9.673484,-1.1280543
82381411423574,-1.3627661,9.613608000000001,-1.0562036
82381431279447,-1.3483961000000002,9.604028999999999,-1.0346485
82381451135320,-1.2645704,9.635164,-1.1208692
82381470996459,-1.2885206,9.74773,-1.1855347
82381490852332,-1.2885206,9.697434,-1.1112891000000003
82381510708205,-1.2645704,9.596844,-1.1543995
82381530564078,-1.2861254999999998,9.692644,-1.096919
82381550419951,-1.2837305,9.639954,-1.1352394
82381570279414,-1.3531861,9.596844,-1.1567944
82381590135287,-1.3531861,9.5489435,-1.089734
82381609991288,-1.3028906999999998,9.584868,-1.096919
82381629847289,-1.3220508,9.649534,-1.1328443000000001
82381649703162,-1.3436059999999999,9.599238,-1.0921290000000001
82381669559639,-1.3124708,9.544153,-1.1088941
82381689415512,-1.2573853000000002,9.527389,-1.1112891000000003
82381709271513,-1.2861254999999998,9.592053,-1.1472143999999997
82381729127514,-1.3268408999999999,9.72857,-1.0011181999999998
82381748983495,-1.2813355,9.72857,-1.0346485
82381768844599,-1.3172607,9.70941,-1.1208692
82381788700600,-1.3220508,9.663903999999999,-1.099314
82381808556600,-1.3220508,9.666299,-1.0274634
82381828412728,-1.3100758,9.649534,-0.85741705
82381848268856,-1.3124708,9.5489435,-0.98914313
82381868124124,-1.3436059999999999,9.565708,-1.1496094
82381887980252,-1.2909156000000002,9.659114,-1.0370435
82381907836252,-1.2717555,9.764495,-0.977168
82381927692380,-1.2861254999999998,9.730965,-0.974773
82381947548508,-1.2693603999999998,9.623189,-1.0585986
82381967405837,-1.3148658000000002,9.637559,-1.0562036
82381987261965,-1.3388159,9.692644,-0.86939216
82382007118093,-1.2885206,9.625584,-0.92208254
82382026974221,-1.2310401000000002,9.671089,-0.97956306
82382046830349,-1.1615845,9.6615095,-1.0226734
82382066676609,-1.1328443000000001,9.711803999999999,-1.0418334999999999
82382086532481,-1.1831397,9.692644,-0.9484278
82382106388481,-1.2022998,9.493857,-0.9436377
82382126244353,-1.2046948999999998,9.517808,-0.9316626
82382146100225,-1.1975098,9.635164,-0.8334668
82382165964082,-1.1472143999999997,9.793235000000001,-0.9651929
82382185820082,-1.1663746000000002,9.7621,-1.0178833
82382205676210,-1.1520045,9.639954,-0.97956306
82382225532338,-1.1783496,9.539363,-0.90052736
82382245388466,-1.1663746000000002,9.5561285,-0.80233157
82382265247563,-1.219065,9.685459,-0.86939216
82382285103692,-1.2525953,9.788445,-0.89573735
82382304959821,-1.1472143999999997,9.79084,-0.9580079
82382324815950,-1.22146,9.683064,-1.0514137
82382344672079,-1.2717555,9.742939999999999,-0.8885523000000001
82382364527444,-1.214275,9.704619000000001,-0.7568262
82382384383701,-1.1687696,9.625584,-0.72569096
82382404239830,-1.2046948999999998,9.551338000000001,-0.8214916999999999
82382424095959,-1.1879296999999998,9.611214,-0.9053174
82382443952216,-1.099314,9.718989,-0.88376224
82382463807351,-1.0657837,9.77168,-0.85023195
82382483663480,-1.094524,9.649534,-0.87178713
82382503519609,-1.1088941,9.560919,-0.8646021
82382523375738,-1.1687696,9.77647,-0.8310718
82382543231867,-1.2549903,9.73815,-0.74006104
82382563094568,-1.1999048,9.616004,-0.8598120000000001
82382582950953,-1.1567944,9.654325,-0.77359134
82382602807210,-1.0873389,9.68067,-0.8909473
82382622663467,-1.1567944,9.699829,-0.9915381
82382642519724,-1.1448194,9.575289,-0.79035646
82382662377135,-1.1400293,9.637559,-0.8861573
82382682233392,-1.2430152,9.80521,-0.8861573
82382702089777,-1.2286451,9.733359,-0.92208254
82382721946012,-1.2022998,9.716595,-0.92926764
82382741802397,-1.1424243,9.630374,-0.7879615
82382761658970,-1.0609937,9.582474000000001,-1.0298585
82382781515227,-1.096919,9.618399,-1.0106983
82382801371609,-1.1232642,9.551338000000001,-0.9029224
82382821227865,-1.1783496,9.651928999999999,-0.84544194
82382841084121,-1.1424243,9.716595,-0.8478370000000001
82382860937305,-1.0921290000000001,9.716595,-0.97237796
82382880793561,-1.1520045,9.649534,-0.9388476999999998
82382900649817,-1.1328443000000001,9.558523,-0.84544194
82382920506073,-1.1448194,9.544153,-0.9244776
82382940362201,-1.1591895,9.608819,-0.91250247
82382960214471,-1.1735597,9.687855,-0.9651929
82382980070599,-1.214275,9.81,-0.89573735
82382999926727,-1.1831397,9.812395,-0.93405765
82383019782727,-1.214275,9.742939999999999,-1.0394385
82383039638855,-1.2765454,9.637559,-0.9508228000000001
82383059505400,-1.3004956,9.496253,-0.89573735
82383079361656,-1.2094848999999999,9.601633999999999,-0.8646021
82383099218041,-1.1088941,9.639954,-0.9580079
82383119074424,-1.1735597,9.632769,-1.1304493
82383138928493,-1.223855,9.690249,-1.0753639
82383158784878,-1.1879296999999998,9.877061,-0.95561284
82383178641133,-1.2334352,9.764495,-0.8669971
82383198497517,-1.2430152,9.613608000000001,-0.95561284
82383218353902,-1.3076807,9.599238,-0.97956306
82383238210159,-1.2406201000000001,9.616004,-0.9196875
82383258068679,-1.1496094,9.599238,-1.0083033000000001
82383277925064,-1.1951148999999999,9.644744000000001,-0.9148975
82383297781447,-1.1472143999999997,9.606423,-0.95561284
82383317637831,-1.1496094,9.625584,-1.0250684
82383337494216,-1.1999048,9.6686945,-0.91729254
82383357348849,-1.214275,9.690249,-0.92208254
82383377205233,-1.2478052,9.740545,-0.92208254
82383397061618,-1.1735597,9.70941,-0.8334668
82383416918001,-1.1615845,9.644744000000001,-1.0083033000000001
82383436778092,-1.1927198,9.577683,-0.8478370000000001
82383456634605,-1.1232642,9.599238,-0.85741705
82383476490990,-1.1783496,9.639954,-0.90052736
82383496347503,-1.2022998,9.659114,-1.0202783000000002
82383516204016,-1.2430152,9.6686945,-0.99393314
82383536060401,-1.214275,9.783655,-0.9316626
82383555923782,-1.2406201000000001,9.707015,-0.9388476999999998
82383575780295,-1.22625,9.666299,-0.98914313
82383595636936,-1.223855,9.577683,-0.91250247
82383615493577,-1.1831397,9.558523,-0.8981324
82383635350218,-1.089734,9.644744000000001,-0.8262818000000001
82383655202775,-0.977168,9.690249,-0.8143066999999999
82383675059160,-0.977168,9.807606,-0.8646021
82383694915673,-1.0226734,9.812395,-0.79993653
82383714772058,-1.1184741000000002,9.671089,-0.85741705
82383734628441,-1.1975098,9.649534,-0.7951465
82383754484826,-1.2070899,9.608819,-0.7759864000000001
82383774339523,-1.2933106,9.716595,-0.85023195
82383794195905,-1.3507911,9.764495,-0.84065187
82383814052418,-1.3651612,9.75731,-0.96040285
82383833908929,-1.3867163999999998,9.659114,-0.8885523000000001
82383853765234,-1.2957056999999998,9.524992999999998,-0.87897223
82383873621747,-1.2861254999999998,9.529783,-0.88376224
82383893478258,-1.2957056999999998,9.687855,-0.84065187
82383913334770,-1.2022998,9.802814999999999,-0.85741705
82383933191155,-1.2070899,9.704619000000001,-0.92208254
82383953044576,-1.1496094,9.623189,-0.94603276
82383972901088,-1.1208692,9.79084,-0.8669971
82383992757473,-1.1879296999999998,9.7621,-0.6514453
82384012613856,-1.2957056999999998,9.699829,-0.732876
82384032470240,-1.3507911,9.673484,-0.6562354
82384052326625,-1.101709,9.656719,-0.78556645
82384072178577,-0.9484278,9.692644,-0.8765772
82384092034833,-0.96040285,9.692644,-0.8861573
82384111891090,-1.0562036,9.678274,-0.8933423
82384131747473,-1.2765454,9.687855,-0.84065187
82384151606405,-1.4154567,9.635164,-0.6730005
82384171462790,-1.3579761000000001,9.644744000000001,-0.72569096
82384191319173,-1.3004956,9.635164,-0.69216067
82384211175557,-1.2022998,9.6758795,-0.77359134
82384231031942,-1.1951148999999999,9.699829,-0.7664063
82384250893006,-1.1567944,9.704619000000001,-0.7161109
82384270749518,-1.1496094,9.73815,-0.6777906
82384290605903,-1.1304493,9.64714,-0.73048097
82384310462414,-1.1352394,9.589659,-0.79993653
82384330318798,-1.214275,9.711803999999999,-0.73527104
82384350175311,-1.2502003000000002,9.685459,-0.68976563
82384370028962,-1.2549903,9.649534,-0.68737066
82384389885474,-1.219065,9.644744000000001,-0.61073
82384409741859,-1.1615845,9.654325,-0.67539555
82384429598370,-1.1352394,9.740545,-0.6227050999999999
82384449445701,-1.1400293,9.671089,-0.65384036
82384469301958,-1.1975098,9.692644,-0.68737066
82384489158213,-1.2046948999999998,9.730965,-0.6562354
82384509014341,-1.2070899,9.711803999999999,-0.66342044
82384528870598,-1.2046948999999998,9.623189,-0.6586304000000001
82384548726853,-1.1615845,9.505833,-0.6394701999999999
82384568571558,-1.1831397,9.546548,-0.68737066
82384588427559,-1.1831397,9.695039999999999,-0.6346801999999999
82384608283558,-1.1687696,9.812395,-0.6993457
82384628139430,-1.214275,9.848321,-0.7185059
82384647995431,-1.2046948999999998,9.704619000000001,-0.6945557
82384667853435,-1.1951148999999999,9.620794,-0.73527104
82384687709435,-1.1879296999999998,9.527389,-0.6777906
82384707565564,-1.1831397,9.575289,-0.732876
82384727421563,-1.2789403999999998,9.865086,-0.61552006
82384747272608,-1.2094848999999999,9.82437,-0.66342044
82384767128481,-1.1520045,9.702225,-0.81909674
82384786984352,-1.1903248,9.666299,-0.728086
82384806840224,-1.1543995,9.611214,-0.7089258
82384826696097,-1.1687696,9.685459,-0.6945557
82384846551968,-1.2022998,9.611214,-0.6514453
82384866408236,-1.219065,9.618399,-0.80233157
82384886263981,-1.2502003000000002,9.695039999999999,-0.68737066
82384906119852,-1.1783496,9.692644,-0.7232959
82384925975724,-1.1280543,9.630374,-0.74724615
82384945831597,-1.1400293,9.544153,-0.84065187
82384965688596,-1.2118799999999998,9.6758795,-0.82388675
82384985544468,-1.1759547,9.721385,-0.70174074
82385005400341,-1.1903248,9.75731,-0.7448511
82385025256084,-1.2885206,9.718989,-0.7951465
82385045113462,-1.2981006000000002,9.68067,-0.8598120000000001
82385064969335,-1.2621753,9.623189,-0.80712163
82385084825206,-1.1807446000000001,9.606423,-0.77359134
82385104681078,-1.1783496,9.582474000000001,-0.8262818000000001
82385124536951,-1.2334352,9.721385,-0.9029224
82385144392694,-1.2549903,9.798025,-0.8334668
82385164257447,-1.2693603999999998,9.81,-0.8598120000000001
82385184113576,-1.2502003000000002,9.735755000000001,-0.80233157
82385203969575,-1.2358301999999999,9.627979,-0.8430469
82385223825704,-1.2549903,9.644744000000001,-0.76880133
82385243681833,-1.1903248,9.606423,-0.75203615
82385263543764,-1.1304493,9.627979,-0.81191164
82385283400020,-1.1400293,9.733359,-0.91729254
82385303256149,-1.1184741000000002,9.750125,-0.9508228000000001
82385323112404,-1.089734,9.759705,-0.8430469
82385342970923,-1.1160791,9.616004,-0.77359134
82385362827180,-1.1687696,9.532178,-0.86939216
82385382683437,-1.1663746000000002,9.596844,-0.7807764
82385402539694,-1.1448194,9.678274,-0.8598120000000001
82385422395951,-1.1687696,9.793235000000001,-0.90052736
82385442252080,-1.1472143999999997,9.778865,-0.86939216
82385462108087,-1.099314,9.687855,-0.8382569
82385481964344,-1.1400293,9.568104,-0.8382569
82385501820601,-1.1615845,9.5489435,-0.8598120000000001
82385521676858,-1.1831397,9.663903999999999,-0.7879615
82385541532987,-1.1400293,9.81,-0.8047266
82385561389438,-1.1304493,9.711803999999999,-0.9484278
82385581245695,-1.1232642,9.695039999999999,-0.87418216
82385601101952,-1.0753639,9.663903999999999,-0.8598120000000001
82385620958337,-1.1136841999999998,9.577683,-0.8813671999999999
82385640814594,-1.1472143999999997,9.627979,-0.80712163
82385660670851,-1.1783496,9.745335,-0.8382569
82385680528734,-1.1352394,9.68067,-0.88376224
82385700384991,-1.1112891000000003,9.75731,-0.81191164
82385720241376,-1.1232642,9.800421,-0.74724615
82385740097615,-1.0083033000000001,9.678274,-0.76401126
82385759956055,-1.0202783000000002,9.599238,-0.7759864000000001
82385779812440,-1.0777588,9.616004,-0.74006104
82385799670077,-1.0585986,9.64714,-0.76161623
82385819526461,-0.9867481,9.778865,-0.7711963000000001
82385839382846,-0.9915381,9.814791,-0.7376661
82385859242117,-1.0585986,9.75252,-0.87178713
82385879098629,-1.0801538,9.77647,-0.8334668
82385898955142,-1.0921290000000001,9.659114,-0.83586186
82385918811653,-1.1448194,9.697434,-0.79035646
82385938668165,-1.1424243,9.678274,-0.7568262
82385958524678,-1.1472143999999997,9.699829,-0.8646021
82385978382639,-1.1448194,9.692644,-0.855022
82385998239279,-1.0609937,9.632769,-0.8214916999999999
82386018095920,-1.0154883,9.6686945,-0.79035646
82386037952431,-1.0466236,9.692644,-0.7759864000000001
82386057810565,-1.0466236,9.644744000000001,-0.7879615
82386077667206,-1.0585986,9.702225,-0.80712163
82386097523845,-1.0514137,9.683064,-0.79754156
82386117380357,-1.0849438999999999,9.778865,-0.8214916999999999
82386137236998,-1.0777588,9.730965,-0.76880133
82386157093637,-1.0370435,9.642349000000001,-0.78556645
82386176945913,-1.0921290000000001,9.589659,-0.86220706
82386196802298,-1.1160791,9.558523,-0.8167017
82386216658809,-1.1280543,9.702225,-0.7568262
82386236515321,-1.101709,9.831555,-0.8286768
82386256371706,-1.0346485,9.6686945,-0.87897223
82386276231405,-1.0274634,9.637559,-0.8813671999999999
82386296087918,-1.0322535,9.651928999999999,-0.84065187
82386315944431,-1.1831397,9.671089,-0.8286768
82386335800944,-1.3196558,9.7621,-0.76401126
82386355657457,-1.1927198,9.687855,-0.7424561
82386375513970,-1.0825489,9.690249,-0.8310718
82386395368209,-1.1088941,9.673484,-0.82388675
82386415224722,-0.977168,9.730965,-0.81191164
82386435081235,-0.95561284,9.718989,-0.7544312
82386454937620,-1.0130934,9.764495,-0.732876
82386474793633,-1.0490186000000001,9.73815,-0.71371585
82386494650018,-1.0873389,9.697434,-0.7783814
82386514506531,-1.1088941,9.683064,-0.73048097
82386534362916,-0.94603276,9.692644,-0.7376661
82386554219301,-0.8861573,9.589659,-0.7592211999999999
82386574065140,-0.9268726,9.584868,-0.852627
82386593921397,-0.9148975,9.637559,-0.80712163
82386613777654,-0.9268726,9.80521,-0.852627
82386633633911,-1.0370435,9.814791,-0.7544312
82386653490168,-0.97956306,9.718989,-0.8143066999999999
82386673346425,-1.0370435,9.754914999999999,-0.8167017
82386693199098,-0.96758795,9.707015,-0.8262818000000001
82386713055227,-0.9963281999999999,9.678274,-0.87418216
82386732911356,-1.0490186000000001,9.651928999999999,-0.7879615
82386752767591,-0.977168,9.690249,-0.87418216
82386772630376,-1.0035132,9.745335,-0.9316626
82386792486633,-1.0202783000000002,9.70941,-0.9268726
82386812342888,-1.0514137,9.649534,-0.92926764
82386832199144,-1.0202783000000002,9.639954,-0.8047266
82386852055529,-1.0035132,9.697434,-0.80233157
82386871914144,-0.98435307,9.78605,-0.8334668
82386891770400,-0.98914313,9.673484,-0.90052736
82386911626785,-1.0035132,9.580078,-0.9699829
82386931483168,-1.0394385,9.702225,-0.8646021
82386951339552,-1.0011181999999998,9.678274,-0.9029224
82386971195809,-1.0562036,9.594449000000001,-0.96040285
82386991053765,-1.0106983,9.5561285,-0.90052736
82387010910149,-0.9484278,9.697434,-0.9029224
82387030766662,-0.9867481,9.848321,-0.9508228000000001
82387050623045,-1.0633887,9.829161000000001,-0.974773
82387070470000,-1.1088941,9.70941,-0.9508228000000001
82387090326129,-1.0873389,9.616004,-0.85023195
82387110182384,-1.0729688,9.474698,-0.8981324
82387130038512,-1.1160791,9.572892999999999,-0.9388476999999998
82387149894769,-1.0418334999999999,9.795630000000001,-0.87178713
82387169752075,-1.0873389,9.79084,-0.95561284
82387189608331,-1.1687696,9.742939999999999,-0.9987232
82387209464460,-1.1999048,9.707015,-0.96758795
82387229320715,-1.1663746000000002,9.654325,-0.90771246
82387249176843,-1.2022998,9.632769,-0.9244776
82387269033100,-1.2669654,9.750125,-0.8382569
82387288890092,-1.2022998,9.6686945,-0.91729254
82387308746348,-1.1951148999999999,9.601633999999999,-1.0394385
82387328602477,-1.1639795,9.6758795,-0.88376224
82387348458732,-1.0250684,9.656719,-0.8478370000000001
82387368316093,-1.0657837,9.654325,-0.9412427
82387388172350,-1.1567944,9.651928999999999,-0.87897223
82387408028479,-1.1807446000000001,9.637559,-0.9053174
82387427884736,-1.1783496,9.754914999999999,-0.86220706
82387447740993,-1.1304493,9.687855,-0.85741705
82387467597122,-1.1496094,9.659114,-0.9699829
82387487455401,-1.2118799999999998,9.692644,-0.9316626
82387507311530,-1.1831397,9.637559,-0.8382569
82387527167787,-1.1400293,9.592053,-0.8286768
82387547024044,-1.099314,9.639954,-0.852627
82387566880301,-1.1041040000000002,9.745335,-0.92926764
82387586731882,-1.1591895,9.77647,-0.8765772
82387606588011,-1.1687696,9.745335,-0.80712163
82387626444140,-1.1879296999999998,9.627979,-0.85023195
82387646300269,-1.1472143999999997,9.577683,-0.9148975
82387666158560,-1.2286451,9.656719,-0.80233157
82387686014689,-1.2789403999999998,9.659114,-0.74006104
82387705870946,-1.2286451,9.6686945,-0.77359134
82387725727059,-1.2382251,9.766891000000001,-0.80712163
82387745583316,-1.2166698999999999,9.7621,-0.8382569
82387765439443,-1.1831397,9.673484,-0.80712163
82387785296791,-1.1807446000000001,9.596844,-0.728086
82387805153048,-1.223855,9.592053,-0.7113208000000001
82387825011122,-1.3292358999999998,9.649534,-0.74006104
82387844867250,-1.2741505,9.72378,-0.7065308000000001
82387864723507,-1.2286451,9.75731,-0.7664063
82387884580909,-1.22146,9.685459,-0.7783814
82387904437165,-1.1855347,9.560919,-0.81909674
82387924293422,-1.1999048,9.587264,-0.7592211999999999
82387944149805,-1.1879296999999998,9.6615095,-0.7161109
82387964008201,-1.1927198,9.750125,-0.7592211999999999
82387983864586,-1.2693603999999998,9.656719,-0.78556645
82388003720841,-1.2837305,9.606423,-0.8382569
82388023577225,-1.2717555,9.707015,-0.728086
82388043433610,-1.1855347,9.651928999999999,-0.6825806
82388063289865,-1.219065,9.649534,-0.78556645
82388083147389,-1.2885206,9.70941,-0.7448511
82388103003774,-1.2166698999999999,9.72857,-0.80233157
82388122860157,-1.223855,9.754914999999999,-0.79993653
82388142716542,-1.2406201000000001,9.872271000000001,-0.68737066
82388162572927,-1.2022998,9.630374,-0.67539555
82388182430053,-1.1903248,9.541758999999999,-0.8262818000000001
82388202286437,-1.2813355,9.522598,-0.79993653
82388222142694,-1.2645704,9.625584,-0.7424561
82388241999077,-1.214275,9.663903999999999,-0.7161109
82388261861880,-1.2286451,9.613608000000001,-0.8981324
82388281718265,-1.2286451,9.618399,-0.91729254
82388301574778,-1.1927198,9.639954,-0.8598120000000001
82388321431163,-1.2406201000000001,9.604028999999999,-0.84065187
82388341287676,-1.2933106,9.601633999999999,-0.8646021
82388361144061,-1.3507911,9.575289,-0.87178713
82388380999500,-1.3651612,9.699829,-0.86939216
82388400856013,-1.3052857,9.733359,-0.86220706
82388420712526,-1.2765454,9.671089,-0.9388476999999998
82388440568911,-1.2837305,9.608819,-0.86939216
82388460425424,-1.3268408999999999,9.558523,-0.87178713
82388480276005,-1.3220508,9.594449000000001,-0.7927515
82388500132390,-1.2909156000000002,9.627979,-0.8310718
82388519988775,-1.3388159,9.687855,-0.9029224
82388539845160,-1.3364209999999999,9.699829,-0.87178713
82388559701545,-1.3100758,9.73815,-0.8933423
82388579557930,-1.2957056999999998,9.707015,-0.81191164
82388599403441,-1.2909156000000002,9.604028999999999,-0.8430469
82388619259698,-1.3292358999999998,9.606423,-0.86939216
82388639115955,-1.3004956,9.666299,-0.8478370000000001
82388658972084,-1.2813355,9.73815,-0.91729254
82388678820873,-1.2765454,9.798025,-0.9268726
82388698676874,-1.2406201000000001,9.697434,-0.90771246
82388718532853,-1.2094848999999999,9.584868,-0.9148975
82388738388854,-1.22625,9.584868,-0.90052736
82388758244855,-1.2789403999999998,9.611214,-0.92926764
82388778104150,-1.2597803,9.718989,-0.8669971
82388797960150,-1.2094848999999999,9.754914999999999,-0.90771246
82388817816279,-1.1879296999999998,9.740545,-0.9987232
82388837672278,-1.1927198,9.673484,-1.0011181999999998
82388857528278,-1.1615845,9.560919,-0.9053174
82388877384407,-1.1711646,9.608819,-0.90052736
82388897237456,-1.1208692,9.6615095,-0.81191164
82388917093456,-1.1256591999999999,9.616004,-0.98435307
82388936949457,-1.1951148999999999,9.659114,-0.94603276
82388956805456,-1.1448194,9.70941,-0.91729254
82388976663791,-1.0849438999999999,9.70941,-0.8646021
82388996519792,-1.101709,9.601633999999999,-0.90771246
82389016375791,-1.2118799999999998,9.651928999999999,-0.9627979
82389036231919,-1.2118799999999998,9.692644,-0.91010743
82389056087920,-1.2118799999999998,9.671089,-0.96040285
82389075941315,-1.2286451,9.659114,-0.9484278
82389095797315,-1.214275,9.644744000000001,-0.96040285
82389115653316,-1.1783496,9.683064,-0.9388476999999998
82389135509315,-1.1807446000000001,9.707015,-0.95561284
82389155365315,-1.2118799999999998,9.639954,-1.0418334999999999
82389175221316,-1.219065,9.630374,-1.0490186000000001
82389195074292,-1.2525953,9.671089,-1.0370435
82389214930164,-1.214275,9.740545,-0.9580079
82389234786037,-1.1903248,9.685459,-1.0442286
82389254641908,-1.2813355,9.520203,-1.0657837
82389274500504,-1.2645704,9.575289,-0.9364527
82389294356377,-1.1759547,9.678274,-0.7879615
82389314212248,-1.094524,9.695039999999999,-0.7807764
82389334068120,-1.1064991000000002,9.6758795,-0.8382569
82389353924121,-1.1280543,9.666299,-0.8262818000000001
82389373783260,-1.1424243,9.829161000000001,-0.8214916999999999
82389393639261,-1.089734,9.783655,-0.76401126
82389413495262,-1.094524,9.683064,-0.8430469
82389433351135,-1.1520045,9.685459,-0.81909674
82389453207136,-1.1543995,9.766891000000001,-0.81191164
82389473063137,-1.1999048,9.726174,-0.91250247
82389492927390,-1.1807446000000001,9.604028999999999,-0.93405765
82389512783519,-1.1663746000000002,9.580078,-1.0059083
82389532639520,-1.1639795,9.580078,-0.974773
82389552495649,-1.2310401000000002,9.575289,-1.0106983
82389572353588,-1.3196558,9.695039999999999,-0.92208254
82389592209717,-1.3196558,9.800421,-0.974773
82389612065846,-1.2573853000000002,9.685459,-1.0154883
82389631921975,-1.2358301999999999,9.570497999999999,-1.0514137
82389651778104,-1.2454101999999998,9.642349000000001,-0.8885523000000001
82389671634233,-1.1615845,9.599238,-0.91729254
82389691485316,-1.214275,9.637559,-1.0202783000000002
82389711341445,-1.2525953,9.699829,-1.0322535
82389731197446,-1.1879296999999998,9.742939999999999,-1.0011181999999998
82389751053428,-1.1208692,9.730965,-0.96040285
82389770909557,-1.1136841999999998,9.68067,-0.9316626
82389790778161,-1.1639795,9.520203,-1.0298585
82389810635625,-1.2406201000000001,9.551338000000001,-1.0514137
82389830492010,-1.2789403999999998,9.654325,-0.9580079
82389850348265,-1.1831397,9.673484,-0.9053174
82389870207520,-1.1735597,9.642349000000001,-0.96758795
82389890064033,-1.223855,9.639954,-0.9867481
82389909920544,-1.1879296999999998,9.663903999999999,-1.0130934
82389929777056,-1.1591895,9.759705,-0.8382569
82389949633569,-1.1352394,9.64714,-0.9316626
82389969490080,-1.2358301999999999,9.6686945,-0.96040285
82389989342790,-1.223855,9.673484,-0.85023195
82390009199175,-1.1543995,9.697434,-0.8933423
82390029055686,-1.1160791,9.685459,-0.87418216
82390048912198,-1.0753639,9.613608000000001,-1.0011181999999998
82390068768711,-1.1903248,9.654325,-0.96040285
82390088621454,-1.2454101999999998,9.651928999999999,-0.9029224
82390108477838,-1.2430152,9.570497999999999,-0.9532178
82390128334351,-1.2454101999999998,9.695039999999999,-0.9196875
82390148190734,-1.2118799999999998,9.7621,-0.92926764
82390168050904,-1.1855347,9.685459,-0.99393314
82390187907417,-1.2334352,9.570497999999999,-0.91250247
82390207763800,-1.2046948999999998,9.527389,-0.9053174
82390227620184,-1.1711646,9.594449000000001,-0.87418216
82390247476569,-1.1543995,9.608819,-0.91729254
82390267333080,-1.1807446000000001,9.726174,-0.92926764
82390287188305,-1.1903248,9.841136,-0.9244776
82390307044690,-1.1376343,9.83874,-0.8981324
82390326901073,-1.1280543,9.639954,-0.91010743
82390346757329,-1.1783496,9.503438000000001,-0.9316626
82390366613714,-1.2885206,9.541758999999999,-0.9436377
82390386475741,-1.2717555,9.72378,-0.86220706
82390406332254,-1.1903248,9.721385,-0.8861573
82390426188895,-1.1855347,9.649534,-0.9915381
82390446045404,-1.2118799999999998,9.685459,-1.0106983
82390465898295,-1.1711646,9.740545,-0.9268726
82390485754680,-1.223855,9.560919,-0.9268726
82390505611191,-1.3124708,9.575289,-0.9244776
82390525467575,-1.2861254999999998,9.678274,-0.90052736
82390545324088,-1.1975098,9.671089,-0.95561284
82390565180471,-1.1999048,9.70941,-0.9867481
82390585031668,-1.1783496,9.687855,-0.89573735
82390604888053,-1.1496094,9.6686945,-0.98435307
82390624744436,-1.2334352,9.630374,-0.9196875
82390644600820,-1.2717555,9.637559,-0.8909473
82390664457205,-1.2549903,9.704619000000001,-0.93405765
82390684306907,-1.1759547,9.683064,-0.8885523000000001
82390704163163,-1.1448194,9.613608000000001,-1.0035132
82390724019292,-1.1879296999999998,9.6615095,-0.9580079
82390743875547,-1.1687696,9.6686945,-0.8933423
82390763730840,-1.1783496,9.704619000000001,-0.9651929
82390783586969,-1.2046948999999998,9.678274,-0.9532178
82390803443096,-1.2430152,9.64714,-1.0083033000000001
82390823299225,-1.2094848999999999,9.74773,-0.87897223
82390843155482,-1.1543995,9.711803999999999,-0.87178713
82390863011611,-1.1903248,9.639954,-0.974773
82390882867267,-1.1903248,9.644744000000001,-0.94603276
82390902723396,-1.1472143999999997,9.649534,-0.91250247
82390922579523,-1.1567944,9.671089,-0.91729254
82390942435651,-1.1879296999999998,9.618399,-0.93405765
82390962291780,-1.2094848999999999,9.704619000000001,-0.9388476999999998
82390982149175,-1.2070899,9.759705,-0.89573735
82391002005303,-1.2358301999999999,9.695039999999999,-0.96758795
82391021861432,-1.2046948999999998,9.575289,-0.9388476999999998
82391041717559,-1.1400293,9.565708,-0.9196875
82391061573687,-1.1448194,9.6758795,-0.87897223
82391081429816,-1.1376343,9.740545,-0.9651929
82391101287973,-1.1855347,9.704619000000001,-0.97956306
82391121144229,-1.1352394,9.769285,-0.8981324
82391141000358,-1.1232642,9.64714,-0.8382569
82391160856613,-1.1160791,9.5489435,-0.9867481
82391180716473,-1.1999048,9.580078,-0.8669971
82391200572730,-1.1783496,9.716595,-0.87178713
82391220429113,-1.1520045,9.718989,-1.0106983
82391240285369,-1.1256591999999999,9.611214,-0.9436377
82391260141626,-1.1999048,9.635164,-0.9364527
82391279995498,-1.2022998,9.70941,-0.7831714
82391299851754,-1.1232642,9.606423,-0.8933423
82391319707883,-1.2382251,9.659114,-0.93405765
82391339564012,-1.2334352,9.64714,-0.8981324
82391359420266,-1.1783496,9.70941,-0.8909473
82391379276395,-1.1855347,9.807606,-0.7831714
82391399132577,-1.1663746000000002,9.599238,-0.8813671999999999
82391418988833,-1.214275,9.534574000000001,-1.0011181999999998
82391438845090,-1.214275,9.687855,-0.80233157
82391458701345,-1.1304493,9.695039999999999,-0.7759864000000001
82391478561587,-1.1376343,9.702225,-0.91010743
82391498417844,-1.1759547,9.589659,-0.87897223
82391518274229,-1.1831397,9.651928999999999,-1.0442286
82391538130486,-1.1927198,9.690249,-0.8478370000000001
82391557986871,-1.1567944,9.639954,-0.91729254
82391577836672,-1.2957056999999998,9.644744000000001,-0.9029224
82391597692801,-1.22625,9.541758999999999,-0.8646021
82391617548930,-1.2597803,9.493857,-0.98435307
82391637405059,-1.2813355,9.769285,-0.8765772
82391657261188,-1.1424243,9.977652,-0.8646021
82391677117317,-1.1136841999999998,9.833950999999999,-1.0130934
82391696975694,-1.2334352,9.441168,-1.0418334999999999
82391716831823,-1.2765454,9.551338000000001,-0.99393314
82391736687952,-1.1783496,9.7142,-0.7376661
82391756544069,-1.1903248,9.654325,-0.94603276
82391776405852,-1.3364209999999999,9.654325,-1.0059083
82391796262237,-1.2358301999999999,9.726174,-0.9364527
82391816118492,-1.1112891000000003,9.735755000000001,-1.0059083
82391835975466,-1.1376343,9.572892999999999,-1.0801538
82391855831851,-1.22625,9.524992999999998,-0.977168
82391875687516,-1.2885206,9.735755000000001,-0.7783814
82391895543772,-1.2358301999999999,9.702225,-0.89573735
82391915400157,-1.1687696,9.7142,-1.1136841999999998
82391935256412,-1.1352394,9.75252,-1.0873389
82391955112796,-1.0585986,9.592053,-1.0609937
82391974969053,-1.1496094,9.460327000000001,-1.1088941
82391994830568,-1.2741505,9.5489435,-0.94603276
82392014686952,-1.2573853000000002,9.656719,-0.9244776
82392034543465,-1.2478052,9.618399,-1.0178833
82392054399976,-1.2454101999999998,9.630374,-1.094524
82392074260022,-1.22625,9.807606,-1.0394385
82392094116535,-1.1520045,9.759705,-1.0538087
82392113973174,-1.1639795,9.6686945,-1.1352394
82392133829686,-1.2430152,9.733359,-1.0562036
82392153686199,-1.2717555,9.570497999999999,-0.9915381
82392173542838,-1.2741505,9.503438000000001,-1.0202783000000002
82392193353264,-1.2597803,9.577683,-0.974773
82392213209009,-1.1807446000000001,9.522598,-1.1208692
82392233064624,-1.1903248,9.498648,-1.096919
82392252920240,-1.2478052,9.527389,-0.98435307
82392272775985,-1.2549903,9.532178,-1.0011181999999998
82392292641724,-1.2478052,9.445957,-1.0394385
82392312497468,-1.346001,9.345366499999999,-1.0466236
82392332353213,-1.3220508,9.457932000000001,-0.8981324
82392352209084,-1.219065,9.350157000000001,-1.0202783000000002
82392372070003,-1.2885206,9.3309965,-1.0609937
82392391925748,-1.346001,9.405242,-0.9627979
82392411781619,-1.2382251,9.484278,-1.0873389
82392431637492,-1.1879296999999998,9.649534,-1.1041040000000002
82392451493365,-1.2645704,9.671089,-1.0777588
82392471349238,-1.3220508,9.620794,-1.0705738
82392491204415,-1.3172607,9.575289,-0.9627979
82392511060160,-1.3220508,9.623189,-0.98914313
82392530916033,-1.3483961000000002,9.553733,-1.0418334999999999
82392550771906,-1.3795313,9.390872,-1.101709
82392570627651,-1.3843212999999999,9.388477,-1.1041040000000002
82392590484792,-1.3172607,9.352551,-1.099314
82392610340665,-1.2478052,9.340575999999999,-1.1735597
82392630196410,-1.2765454,9.412427000000001,-1.1543995
82392650052283,-1.3436059999999999,9.505833,-1.2118799999999998
82392669913502,-1.4202466,9.5561285,-1.1711646
82392689769375,-1.3915064,9.546548,-1.0849438999999999
82392709625376,-1.334026,9.604028999999999,-1.1328443000000001
82392729481234,-1.2933106,9.587264,-1.1424243
82392749337107,-1.2957056999999998,9.407638,-1.0825489
82392769192978,-1.3699511999999998,9.376502,-1.0466236
82392789057877,-1.3962965,9.455538,-0.9867481
82392808914006,-1.2621753,9.5489435,-1.0753639
82392828770005,-1.1663746000000002,9.594449000000001,-1.1855347
82392848626133,-1.1472143999999997,9.448353,-1.1999048
82392868482134,-1.2334352,9.323812,-1.1352394
82392888344156,-1.3196558,9.448353,-1.0298585
82392908200284,-1.2693603999999998,9.448353,-1.0753639
82392928056541,-1.2597803,9.472302,-1.0442286
82392947912796,-1.3052857,9.546548,-1.0849438999999999
82392967774178,-1.3172607,9.596844,-1.094524
82392987630435,-1.2933106,9.599238,-1.0609937
82393007486690,-1.2885206,9.491463000000001,-0.9412427
82393027343074,-1.3004956,9.453142,-1.0226734
82393047199331,-1.3867163999999998,9.429193,-0.9915381
82393067055586,-1.4585668999999999,9.472302,-0.91729254
82393086909581,-1.4753321000000001,9.532178,-0.85741705
82393106765838,-1.4130616000000003,9.587264,-0.8262818000000001
82393126622093,-1.3076807,9.457932000000001,-0.8765772
82393146478478,-1.2621753,9.386082,-0.9148975
82393166334735,-1.3148658000000002,9.4507475,-0.8286768
82393186190326,-1.331631,9.433982,-0.8167017
82393206046582,-1.3436059999999999,9.400452,-0.76880133
82393225902839,-1.3364209999999999,9.441168,-0.79993653
82393245759094,-1.3555812,9.4507475,-0.81191164
82393265615350,-1.3651612,9.486672,-0.728086
82393285471607,-1.3603711,9.580078,-0.6610254
82393305332786,-1.3962965,9.604028999999999,-0.67539555
82393325189171,-1.3962965,9.524992999999998,-0.63707525
82393345045684,-1.4058765,9.496253,-0.6730005
82393364902069,-1.5040723,9.582474000000001,-0.68018556
82393384764280,-1.5088624,9.481883,-0.57001466
82393404620921,-1.4513819,9.517808,-0.38799320000000004
82393424477562,-1.4489869,9.75731,-0.2562671
82393444334075,-1.4441968,9.704619000000001,-0.24908204
82393464190716,-1.4082716,9.582474000000001,-0.34248779999999995
82393484054281,-1.3891114,9.577683,-0.30416748
82393503911050,-1.4585668999999999,9.580078,-0.1460962
82393523767819,-1.5208374,9.592053,0.13651612
82393543624588,-1.5423926000000001,9.654325,0.33290774
82393563481485,-1.5208374,9.800421,0.64186525
82393583338254,-1.3843212999999999,9.932146000000001,0.88376224
82393603197863,-1.3651612,10.023157000000001,0.9316626
82393623054760,-1.2597803,10.380015,0.88376224
82393642911785,-1.1999048,10.92608,0.8669971
82393662768682,-0.9915381,10.938055,0.76401126
82393682625707,-0.31374758,10.938055,1.6046631000000002
82393702492066,-0.026345216,9.934542,-1.8561403000000003
82393722349347,0.46942386,9.287886,-3.5110989000000004
82393742206607,-0.6825806,9.740545,0.50774413
82393762063760,-1.7531544,9.848321,1.7292042
82393781921041,-2.2489235,9.536968,2.4501052000000003
82393801753251,-1.3148658000000002,9.412427000000001,2.0094216
82393821609763,-0.12933107,9.697434,2.0716919999999996
82393841466147,0.26345217,10.015972,1.6118482
82393861319897,0.23710695,9.82437,1.5471827
82393881176281,0.050295413,9.067544,2.3519094
82393901040100,-0.49337405,8.351434,3.027305
82393920896740,-0.8478370000000001,7.762258500000001,3.5949244
82393940753380,-0.69216067,7.831714,3.7146754
82393960610020,-0.27542725,7.8915896,3.4799635
82393980466660,-0.14370118,7.937094999999999,3.5685792000000003
82394000321558,-0.17004639,8.047266,4.009263
82394020178198,-0.40715334,8.356223,4.1218286
82394040034838,-0.85023195,8.6077,4.375701
82394059891478,-0.61552006,8.533455,4.813989599999999
82394079748118,-0.7161109,8.583751,5.4175344
82394099598529,-0.26105714,8.339458,5.5468655
82394119455041,-0.4263135,8.190968,5.407954
82394139311553,-0.68976563,8.214917,5.635481400000001
82394159168065,-0.74006104,8.035291,6.231841
82394179024577,-0.79035646,7.783814,7.177873599999999
82394198878182,-0.9699829,7.568262,7.805369000000001
82394218734566,-1.3939015,7.824528999999999,6.854546000000001
82394238591079,-1.0011181999999998,9.242381,5.1612673
82394258447464,-0.22992188,12.906761,3.8823267999999995
82394278303846,-0.7232959,15.0431185,-0.6945557
82394298166873,-3.6045046000000003,12.947476,-2.562671
82394318023385,-2.7015822,7.2832546,1.3867163999999998
82394337879897,-2.663262,3.2668068,3.0704152999999996
82394357736409,-3.412903,5.6522464999999995,0.7424561
82394377593050,-3.4344582999999997,9.505833,-1.5423926000000001
82394397445947,-1.9687061000000001,10.332115,-3.1470559
82394417302460,0.0047900393,11.029065,-4.984036
82394437158845,3.0728102,11.805052,-2.0285816000000003
82394457015358,3.3697927000000005,11.737991000000001,1.9950514
82394476871871,0.14849122,10.459050999999999,0.29937744
82394496729084,-0.39996827,8.899892999999999,-0.3903882
82394516585597,-0.033530276,7.800578999999999,0.7664063
82394536442110,-0.38080812,8.023315,0.25147706
82394556298623,-0.7879615,8.868757,0.28979737
82394576155136,-0.30416748,9.999207,0.6682104999999999
82394596005699,0.6825806,10.202784,0.53169435
82394615862084,-0.19160157,9.410032000000001,0.47900394
82394635718597,-0.9148975,8.705896000000001,-0.22034179999999998
82394655574982,-1.0250684,8.452024,-0.29698244
82394675431495,-1.1639795,8.432864,0.26584718
82394695275892,-0.68018556,9.127419,-0.05748047
82394715132021,0.019160157,10.037527,0.24908204
82394734988150,0.7161109,11.508069,1.3436059999999999
82394754844279,0.6490503000000001,12.566668,1.4370118
82394774700518,-0.5987549,12.83491,1.5016773
82394794556346,-1.0130934,12.324771,0.76880133
82394814412474,-0.30895755,12.14275,-0.16765137
82394834268602,0.9963281999999999,12.569063,-0.86939216
82394854124730,1.4058765,13.428875,-0.46463382
82394873980730,0.25387207,12.008628999999999,-1.5399976
82394893831422,-2.3447242000000004,11.376344,0.3305127
82394913687294,-0.8310718,10.911710000000001,0.87897223
82394933543294,0.79035646,12.300821000000001,-2.9099487999999996
82394953399294,1.1879296999999998,12.976216,-3.6859352999999997
82394973255166,1.5591576999999999,12.14275,-1.2693603999999998
82394993114593,3.1542407999999997,12.250525,0.44547364
82395012970593,3.5853443,11.663746000000002,1.9878663
82395032826593,2.4022048,9.414823,1.5543678
82395052682465,1.7794994999999998,8.466394000000001,-1.0609937
82395072538465,1.5256275,7.92512,-5.2019825
82395092393362,1.5783178999999998,6.998247,-7.975414999999999
82395112249362,1.6070582,6.1408305,-5.609136
82395132105362,-1.477727,6.8162259999999995,-1.5160475
82395151961362,-3.6284547,5.973179,2.1124072
82395171817234,-4.591253,6.1767554,1.8010547
82395191672890,-4.9457154,6.569539,1.1999048
82395211528762,-3.7601807000000003,7.407796,1.583108
82395231384762,-2.8213332,8.495134,0.5029541000000001
82395251240634,-1.583108,9.096285,1.1855347
82395271096634,-2.2872437999999997,9.707015,3.4703834000000002
82395290961791,-3.5206788,11.472144,6.3132715
82395310817919,-0.17962648,14.6192,15.560443
82395330674047,5.728887,12.032577999999999,10.624307
82395350530175,7.999366,6.5192432,-4.0882983
82395370386304,5.918093700000001,8.983719,-3.6883302000000002
82395390242335,2.3878345000000003,13.840817999999999,-6.3970975999999995
82395410098464,-4.768484,17.435743,-7.403005599999999
82395429954593,-8.466394000000001,13.495935000000001,4.670287999999999
82395449810722,1.1520045,6.3132715,5.0774417000000005
82395469666851,-0.6011499,7.9538603000000005,-7.8412942999999995
82395489516414,0.5556446,9.826766000000001,-8.993299
82395509372415,-0.16765137,11.845767,-6.236631
82395529228416,-2.308799,12.937896,0.9388476999999998
82395549084417,-1.9663111,11.529625,4.6607084
82395568940546,0.24668702,8.923843,-1.4609618999999998
82395588796547,1.4322218,7.565867,-2.699187
82395608648726,-1.5974781999999998,9.754914999999999,0.2083667
82395628504727,-2.1076174,10.621912,0.5388794
82395648360600,-2.694397,9.026829,0.3281177
82395668216601,-2.8548633999999997,8.499925,0.11496094
82395688072474,-2.2513185,8.962164,0.89573735
82395707931223,-0.38559815,9.956097,0.56522465
82395727787224,0.5340894,10.224339,0.74006104
82395747643225,0.6011499,9.82437,1.219065
82395767499098,0.43110353,10.193204,-0.76401126
82395787355078,-0.18681154,10.516531,0.6658155
82395807194720,0.07424561,10.351274499999999,4.253555
82395827050336,0.20357667,9.716595,3.8296362999999998
82395846905952,-1.9902613,10.190808,-1.1879296999999998
82395866761471,-4.361331,15.807129999999999,-4.893025
82395886617215,-0.3161426,14.770086,-4.648733
82395906476214,2.308799,13.481565,-1.839375
82395926331958,4.629573000000001,12.413386000000001,-1.8872755
82395946187830,3.1255007000000004,12.612173,-1.7411792000000001
82395966043574,2.6273365,15.091019000000001,4.4547367
82395985899318,0.84544194,14.980847,6.844966
82396005718838,-2.1842580000000003,11.802657,-0.5221143
82396025573942,0.92208254,8.871153,-7.870034700000001
82396045429046,2.548301,7.144343400000001,-8.978928999999999
82396065284022,3.5757644,7.0796779999999995,-5.865403
82396085139126,2.1028273,6.488108,-1.5328126
82396105010608,-3.0033545,6.885681599999999,2.0932472
82396124865968,-6.0833497,7.235354400000001,1.705254
82396144721328,-4.9313455,7.0365677,-0.16525635
82396164576560,-3.8703517999999995,6.5048733,1.4082716
82396184431920,-3.6955154,6.1504107,2.8524685
82396204299751,-2.9865894,7.201824,3.1039455
82396224155239,-1.101709,8.938213000000001,2.799778
82396244010727,0.5005590999999999,9.410032000000001,4.26074
82396263866343,-0.050295413,9.860296,7.896380000000001
82396283721831,3.9110669999999996,10.708133,12.135565
82396303585393,10.993139999999999,7.702383,3.5805542
82396323441009,10.653048,7.654483,-8.150250999999999
82396343296625,5.951624,11.620635,-3.1949563
82396363152114,2.4093897,14.906602,-2.4069947999999997
82396383007731,-8.5119,19.44277,-1.3388159
82396402877738,-15.433507,11.632610000000001,8.349038
82396422733611,-5.4438796,1.6980689999999998,0.19878663
82396442589484,-1.8106349,4.5720925,-5.0558863
82396462445485,-3.0656252,10.413546,-5.5875807
82396482301358,-1.0059083,13.172607999999999,-9.362132
82396502160795,2.9698243,12.228971000000001,-6.868916499999999
82396522016668,2.5267458,11.167976,4.3709106
82396541872541,-0.69216067,10.166859,8.320298
82396561728542,-0.28500733,7.745493400000001,-0.9484278
82396581584415,-0.51971924,7.8868,-0.7807764
82396601446406,-1.2933106,9.381292,0.5484595
82396621302407,-1.0011181999999998,9.874666,0.42870852
82396641158536,-1.1136841999999998,9.6758795,0.3161426
82396661014665,-1.1280543,9.448353,0.9867481
82396680870794,-0.59156984,10.068663,1.7555493999999998
82396700737393,-0.15088624,10.427916,1.7579445
82396720593778,0.081430666,10.502161,-0.27303225
82396740450016,0.23471193,10.33451,0.098195806
82396760306272,0.5125342,10.418335,1.5639478
82396780162656,0.85023195,10.899734500000001,0.2921924
82396800032126,1.0370435,12.418177,-1.1496094
82396819888766,-0.73048097,12.228971000000001,-0.66342044
82396839745406,-2.4836354,11.235037,0.87178713
82396859602046,-5.285808599999999,11.158397,2.9770092999999997
82396879458686,-4.5720925,10.178833000000001,-1.0753639
82396899321647,-3.032095,9.908196,-4.976851
82396919178543,-2.562671,11.024275999999999,-2.8859987
82396939035439,-2.3255641,11.455378999999999,-0.488584
82396958892207,-0.98914313,11.378738,1.8609301999999999
82396978749103,-0.50774413,10.195599000000001,2.799778
82396998611942,-0.22034179999999998,8.787327000000001,0.31374758
82397018469094,-1.3531861,7.683223,-1.9471509999999999
82397038326118,-1.6908839,6.974297,-0.6059399999999999
82397058183270,-1.0154883,6.67013,-0.3161426
82397078040422,-1.456172,7.8484793,-0.79754156
82397097891657,-1.1903248,6.447393,0.7927515
82397117748681,-1.5208374,4.5170069999999996,1.1951148999999999
82397137605705,-2.2201831000000003,5.635481400000001,0.34248779999999995
82397157462730,-1.4130616000000003,7.4556960000000005,-0.5364844
82397177319755,-0.3544629,9.036408999999999,-0.98914313
82397197173184,-0.15328126,9.929751,0.58677983
82397217030208,0.26584718,11.433824000000001,4.1314087
82397236887232,0.8861573,13.462404999999999,10.238708500000001
82397256744256,-0.045505375,12.154725,8.186177
82397276601280,-0.22034179999999998,10.722503,-2.0860621999999998
82397296458925,-0.3544629,10.269844,-6.840176
82397316316206,-1.8274,10.550061,-3.8751419
82397336173359,-3.4248781000000004,10.324929,-2.179468
82397356030512,-2.0429518,9.338181500000001,1.5447876
82397375887661,-2.3590944,8.466394000000001,5.8175025
82397395736162,-3.1039455,8.823253,1.3172607
82397415593058,1.9208057,8.847202000000001,-0.8813671999999999
82397435450082,1.5016773,13.536651,-1.3867163999999998
82397455306978,0.51971924,15.119759,-2.0142113999999998
82397475163874,0.31135255,12.552298,-0.65384036
82397495018246,-0.6658155,9.996812,0.7232959
82397514875142,-1.5399976,8.849598,0.4023633
82397534732166,-2.4045997000000003,8.226892,-0.7544312
82397554589062,-1.4034815,8.138277,-1.3364209999999999
82397574445958,-0.39278322,8.717872,-1.7962648
82397594278217,0.098195806,9.584868,-0.9316626
82397614134345,-0.34727785,10.162068,0.77359134
82397633990473,-0.46942386,10.720108,0.3784131
82397653846473,-0.62749517,10.784774,0.21555176
82397673702601,-1.3651612,10.157278,0.51732427
82397693563067,-1.7747096000000002,9.572892999999999,-0.047900394000000006
82397713419323,-1.6932789000000001,9.479486999999999,-0.7783814
82397733275451,-1.0777588,9.465117,-0.8214916999999999
82397753131579,-0.71371585,9.489068,-0.84544194
82397772987707,-1.1472143999999997,10.035132,-0.2921924
82397792851454,-1.9279908,10.490186,1.1615845
82397812707711,-2.2680835999999998,9.855506,1.8609301999999999
82397832564094,-2.3255641,10.013577,1.710044
82397852420350,-1.6525636000000001,10.219549,-0.14849122
82397872275930,-0.76401126,10.648257000000001,-2.078877
82397892137367,-0.37122804,10.351274499999999,-3.0153298
82397911993751,0.19639161,9.999207,-2.9458742
82397931850263,-0.1580713,9.608819,-1.3891114
82397951706647,-2.0549269,9.551338000000001,0.44786867
82397971563031,-2.9171337999999998,9.527389,1.1735597
82397991428052,-1.8729054,9.584868,1.6190332
82398011284692,-1.2765454,10.327325,0.7041358
82398031141332,-0.8478370000000001,10.303374,-0.50534916
82398050997844,-1.0298585,10.097403,-1.0442286
82398070854484,-1.1304493,9.764495,-1.3148658000000002
82398090710283,-0.6322852,9.422008,-1.8250049
82398110566795,-1.6932789000000001,9.536968,-0.71371585
82398130423435,-2.2513185,9.795630000000001,0.19160157
82398150280075,-2.1962330000000003,9.848321,0.2562671
82398170136587,-1.9327808999999998,9.946517,0.13891114
82398189993410,-1.5136524,10.212363,0.17962648
82398209850050,-1.0250684,10.250684,-0.38080812
82398229706562,-0.30177248,9.64714,-1.2406201000000001
82398249563075,-0.1341211,9.422008,-1.9758912
82398269419716,-0.7089258,9.718989,-1.5663428
82398289279009,-1.3364209999999999,10.030342,-0.5460645000000001
82398309135649,-1.0418334999999999,10.243499,-0.05508545
82398328992289,-1.0130934,10.406361,-0.12933107
82398348848929,-1.5639478,10.095008,0.009580079
82398368705569,-1.9351758999999997,9.783655,-0.10538086
82398388566085,-1.8968556,9.656719,-0.2682422
82398408422982,-1.2909156000000002,10.003997,-0.6394701999999999
82398428279751,-0.8669971,10.248289,-0.45744875
82398448136648,-0.9148975,9.814791,-0.1580713
82398467993417,-1.1615845,9.721385,-0.40715334
82398487848240,-1.3579761000000001,9.901011,-0.5364844
82398507705009,-1.7244141,10.150093,-0.18441652
82398527561906,-1.8010547,10.435101,0.14849122
82398547418675,-1.590293,10.653048,0.081430666
82398567275572,-1.6717237,10.875784,0.69695073
82398587125135,-1.8058448,11.062595,1.3004956
82398606981904,-1.223855,10.631492999999999,0.9196875
82398626838673,-0.20118165,10.162068,-0.016765138
82398646695314,0.7831714,9.929751,-1.3651612
82398666552083,0.87178713,9.388477,-2.430945
82398686396736,0.05748047,7.9347,-1.6118482
82398706253249,-1.7220191000000002,7.335945,0.5221143
82398726109762,-3.6811452000000005,9.369317,1.6813037
82398745966147,-3.027305,9.68067,0.45984375
82398765822642,-2.3543043,9.501043,-0.5891748
82398785673173,-1.4394068000000002,9.82437,-0.68018556
82398805529429,-0.4143384,9.8866415,-0.5604346
82398825385813,-1.0083033000000001,9.515413,0.35685793
82398845242069,-1.5376027,9.139395,0.6514453
82398865098453,-1.4034815,8.974138,-0.7041358
82398884946797,-1.4274316999999999,9.83874,-0.8047266
82398904802925,-1.4058765,11.249407000000001,-0.2682422
82398924659053,-1.4394068000000002,11.61345,0.2921924
82398944515181,-1.6549585999999998,10.784774,0.6227050999999999
82398964371309,-1.6357985000000002,9.654325,0.06466553
82398984227522,-1.4992822000000001,9.17053,-0.48618898
82399004083522,-1.3579761000000001,9.206455,-0.49337405
82399023939650,-1.0011181999999998,9.486672,-0.41194338
82399043795778,-0.89573735,9.7142,-0.4047583
82399063651778,-1.0609937,9.963282000000001,-0.26345217
82399083507906,-1.2813355,10.051897,-0.14370118
82399103353390,-1.3771361999999998,9.877061,-0.244292
82399123209262,-1.3747413,9.699829,-0.51971924
82399143065134,-1.4322218,9.517808,-0.76401126
82399162921007,-1.3939015,9.436378,-0.7783814
82399182776752,-1.2909156000000002,9.522598,-0.73527104
82399202631293,-1.2286451,9.644744000000001,-0.5843848
82399222487037,-1.1807446000000001,9.798025,-0.51492923
82399242342781,-1.2813355,9.7740755,-0.50534916
82399262198397,-1.3148658000000002,9.671089,-0.5843848
82399282054141,-1.3028906999999998,9.673484,-0.7783814
82399301915322,-1.3531861,9.726174,-0.9388476999999998
82399321771067,-1.3771361999999998,9.70941,-1.0202783000000002
82399341626812,-1.4010864,9.759705,-0.9244776
82399361482557,-1.4082716,9.565708,-0.7376661
82399381338430,-1.4154567,9.608819,-0.7065308000000001
82399401199891,-1.5040723,9.707015,-0.732876
82399421055764,-1.4801221000000002,9.82437,-0.80712163
82399440911637,-1.4058765,9.81958,-0.8981324
82399460767510,-1.2861254999999998,9.821976,-0.8885523000000001
82399480623383,-1.2022998,9.6686945,-0.90771246
82399500488830,-1.1711646,9.560919,-0.95561284
82399520344831,-1.22146,9.496253,-0.9963281999999999
82399540200960,-1.2286451,9.520203,-1.0538087
82399560056961,-1.3076807,9.589659,-1.1280543
82399579913090,-1.3915064,9.6686945,-1.1711646
82399599774125,-1.3148658000000002,9.733359,-1.1687696
82399619630254,-1.2861254999999998,9.666299,-1.1615845
82399639486511,-1.3292358999999998,9.539363,-1.1783496
82399659342640,-1.3891114,9.486672,-1.2166698999999999
82399679198897,-1.4250367,9.613608000000001,-1.2286451
82399699061834,-1.4489869,9.687855,-1.1543995
82399718918091,-1.4370118,9.750125,-1.094524
82399738774455,-1.456172,9.704619000000001,-1.1807446000000001
82399758630711,-1.4729371,9.570497999999999,-1.2310401000000002
82399778487095,-1.4705421,9.510622999999999,-1.2741505
82399798346478,-1.5112573999999999,9.441168,-1.2525953
82399818202862,-1.5160475,9.539363,-1.2885206
82399838059374,-1.477727,9.637559,-1.334026
82399857915758,-1.5615528,9.687855,-1.2789403999999998
82399877770915,-1.5232325,9.659114,-1.2717555
82399897628408,-1.453777,9.625584,-1.2382251
82399917484920,-1.4394068000000002,9.536968,-1.2957056999999998
82399937341432,-1.4226416000000002,9.515413,-1.3555812
82399957197944,-1.4106666,9.536968,-1.3651612
82399977054456,-1.4825171,9.594449000000001,-1.2933106
82399996916143,-1.4489869,9.6758795,-1.2645704
82400016772911,-1.5471827,9.663903999999999,-1.2070899
82400036629551,-1.5232325,9.635164,-1.2621753
82400056486191,-1.5399976,9.534574000000001,-1.2525953
82400076342959,-1.456172,9.486672,-1.3579761000000001
82400096197868,-1.4609618999999998,9.546548,-1.3651612
82400116054636,-1.456172,9.70941,-1.4010864
82400135911277,-1.463357,9.74773,-1.4154567
82400155768044,-1.4322218,9.6615095,-1.3172607
82400175624684,-1.5064673000000002,9.5561285,-1.22625
82400195460192,-1.4489869,9.484278,-1.3388159
82400215316448,-1.4753321000000001,9.4507475,-1.3364209999999999
82400235172832,-1.3867163999999998,9.565708,-1.3891114
82400255029088,-1.3651612,9.606423,-1.2957056999999998
82400274885473,-1.3555812,9.642349000000001,-1.3100758
82400294743180,-1.3843212999999999,9.687855,-1.3244458000000001
82400314599565,-1.4346168,9.745335,-1.1903248
82400334455822,-1.334026,9.599238,-1.2358301999999999
82400354312079,-1.2981006000000002,9.489068,-1.3196558
82400374168464,-1.3220508,9.5489435,-1.3603711
82400394023597,-1.3507911,9.580078,-1.2478052
82400413879854,-1.3795313,9.546548,-1.2454101999999998
82400433736111,-1.331631,9.565708,-1.2693603999999998
82400453592368,-1.2573853000000002,9.639954,-1.2765454
82400473448625,-1.2645704,9.625584,-1.2693603999999998
82400493302736,-1.3244458000000001,9.678274,-1.2741505
82400513158865,-1.3723463,9.649534,-1.1831397
82400533014994,-1.2957056999999998,9.584868,-1.223855
82400552871251,-1.2454101999999998,9.596844,-1.2094848999999999
82400572727380,-1.3483961000000002,9.639954,-1.2717555
82400592573373,-1.2861254999999998,9.589659,-1.3076807
82400612429374,-1.2430152,9.520203,-1.0921290000000001
82400632285375,-1.2837305,9.620794,-1.094524
82400652141248,-1.2502003000000002,9.72857,-1.1951148999999999
82400671997249,-1.1879296999999998,9.695039999999999,-1.219065
82400691841874,-1.1807446000000001,9.560919,-1.2166698999999999
82400711697491,-1.2286451,9.565708,-1.1520045
82400731553086,-1.2669654,9.627979,-1.1472143999999997
82400751408703,-1.1807446000000001,9.644744000000001,-1.1711646
82400771264318,-1.1855347,9.582474000000001,-1.1448194
82400791125962,-1.22625,9.632769,-1.2334352
82400810981706,-1.1999048,9.654325,-1.2597803
82400830837450,-1.2022998,9.639954,-1.22625
82400850693066,-1.2454101999999998,9.601633999999999,-1.2286451
82400870548810,-1.2693603999999998,9.479486999999999,-1.1639795
82400890399873,-1.2573853000000002,9.553733,-1.2597803
82400910255361,-1.2861254999999998,9.671089,-1.3004956
82400930110977,-1.2382251,9.7812605,-1.2957056999999998
82400949966593,-1.2094848999999999,9.778865,-1.2478052
82400969822209,-1.2669654,9.584868,-1.1591895
82400989684274,-1.2765454,9.474698,-1.2382251
82401009539890,-1.334026,9.498648,-1.3244458000000001
82401029395634,-1.2502003000000002,9.544153,-1.2813355
82401049251250,-1.2166698999999999,9.649534,-1.2837305
82401069106994,-1.2525953,9.730965,-1.2957056999999998
82401088967011,-1.2957056999999998,9.707015,-1.2741505
82401108822755,-1.4010864,9.599238,-1.2957056999999998
82401128678627,-1.4250367,9.589659,-1.4154567
82401148534371,-1.3771361999999998,9.307046000000001,-1.3172607
82401168390116,-1.3843212999999999,9.477093,-1.4250367
82401188254101,-1.3651612,9.70941,-1.4441968
82401208110100,-1.3747413,9.656719,-1.3795313
82401227965973,-1.3675561999999999,9.630374,-1.463357
82401247821972,-1.3675561999999999,9.592053,-1.3867163999999998
82401267677844,-1.3699511999999998,9.553733,-1.334026
82401287541645,-1.3292358999999998,9.517808,-1.3388159
82401307397901,-1.3148658000000002,9.496253,-1.4178516
82401327254030,-1.3052857,9.570497999999999,-1.4992822000000001
82401347110159,-1.2478052,9.759705,-1.4178516
82401366966288,-1.331631,9.769285,-1.2885206
82401386830577,-1.3651612,9.68067,-1.3100758
82401406686962,-1.2717555,9.486672,-1.3220508
82401426543347,-1.1400293,9.369317,-1.4465919
82401446399732,-1.1735597,9.481883,-1.6286133999999999
82401466255989,-1.1831397,9.589659,-1.5639478
82401486117840,-1.1687696,9.695039999999999,-1.4226416000000002
82401505974353,-1.2430152,9.745335,-1.346001
82401525830866,-1.2861254999999998,9.685459,-1.3675561999999999
82401545687251,-1.2382251,9.608819,-1.453777
82401565543764,-1.1903248,9.462723,-1.4178516
82401585400277,-1.2334352,9.424402,-1.3388159
82401605263586,-1.1160791,9.541758999999999,-1.3939015
82401625120227,-1.0681788,9.654325,-1.4322218
82401644976996,-1.0873389,9.74773,-1.5591576999999999
82401664833637,-1.2310401000000002,9.73815,-1.4897022
82401684690406,-1.3124708,9.68067,-1.2597803
82401704549551,-1.1999048,9.594449000000001,-1.2286451
82401724406448,-1.2406201000000001,9.469908,-1.334026
82401744263197,-1.2525953,9.599238,-1.6310083999999998
82401764119965,-1.2741505,9.663903999999999,-1.5088624
82401783976861,-1.2454101999999998,9.721385,-1.3148658000000002
82401803828016,-1.2645704,9.5561285,-1.3364209999999999
82401823684656,-1.2693603999999998,9.467513,-1.4753321000000001
82401843541296,-1.2358301999999999,9.489068,-1.6094532
82401863397936,-1.22625,9.560919,-1.4992822000000001
82401883254896,-1.2813355,9.627979,-1.3675561999999999
82401903110471,-1.2957056999999998,9.656719,-1.3986914
82401922967111,-1.3244458000000001,9.683064,-1.4705421
82401942823751,-1.223855,9.817185,-1.5639478
82401962680391,-1.2382251,9.623189,-1.2765454
82401982537159,-1.1903248,9.536968,-1.3915064
82402002395762,-1.2525953,9.465117,-1.4178516
82402022252530,-1.2382251,9.544153,-1.5639478
82402042109170,-1.2885206,9.635164,-1.4873072
82402061965938,-1.2334352,9.649534,-1.4202466
82402081822706,-1.2454101999999998,9.592053,-1.3627661
82402101681205,-1.22625,9.601633999999999,-1.5160475
82402121538101,-1.3292358999999998,9.544153,-1.5376027
82402141394870,-1.2382251,9.539363,-1.4729371
82402161251767,-1.2358301999999999,9.604028999999999,-1.4130616000000003
82402181108664,-1.2430152,9.663903999999999,-1.3867163999999998
82402200961319,-1.2358301999999999,9.663903999999999,-1.587898
82402220818088,-1.2693603999999998,9.580078,-1.4465919
82402240674723,-1.1591895,9.565708,-1.4298267
82402260531491,-1.2118799999999998,9.632769,-1.3244458000000001
82402280388259,-1.089734,9.671089,-1.3723463
82402300247355,-1.1088941,9.6615095,-1.4226416000000002
82402320103995,-1.1520045,9.503438000000001,-1.3795313
82402339960763,-1.1639795,9.632769,-1.3915064
82402359817403,-1.1663746000000002,9.625584,-1.3196558
82402379674172,-1.1280543,9.656719,-1.3675561999999999
82402399531611,-1.219065,9.656719,-1.4202466
82402419388380,-1.2597803,9.604028999999999,-1.4513819
82402439245149,-1.3052857,9.68067,-1.4873072
82402459101918,-1.3364209999999999,9.582474000000001,-1.3052857
82402478958687,-1.2166698999999999,9.560919,-1.3052857
82402498806362,-1.0562036,9.505833,-1.331631
82402518662875,-1.0274634,9.534574000000001,-1.4058765
82402538519388,-1.1352394,9.726174,-1.4489869
82402558375901,-1.1663746000000002,9.75252,-1.3364209999999999
82402578232414,-1.1687696,9.764495,-1.2525953
82402598078815,-1.2382251,9.601633999999999,-1.1400293
82402617935200,-1.1903248,9.524992999999998,-1.2406201000000001
82402637791457,-1.1807446000000001,9.505833,-1.2693603999999998
82402657647842,-1.1208692,9.575289,-1.2885206
82402677504227,-1.0753639,9.534574000000001,-1.2717555
82402697352664,-1.1543995,9.613608000000001,-1.22625
82402717208793,-1.3052857,9.80521,-1.2909156000000002
82402737064903,-1.4178516,9.788445,-1.2669654
82402756921031,-1.3723463,9.489068,-1.3028906999999998
82402776777159,-1.4058765,9.402847,-1.2837305
82402796637657,-1.3651612,9.467513,-1.3915064
82402816493913,-1.2837305,9.5489435,-1.4465919
82402836350041,-1.219065,9.666299,-1.3507911
82402856206297,-1.1615845,9.795630000000001,-1.1927198
82402876062553,-1.099314,9.72378,-0.974773
82402895917206,-1.0801538,9.582474000000001,-1.0538087
82402915773334,-1.0801538,9.496253,-1.1999048
82402935629590,-1.089734,9.577683,-1.2813355
82402955485718,-1.1112891000000003,9.673484,-1.22146
82402975341846,-1.2046948999999998,9.7621,-1.1663746000000002
82402995199565,-1.2118799999999998,9.83874,-1.1975098
82403015055821,-1.1615845,9.7142,-1.1927198
82403034911949,-1.1831397,9.524992999999998,-1.1999048
82403054768205,-1.1927198,9.419611999999999,-1.2597803
82403074624333,-1.2334352,9.529783,-1.2765454
82403094470953,-1.214275,9.711803999999999,-1.2957056999999998
82403114326954,-1.2286451,9.692644,-1.1663746000000002
82403134182955,-1.2286451,9.6686945,-1.22146
82403154038953,-1.2813355,9.68067,-1.219065
82403173894953,-1.2166698999999999,9.606423,-1.2621753
82403193753828,-1.1663746000000002,9.493857,-1.1951148999999999
82403213609828,-1.1543995,9.481883,-1.2430152
82403233465828,-1.1927198,9.594449000000001,-1.3220508
82403253321956,-1.2070899,9.7812605,-1.3603711
82403273177956,-1.2286451,9.750125,-1.219065
82403293036027,-1.22146,9.64714,-1.0825489
82403312892156,-1.2382251,9.565708,-1.1424243
82403332748157,-1.2358301999999999,9.510622999999999,-1.2957056999999998
82403352604286,-1.2286451,9.584868,-1.3603711
82403372460287,-1.2693603999999998,9.649534,-1.2478052
82403392313318,-1.3052857,9.695039999999999,-1.219065
82403412169319,-1.2981006000000002,9.644744000000001,-1.2118799999999998
82403432025320,-1.3052857,9.589659,-1.2478052
82403451881321,-1.3220508,9.539363,-1.219065
82403471736170,-1.2909156000000002,9.580078,-1.2717555
82403491592043,-1.3244458000000001,9.589659,-1.2310401000000002
82403511448044,-1.3004956,9.651928999999999,-1.2741505
82403531303917,-1.3412110000000002,9.637559,-1.1759547
82403551159918,-1.3028906999999998,9.74773,-1.2478052
82403571015791,-1.3651612,9.718989,-1.219065
82403590868548,-1.3028906999999998,9.599238,-1.2406201000000001
82403610724421,-1.3531861,9.472302,-1.1520045
82403630580294,-1.3124708,9.560919,-1.1615845
82403650436039,-1.2837305,9.565708,-1.2286451
82403670291912,-1.2430152,9.601633999999999,-1.3172607
82403690151663,-1.3028906999999998,9.620794,-1.2549903
82403710007664,-1.2813355,9.659114,-1.1855347
82403729863537,-1.3076807,9.651928999999999,-1.2430152
82403749719390,-1.3412110000000002,9.702225,-1.1687696
82403769587923,-1.2909156000000002,9.625584,-1.1975098
82403789444052,-1.2813355,9.64714,-1.1400293
82403809300306,-1.2885206,9.618399,-1.22146
82403829156434,-1.2717555,9.618399,-1.22146
82403849012563,-1.2525953,9.520203,-1.1711646
82403868868690,-1.2789403999999998,9.477093,-1.1208692
82403888729077,-1.2909156000000002,9.594449000000001,-1.2334352
82403908585462,-1.2597803,9.692644,-1.2358301999999999
82403928441845,-1.2430152,9.718989,-1.2166698999999999
82403948298229,-1.2717555,9.671089,-1.1831397
82403968154742,-1.3244458000000001,9.601633999999999,-1.1160791
82403988012905,-1.3100758,9.623189,-1.1687696
82404007869417,-1.3124708,9.599238,-1.0801538
82404027725930,-1.2861254999999998,9.656719,-1.1208692
82404047582441,-1.2597803,9.673484,-1.1424243
82404067438679,-1.2310401000000002,9.639954,-1.2022998
82404087295192,-1.3244458000000001,9.577683,-1.1543995
82404107151703,-1.2933106,9.529783,-1.099314
82404127008215,-1.2909156000000002,9.541758999999999,-1.0585986
82404146864728,-1.2861254999999998,9.606423,-1.1160791
82404166721239,-1.3076807,9.7621,-1.1927198
82404186580372,-1.2765454,9.821976,-1.1496094
82404206436885,-1.2789403999999998,9.798025,-1.1041040000000002
82404226293396,-1.2717555,9.558523,-1.0154883
82404246149908,-1.2813355,9.426797,-1.0729688
82404266006421,-1.3436059999999999,9.410032000000001,-1.0873389
82404285857517,-1.2669654,9.568104,-1.1304493
82404305713901,-1.1999048,9.7142,-1.1376343
82404325570286,-1.1879296999999998,9.778865,-1.0849438999999999
82404345426669,-1.2094848999999999,9.72857,-1.1472143999999997
82404365283181,-1.2693603999999998,9.711803999999999,-1.1472143999999997
82404385139566,-1.3244458000000001,9.68067,-1.0035132
82404404992279,-1.2885206,9.515413,-0.90771246
82404424848663,-1.2813355,9.508227999999999,-1.0226734
82404444705048,-1.1999048,9.627979,-1.2454101999999998
82404464561559,-1.1304493,9.745335,-1.2909156000000002
82404484415497,-1.223855,9.702225,-1.0873389
82404504271882,-1.2406201000000001,9.695039999999999,-0.9867481
82404524128265,-1.3436059999999999,9.616004,-0.98914313
82404543984649,-1.3244458000000001,9.5561285,-1.2478052
82404563841034,-1.22146,9.508227999999999,-1.2046948999999998
82404583690267,-1.1663746000000002,9.541758999999999,-1.1280543
82404603546523,-1.1615845,9.6758795,-1.1951148999999999
82404623402780,-1.1208692,9.788445,-1.2286451
82404643259035,-1.1663746000000002,9.788445,-1.1783496
82404663115291,-1.2406201000000001,9.613608000000001,-1.1424243
82404682971676,-1.2549903,9.4507475,-1.1496094
82404702777914,-1.1903248,9.546548,-1.1951148999999999
82404722633146,-1.214275,9.632769,-1.1088941
82404742488379,-1.1663746000000002,9.699829,-1.1759547
82404762343610,-1.1759547,9.6686945,-1.1687696
82404782211392,-1.1903248,9.74773,-1.1543995
82404802066881,-1.1352394,9.663903999999999,-1.1256591999999999
82404821922240,-1.1160791,9.546548,-1.0825489
82404841777728,-1.2430152,9.515413,-1.1424243
82404861633089,-1.2358301999999999,9.606423,-1.1999048
82404881495805,-1.2478052,9.6758795,-1.1615845
82404901351293,-1.1831397,9.72857,-1.1496094
82404921206782,-1.094524,9.673484,-1.094524
82404941062397,-1.1208692,9.544153,-1.1064991000000002
82404960917885,-1.1735597,9.577683,-1.1855347
82404980773374,-1.2621753,9.639954,-1.0873389
82405000634287,-1.1520045,9.73815,-1.1232642
82405020489775,-1.2334352,9.6615095,-1.1711646
82405040345392,-1.1639795,9.604028999999999,-1.2454101999999998
82405060200879,-1.1567944,9.575289,-1.1400293
82405080062560,-1.2597803,9.5633135,-1.0538087
82405099918177,-1.2502003000000002,9.627979,-1.2310401000000002
82405119773792,-1.2669654,9.649534,-1.1520045
82405139629408,-1.2022998,9.699829,-1.2046948999999998
82405159485025,-1.2765454,9.656719,-1.1903248
82405179340640,-1.2525953,9.630374,-1.22625
82405199204052,-1.2478052,9.649534,-1.1160791
82405219059669,-1.2382251,9.577683,-1.0585986
82405238915412,-1.2861254999999998,9.572892999999999,-1.1543995
82405258771028,-1.1903248,9.625584,-1.331631
82405278626773,-1.2597803,9.604028999999999,-1.1951148999999999
82405298490627,-1.2286451,9.649534,-1.214275
82405318346499,-1.2765454,9.604028999999999,-1.0657837
82405338202244,-1.3100758,9.616004,-1.2046948999999998
