UPTIMENANO,Ax,Ay,Az
82351507743322,0.31627527,-3.5092115,10.664607
82351527599322,-0.26479512,-1.2383221,10.099788
82351547455451,-0.44408467,-0.0758233,10.524818
82351567314620,-0.12180204,-0.59440476,10.900829
82351587170748,0.26778036,-1.5319991,10.743709
82351607026877,0.3268089,-1.8990142,10.211116
82351626880688,0.31518716,-1.7948471,9.929891
82351646736688,0.16308434,-1.2727511,9.858144
82351666592689,0.0059587834,-0.59806585,9.438434
82351686448688,-0.40327793,0.013040946,8.725911
82351706310338,-0.88736445,0.03854121,8.020343
82351726166467,-0.96165144,-0.0510478,7.8709135
82351746022594,-0.8474774,0.10094685,8.00396
82351765878850,-0.8305753,0.073757686,8.28815
82351785734979,-0.4641942,-0.5401652,10.291879
82351805590436,0.23153007,-0.82869726,11.836188
82351825446692,-0.04578802,-0.45667842,8.40762
82351845302821,-1.7265846,-0.44560012,6.511582
82351865159076,-1.7624063,-1.0574099,9.351876
82351885015204,-0.4527845,-0.6676332,11.139227
82351904871461,-0.30861577,0.25677225,9.8176775
82351924729337,-1.182036,0.81003445,9.763286
82351944585593,-1.0242894,0.8531971,11.50043
82351964441722,-0.8924853,1.491852,11.450875
82351984297977,-1.3562319,0.4266432,9.223145
82352004159585,-0.08604851,-1.0172622,10.592413
82352024015970,2.8541472,-1.7105716,14.012324
82352043872353,2.6488204,-0.40724307,13.172893
82352063728609,0.41058832,0.3550086,10.228657
82352083584994,-0.1069329,-0.24866033,9.541544
82352103441377,0.1333438,0.08260524,9.901022
82352123299876,0.7799348,1.2787621,10.500248
82352143156389,1.2529637,0.5413146,10.417216
82352163012772,0.52483815,-0.44467348,9.309468
82352182869284,-0.6928999,-1.1954423,8.505978
82352202725797,-1.3919512,-2.0424888,8.547831
82352222583100,-0.6690599,-1.4960303,8.295209
82352242439612,-0.13762127,-0.96205735,8.52756
82352262296125,0.1870356,-1.319369,9.518853
82352282152636,0.5012038,-1.5956885,9.733949
82352302009599,0.1496301,-1.4633062,9.286849
82352321866112,-0.23988336,-1.2558442,9.473715
82352341722623,-0.42529702,-1.0834779,9.495936
82352361579135,0.26580015,-0.5880017,9.922435
82352381435520,0.30233088,0.09186886,10.435618
82352401292031,-0.23075926,-0.3971693,10.396548
82352421144916,-0.07257405,-0.62282246,10.103162
82352441001301,0.21113013,0.016384201,10.372193
82352460857684,0.5807554,0.1984711,10.909032
82352480714068,0.91794443,-0.049087074,11.25645
82352500570581,0.25343633,-0.5527941,10.931538
82352520421638,-0.39917052,-0.22757344,11.127323
82352540277894,-0.08678491,0.4060468,11.085867
82352560134151,0.902707,0.5735481,11.265051
82352579990406,1.0986081,-0.3130812,10.715837
82352599845316,0.7232458,-1.0873891,9.054806
82352619701701,-0.1743688,-1.0864185,8.218159
82352639557956,-0.053920478,-0.042897064,9.318781
82352659414212,1.0483984,1.0643889,10.585572
82352679270469,2.1651485,1.8113791,11.318852
82352699126852,1.8969377,1.6187097,11.198666
82352718981249,1.2618237,0.52105707,9.637702
82352738837378,-7.3997094E-4,0.023071563,8.201655
82352758693633,-1.1367166,-0.37617138,7.1634326
82352778549889,-1.6075755,-0.8268649,6.5767937
82352798406018,-0.95702094,-0.7535695,7.4731703
82352818258445,-0.48432755,-0.39226854,8.413291
82352838114573,-1.0101628,-0.6410711,7.864013
82352857970702,-1.5393009,-0.50021666,7.7056165
82352877826829,-1.0498952,0.04681548,9.176536
82352897680805,0.09874152,0.39427087,10.95037
82352917536934,0.4153508,0.45316845,10.845488
82352937392933,-0.3430574,-0.27222028,9.267964
82352957249061,-1.0554976,1.6632463,8.591054
82352977105190,-1.1372906,0.41556618,10.233934
82352996961317,-0.4618426,0.7883902,10.929608
82353016819359,-0.21056229,1.2761662,11.818611
82353036675488,-0.21346189,1.3837221,12.662361
82353056531487,-0.3560218,3.0211499,12.653055
82353076387615,0.7094146,2.498612,12.376518
82353096243744,2.0054529,0.7747995,12.963892
82353116099138,2.7913191,0.23333077,13.609163
82353135955266,2.5556455,-2.0919526,11.98288
82353155811395,0.7461743,-2.3118458,10.135418
82353175667522,-0.6509461,0.10164977,8.163894
82353195523650,-0.36346254,1.027109,5.8044252
82353215379779,1.3270952,1.143953,6.286801
82353235237620,2.9337728,0.5759492,6.9154086
82353255093748,3.732112,-0.75076985,6.9605584
82353274949877,3.943466,-1.4775423,6.9142685
82353294806004,2.9187448,-0.8337365,7.9493713
82353314657919,2.4164724,-0.76390505,8.932662
82353334513920,1.92472,-0.33524132,9.066059
82353354369919,0.32917395,0.7623067,8.73098
82353374225919,-0.39705747,0.80007505,7.1500006
82353394082048,-1.0870245,0.20249659,6.4832425
82353413933951,-2.0328097,0.6272897,8.106873
82353433789823,-8.720676,3.3161008,6.8952823
82353453645696,-8.820102,5.124776,9.3852215
82353473501567,-1.4261595,2.5460877,9.744412
82353493357439,1.0342687,-0.0012163739,8.532339
82353513213440,1.4147747,-0.5091892,9.6249075
82353533074737,0.7348666,0.029194186,11.638196
82353552930609,-0.2777017,0.182578,12.014692
82353572786610,0.80696964,-0.9926456,12.78126
82353592648903,2.1865163,-0.2022873,12.147915
82353612513257,0.91277945,2.2567296,12.426501
82353632369514,-0.79000723,1.3381424,14.2099085
82353652225641,0.9646699,-0.31267184,15.3471985
82353672081897,2.718501,-2.0256524,14.217572
82353691938026,4.35609,-1.2601184,12.449288
82353711800384,3.8598304,-0.790141,10.356815
82353731656640,2.2421467,-1.9426231,7.831146
82353751512897,0.80616945,-2.0329535,7.132084
82353771369280,2.4437923,1.3698084,7.922463
82353791225536,0.73428816,-1.1243396,9.123504
82353811085815,-1.1716131,-3.5552814,10.480519
82353830942327,-0.44089222,-0.019308425,9.758477
82353850798711,0.800295,0.9025465,8.676202
82353870655095,1.6427284,0.6481424,8.901323
82353890511479,2.5223877,1.9945288,7.898527
82353910362042,1.8292458,1.881423,6.452907
82353930218426,0.70649034,0.921286,7.054079
82353950074810,0.18657464,-0.52570194,7.211912
82353969931066,0.43587917,-1.8809167,5.4505076
82353989787450,2.0952046,-1.8766221,4.4654865
82354009654781,3.8194027,-1.7878498,8.655361
82354029511421,4.252808,-1.2448167,10.612164
82354049368061,1.7511764,1.077013,10.594085
82354069224573,-0.48277444,1.2250602,8.964085
82354089081213,-0.6750085,0.420993,9.866669
82354108936116,0.043703787,1.5219982,13.143746
82354128792628,-0.036161683,1.2995193,12.792585
82354148649268,1.6174024,2.966143,11.401963
82354168505780,5.347937,5.6719728,8.291908
82354188362420,7.4203095,3.8749518,7.28164
82354208218932,4.731417,-1.1487094,13.693749
82354228079040,2.1889696,-3.775197,9.809191
82354247935680,1.8459951,-4.192226,7.5327187
82354267792320,1.9502854,-4.193434,11.3071
82354287648960,2.9234717,-0.7250936,13.723386
82354307505600,4.174211,2.305826,14.594686
82354327366030,4.8688984,3.1115518,14.320984
82354347222798,1.5878975,-0.5115161,9.526977
82354367079566,-4.4109683,-3.696556,6.4774303
82354386936334,-3.0503414,-4.724036,5.7263503
82354406792974,-2.06323,-6.523581,6.5729895
82354426648390,-4.3331337,-3.886159,10.130493
82354446505030,-0.048005473,-1.028198,12.099755
82354466361798,3.0630763,-0.19504629,11.68439
82354486218566,3.4587457,0.08402314,9.88765
82354506075206,2.4030416,0.3508593,9.500517
82354525927127,-0.269985,1.2139994,9.675028
82354545783639,1.5132704,1.8776103,7.7865076
82354565640279,2.669948,1.5394803,6.363511
82354585496919,-1.5870413,0.49558032,7.3595643
82354605350432,-4.8683434,0.06126658,9.149441
82354625207073,-5.8009114,-0.16223131,10.731879
82354645063712,-4.3217306,-0.35402414,11.096261
82354664920224,-2.4293208,-0.79685766,10.760624
82354684776864,1.259591,-1.0042483,8.549945
82354704633504,5.362536,0.5046773,7.50492
82354724480404,6.555514,2.1172748,8.371805
82354744336917,3.7851784,1.5594876,9.402349
82354764193300,-3.2617111,-1.2915304,8.570022
82354784049684,-0.6743396,1.5097644,9.08567
82354803906069,0.2832538,4.3327045,8.982582
82354823753847,-0.7514235,3.0593603,7.6536455
82354843610103,1.4881791,2.5090997,6.6830835
82354863466360,3.3175426,4.6483607,7.5301075
82354883322615,7.0622144,6.925817,8.233256
82354903169807,3.3819091,5.6058316,7.032925
82354923025808,-1.136771,4.7068233,6.441632
82354942881807,-1.5296094,3.794431,9.316205
82354962737807,1.7148142,2.9431033,12.524316
82354982593808,9.464042,2.7266548,14.055197
82355002449807,8.675338,-0.55884045,12.781547
82355022300675,4.3419504,-1.6917084,11.897863
82355042156420,3.1998203,0.24598326,10.766684
82355062012291,1.7798798,-1.0189366,10.855916
82355081868035,1.4366049,-2.5960112,11.617973
82355101723908,1.1849791,-2.7259088,13.081135
82355121583052,0.94676805,-3.699561,13.391228
82355141438924,0.99120677,-3.1255434,11.5356455
82355161294669,1.0272043,-2.8812966,10.559371
82355181150540,1.6801926,-3.2867522,10.227676
82355201006412,0.9444749,-3.3172126,10.87191
82355220862285,-0.14805372,-2.4426312,11.722392
82355240725348,-0.36324078,-1.4270035,11.741667
82355260581348,0.37825882,-1.7609051,11.941098
82355280437349,0.40250787,-2.6839178,12.493905
82355300293220,0.30235428,-2.5444996,13.720787
82355320144947,-0.38440993,-1.5993209,14.394725
82355340000820,0.5833073,-1.5241876,13.723191
82355359856819,1.5075841,-2.1726975,12.7460375
82355379712691,-1.196958,-4.07454,11.728244
82355399568564,-1.0083375,-1.5188049,11.498072
82355419423409,-2.2311878,-0.82692176,13.427053
82355439279281,-0.50604534,-0.78350985,13.306599
82355459135154,-1.257948,0.25878716,11.024602
82355478991025,-0.70048225,0.09293551,9.457858
82355498846897,-0.10550653,-1.5584877,8.477166
82355518702898,-2.1654992,-0.927851,5.845032
82355538564328,-1.8414068,-0.21479219,4.600904
82355558420200,-0.7908197,-0.39578858,3.6670258
82355578276073,-0.03816067,-0.4057153,3.5751543
82355598136916,-0.16322534,-0.38431445,3.5604851
82355617994970,-0.64828247,-1.3222017,3.705808
82355637850971,1.2960705,-3.6148655,5.967912
82355657706970,2.9460936,-4.0699005,7.3634243
82355677562970,3.6402266,-3.644281,8.258005
82355697418971,2.9926326,-2.2463355,7.766017
82355717276118,2.4557981,-1.0455482,7.7961
82355737132118,2.6978276,0.15626305,9.046019
82355756987991,2.5025039,0.9391997,10.036875
82355776843990,2.0449026,0.6550221,11.584481
82355796699990,2.2557824,-0.55630445,13.071649
82355816555991,0.5492356,1.0006431,13.212198
82355836415549,0.2165604,0.690649,14.281274
82355856271677,0.91492945,-0.45667365,14.567244
82355876127806,-2.034968,-0.7510749,14.333875
82355895983805,-5.5762963,0.8395043,15.808112
82355915844864,-4.2244697,5.418785,14.670821
82355935700993,0.6472694,5.2402544,13.090602
82355955557248,1.7353189,-0.04495317,15.531651
82355975413504,3.0000808,-0.7895117,14.658363
82355995269761,2.1785088,4.2040863,10.701819
82356015126016,-4.498794,4.9388075,7.5369935
82356034996077,-2.4216714,4.2207694,7.31922
82356054852590,3.7857046,3.680633,7.241947
82356074709229,2.6457572,3.0098567,6.3430758
82356094565741,1.0428795,2.7050953,5.974602
82356114422254,-0.16471967,-0.036201864,4.2632904
82356134282288,-0.15518801,-0.43609092,4.96011
82356154138928,1.1925051,1.2598577,5.2694483
82356173995569,1.7483354,1.4360527,5.560005
82356193852208,1.4228212,2.282349,6.809208
82356213711866,3.5171978,1.3746512,8.997267
82356233568635,4.600551,-1.5777646,10.453934
82356253425402,-0.7524585,-3.957816,10.670237
82356273282170,-1.7068392,-4.0420985,8.959506
82356293138939,1.4888973,-1.948127,8.615879
82356312995706,1.3875839,-0.95787776,9.004826
82356332844319,0.6978122,0.5682659,10.59458
82356352700960,0.09191133,1.6465476,12.467264
82356372557599,0.25183874,0.9913739,12.138666
82356392414239,0.5603573,0.37946168,10.979727
82356412270880,0.37342584,0.5144005,9.005517
82356432123150,0.3348209,-0.7132725,8.894533
82356451979662,-0.5723041,-1.5896063,9.302807
82356471836175,-1.0397487,-1.5642922,10.006782
82356491692686,0.16373973,-1.2706987,9.16508
82356511543510,1.0286015,-1.1004355,9.971679
82356531399895,0.8680306,-0.49221855,10.564272
82356551256278,1.3090749,-1.2408428,10.020309
82356571112662,1.7286925,-1.4568361,10.541314
82356590969047,0.619861,-0.85082364,11.5511675
82356610825302,-0.05908556,-1.7017865,11.638543
82356630680278,0.6064742,-1.551401,9.744364
82356650536535,0.2083973,-0.78553444,7.364807
82356670392918,-0.55930287,-0.48101357,6.2866273
82356690249174,-1.7081022,0.3987172,6.7650847
82356710105559,-1.8011693,1.1141622,8.407358
82356729965802,-1.7806568,2.3598716,9.667969
82356749822186,-5.6165366,3.4611492,12.042959
82356769678699,-5.558103,3.6895185,15.093371
82356789535082,-1.794241,1.6272495,17.608307
82356809391303,-1.0017586,0.9439012,16.71506
82356829247816,0.7600135,-0.77331716,12.726014
82356849104327,1.1495353,-1.4255582,9.789403
82356868960711,-0.019089023,0.67325586,9.72703
82356888817224,-0.46308002,1.3103882,9.448606
82356908673735,-0.28873205,0.6188947,8.793349
82356928525097,-0.27564025,0.6075001,7.677652
82356948381354,-1.2785422,1.6952941,6.3273954
82356968237737,-1.7650101,2.403318,6.6525745
82356988093993,-1.0384269,-0.99176985,8.116722
82357007950250,1.4054464,-3.9745953,8.619051
82357027808321,3.593313,-2.906399,9.022819
82357047664577,3.1795998,-0.07399805,9.677668
82357067520834,3.1745594,-0.13668726,10.467474
82357087377089,3.126097,1.0286738,9.486464
82357107233473,0.9717268,1.3327545,8.773298
82357127089730,-0.9192239,-1.2428265,9.398854
82357146946820,0.59148514,-0.84331805,10.553611
82357166803204,-3.0246727,0.4930642,9.900532
82357186659589,-8.889851,2.3974798,11.675144
82357206515972,-9.009962,1.071559,13.913697
82357226372929,-1.5511185,2.2647064,10.137499
82357246229314,2.0789895,1.7585796,7.12691
82357266085569,3.4342973,0.60639656,7.1374784
82357285941953,6.999262,-0.47158408,5.232033
82357305798338,1.4674613,0.012490019,12.037565
82357325652039,-9.265513,0.97107977,16.984594
82357345508295,-0.6511432,1.6300341,12.476986
82357365364552,-2.752222,0.3510961,10.956263
82357385220935,-3.1423364,-0.5694024,9.362483
82357405077191,-0.79712117,-1.8698777,9.503049
82357424933448,0.6564881,-0.084007025,10.175794
82357444746817,1.030364,0.2070295,10.225146
82357464602305,0.65984565,-0.7858503,9.604675
82357484457666,-0.14262335,-0.17357604,8.89585
82357504313153,0.28998676,1.757997,9.563604
82357524178024,0.60117483,0.78468126,10.494678
82357544033641,-0.78749573,0.4160489,10.331089
82357563889128,-0.2069247,1.1872383,9.694572
82357583744616,1.7169527,1.7075481,10.505309
82357603600233,1.3700258,0.24883498,10.827955
82357623469038,0.78743976,-1.7343335,10.2888775
82357643324782,1.8535925,-3.1887324,10.110805
82357663180655,1.0682218,-2.7044256,10.010098
82357683036398,-0.037431058,-0.23585503,9.610054
82357702892270,-0.86996543,1.0092593,9.816957
82357722748015,-0.036785193,1.396136,10.30287
82357742616247,-0.756378,0.22620901,10.08551
82357762472375,-0.46351424,-0.34224877,9.881542
82357782328376,1.1696855,-1.206072,10.132908
82357802184375,0.35889405,-0.438683,10.18704
82357822049036,0.11379314,1.0588561,9.721178
82357841905293,0.43902996,0.6032902,9.815922
82357861761548,0.2058945,-0.12218553,10.116635
82357881617804,0.22343543,0.090388946,10.136713
82357901474061,0.25585464,0.2746668,10.126356
82357921333388,0.35538968,0.053689554,10.189536
82357941189644,0.33216298,-0.16280325,10.079299
82357961045901,0.15094055,0.1272124,9.941955
82357980902156,0.14136574,0.27528143,9.837737
82358000758412,0.26615044,-0.049325183,9.863268
82358020614669,0.35733053,-0.14045142,9.91612
82358040481743,0.33569562,0.047497127,9.75843
82358060338255,0.44059253,0.1083396,9.59304
82358080194768,0.5860787,0.125474,9.864722
82358100051151,0.51318073,0.18542829,9.867764
82358119912460,0.3985493,0.26352796,9.819736
82358139768973,0.3412969,-0.024371754,9.942248
82358159625612,0.38553715,-0.081995554,10.002884
82358179482124,0.4545669,0.14414409,9.902463
82358199338637,0.44044366,0.16949467,9.777526
82358219195276,0.47837046,-0.09171402,9.896621
82358239060248,0.40433422,-0.2770688,9.987194
82358258917017,0.46859342,-0.16532981,10.071853
82358278773784,0.4727044,-0.022794794,9.80501
82358298630424,0.24306679,0.2376753,9.5282955
82358318487193,0.07677337,0.561813,9.772677
82358338346660,0.09524011,0.41425836,9.794399
82358358203556,0.38978434,0.26514167,9.680003
82358378060453,0.88191986,0.51485556,9.831588
82358397917348,1.0296263,0.9170518,10.034311
82358417775213,1.0855175,1.310373,10.153537
82358437632110,1.186148,0.51209277,9.956823
82358457489133,1.0749208,-1.177104,9.590313
82358477346029,0.6808266,-1.4851316,9.499435
82358497202926,0.37057886,-0.3622227,9.468488
82358517059949,0.7761819,0.5758818,9.61687
82358536901869,1.0420731,0.6713067,10.09741
82358556758638,1.1022509,0.0046693445,10.473115
82358576615277,1.2876296,-0.73063713,10.499567
82358596472045,0.7281509,-0.25328663,10.329104
82358616328686,-0.31065497,0.71836597,10.178216
82358636182024,-0.99182403,0.5859185,9.898197
82358656038792,-0.83708334,-0.31828335,9.42749
82358675895433,-0.47753838,-0.7551935,9.164947
82358695752200,-0.4537328,0.026435837,9.247053
82358715609358,-0.34095392,0.8743218,9.44508
82358735465999,0.2598695,0.79036534,9.728458
82358755322766,0.44775543,0.31149018,9.877143
82358775179534,0.21749301,-0.08229949,9.859147
82358795036303,0.12498958,-0.4262475,9.794771
82358814893070,0.1357947,-0.44646472,9.862324
82358834751374,0.30565542,-0.26030833,9.963361
82358854608271,0.41560853,-0.1195305,9.883806
82358874465038,0.2832179,0.09866035,9.733401
82358894321934,0.088392384,0.24328203,9.709519
82358914178831,0.04552918,0.117278375,9.615234
82358934035470,0.17030899,0.04599326,9.595956
82358953892366,0.3257888,0.04818416,9.6919
82358973749391,0.42771515,0.12334787,9.826617
82358993606286,0.54905367,0.0031063675,9.927187
82359013447494,0.44548935,0.10334564,9.868411
82359033303623,0.22591549,0.12831157,9.635364
82359053159878,0.10837493,0.11499537,9.541738
82359073016006,0.09974112,0.18970971,9.693571
82359092872263,0.30038866,0.054420743,9.892697
82359112728518,0.38114655,0.0763101,9.903812
82359132588986,0.41528115,0.136464,9.911487
82359152445243,0.3757959,0.15337732,9.829413
82359172301498,0.29622453,0.19160295,9.736593
82359192157754,0.32605729,0.112207815,9.763026
82359212014139,0.3007763,0.10204258,9.769163
82359231875209,0.24914648,0.08870395,9.812043
82359251731465,0.26343697,0.17437045,9.835695
82359271587850,0.2450912,0.29211888,9.750841
82359291444233,0.35534874,0.14549926,9.683035
82359311300489,0.2752972,0.119623795,9.650491
82359331156874,0.09291028,0.19860391,9.732143
82359351015037,0.081624076,0.10488412,9.826527
82359370871421,0.096474536,0.08492506,9.822338
82359390727806,0.11152064,0.10072749,9.795775
82359410584189,0.14954469,0.19199866,9.705697
82359430445009,0.23619182,0.2732606,9.829414
82359450301522,0.2754889,0.13325524,9.757579
82359470157905,0.15399058,0.12533292,9.761405
82359490014417,0.087996885,0.078484766,9.847277
82359509870930,0.18219656,0.098708816,9.827859
82359529730799,0.14280273,0.22875024,9.8000345
82359549587311,0.19177029,0.3411972,9.690312
82359569443952,0.16635889,0.45648485,9.651671
82359589300463,0.24708813,0.32487687,9.701394
82359609156975,0.34381947,0.1249808,9.729745
82359629013488,0.30402586,0.036937635,9.821431
82359648862458,0.2643656,0.1418622,9.861194
82359668718970,0.31569088,0.22866888,9.888537
82359688575355,0.3196991,0.24447998,9.852087
82359708431866,0.2046996,0.2631081,9.77017
82359728292625,0.1346201,0.27878854,9.726136
82359748149138,0.18249816,0.27138692,9.689435
82359768005777,0.42188644,0.16071442,9.8177595
82359787862289,0.57325953,0.17953345,9.9200945
82359807718930,0.44340312,0.32712752,9.836524
82359827580580,0.23304011,0.39484695,9.732448
82359847437348,0.16538954,0.379471,9.579189
82359867294117,0.26412028,0.35061356,9.668143
82359887150884,0.33610547,0.28878412,9.883041
82359907007652,0.3630125,0.15535228,9.900869
82359926864421,0.32609186,0.1801726,9.86051
82359946727443,0.3603764,0.21112071,9.697443
82359966584467,0.35578004,0.37089482,9.707475
82359986441364,0.28962135,0.38831156,9.699509
82360006298259,0.25718316,0.23961915,9.717009
82360026158506,0.32661718,0.16408277,9.837001
82360046015531,0.40348583,0.1951369,9.862771
82360065872554,0.3935632,0.2386055,9.836678
82360085729706,0.2433981,0.28694358,9.745203
82360105586731,0.12986341,0.36450636,9.637745
82360125437165,0.19038929,0.3201193,9.658751
82360145293933,0.2617156,0.20703253,9.805232
82360165150830,0.29668602,0.1308942,9.807835
82360185007597,0.3804051,0.12784377,9.835572
82360204864493,0.34078142,0.30313867,9.886665
82360224721262,0.29041052,0.32742286,9.909245
82360244573616,0.21731786,0.2339711,9.793726
82360264430384,0.20670429,0.12425577,9.696263
82360284287025,0.30828264,0.15281352,9.708944
82360304143792,0.47090513,0.13470723,9.786748
82360324001041,0.44808063,0.211056,9.823878
82360343857682,0.34840497,0.23890637,9.834245
82360363714449,0.27262914,0.2968122,9.839477
82360383571089,0.2323386,0.30646807,9.790697
82360403427858,0.2988404,0.2591222,9.668312
82360423284497,0.40046197,0.15354133,9.699363
82360443143947,0.41383302,0.07181421,9.732674
82360463000716,0.3468577,0.17279439,9.788292
82360482857483,0.31998533,0.24137418,9.884277
82360502714123,0.40565854,0.2783137,9.820734
82360522570892,0.3596928,0.37026736,9.785896
82360542426239,0.3188629,0.30240238,9.630575
82360562283007,0.26005876,0.26509047,9.513843
82360582139648,0.27060458,0.11243138,9.717064
82360601996287,0.33720288,0.06873824,9.865078
82360621851921,0.36982173,0.19365084,9.940825
82360641708562,0.37275985,0.27151048,9.839138
82360661565329,0.30111685,0.35003996,9.580905
82360681421969,0.30440688,0.29066962,9.709141
82360701278610,0.32240424,0.15393166,9.760729
82360721135377,0.2805044,0.1519305,9.735556
82360740985806,0.40829837,0.11993431,9.825671
82360760842447,0.3419717,0.2117783,9.785918
82360780698958,0.22053929,0.24533637,9.797698
82360800555598,0.13938057,0.274529,9.832703
82360820412111,0.23813492,0.16193248,9.76583
82360840266367,0.18740787,0.21084526,9.7544
82360860122879,0.1635166,0.13478175,9.740664
82360879979392,0.09957946,0.16594496,9.786673
82360899836031,0.19554786,0.21786098,9.67676
82360919691538,0.29927412,0.1625879,9.594598
82360939548051,0.24618182,0.1839446,9.728014
82360959404562,0.23962034,0.2252617,9.857637
82360979261074,0.26802546,0.23450786,9.954829
82360999117715,0.25845215,0.18822576,9.896134
82361018974226,0.1785675,0.258161,9.77681
82361038829670,0.22146824,0.25597674,9.700519
82361058686183,0.17692041,0.26867858,9.634497
82361078542694,0.18232873,0.11141163,9.684866
82361098399206,0.15408811,0.07609251,9.7613735
82361118255719,0.15373029,0.06882958,9.923082
82361138113048,0.17947742,0.15479222,10.020979
82361157969560,0.15749134,0.29253075,9.764896
82361177826201,0.16897793,0.27240565,9.748939
82361197682712,0.111928664,0.21650326,9.760727
82361217536675,0.11123831,0.14917876,9.637959
82361237393060,0.18838507,0.063212655,9.680807
82361257249443,0.20074533,0.25490826,9.719023
82361277105827,0.28686944,0.33176,9.848743
82361296962212,0.29015887,0.35244235,9.986836
82361316818595,0.1907072,0.34600857,9.798244
82361336671913,0.18134256,0.27578595,9.781752
82361356528298,0.268522,0.21549346,9.73712
82361376384553,0.2962918,0.23286511,9.699104
82361396240937,0.26968056,0.28208622,9.751895
82361416097194,0.2294293,0.34846818,9.826036
82361435956600,0.2773612,0.35511425,9.932821
82361455812984,0.27057526,0.3029365,9.801325
82361475669369,0.121580884,0.26771465,9.537332
82361495525624,0.07708956,0.22148779,9.54742
82361515382008,0.21038932,0.17071413,9.80224
82361535238393,0.33212543,0.14632918,10.026131
82361555100731,0.22637264,0.28487805,9.92068
82361574957243,0.14285845,0.32614213,9.752393
82361594813756,0.16107865,0.22460307,9.695276
82361614670267,0.09318021,0.22911745,9.621451
82361634527681,0.16136761,0.109218694,9.737942
82361654384194,0.21323788,0.22497173,9.869605
82361674226140,0.29371357,0.21543148,9.889297
82361694082652,0.21717718,0.27496305,9.955559
82361713939165,0.084147945,0.30948687,9.6748705
82361733795682,0.06214876,0.28269598,9.65361
82361753652322,0.16774073,0.29260686,9.626919
82361773508835,0.327508,0.2159375,9.773176
82361793365346,0.2381485,0.19519939,9.832327
82361813221858,0.12967478,0.24740702,9.893996
82361833078371,0.20355634,0.3815012,9.931073
82361852935162,0.32498062,0.38841313,9.72753
82361872791674,0.21830079,0.3693024,9.727899
82361892648315,0.16556552,0.31160706,9.765908
82361912504826,0.28589877,0.3110362,9.680341
82361932361308,0.26512578,0.27160624,9.713847
82361952217821,0.26081946,0.28847337,9.811931
82361972074332,0.27574036,0.34930956,9.818434
82361991930844,0.3300074,0.36509398,9.867677
82362011787485,0.2857282,0.42179325,9.759217
82362031648901,0.1772289,0.42132136,9.648396
82362051505541,0.16635942,0.31279466,9.730122
82362071362182,0.23434749,0.27337068,9.7311945
82362091218949,0.19911475,0.19494963,9.809322
82362111075589,0.25344267,0.14918797,9.843882
82362130932358,0.18473457,0.310468,9.850809
82362150791752,0.20943888,0.2982332,9.865506
82362170648520,0.25172976,0.26075128,9.713653
82362190505289,0.11528527,0.29871967,9.690176
82362210362056,0.10132264,0.26429787,9.76084
82362230220830,0.24161315,0.28752235,9.798336
82362250077727,0.33032593,0.2533922,9.873538
82362269934494,0.34180233,0.22164421,9.763133
82362289791390,0.12792122,0.34642565,9.673993
82362309648287,0.06390321,0.39033687,9.667486
82362329501543,0.20914966,0.25913015,9.889727
82362349358311,0.3279471,0.16005157,9.995439
82362369215080,0.31451693,0.15349564,9.9347515
82362389071719,0.14756179,0.18114975,9.783835
82362408928487,0.123286396,0.30166134,9.640461
82362428785256,0.15908,0.30816686,9.659359
82362448631874,0.28524345,0.17691661,9.694648
82362468488386,0.2693022,0.24358737,9.750372
82362488344899,0.34212917,0.190835,9.823772
82362508201410,0.33701074,0.31659934,9.833492
82362528058629,0.23316303,0.34194347,9.757087
82362547915142,0.28779796,0.30984175,9.850152
82362567771781,0.28149825,0.31056815,9.66665
82362587628293,0.31267753,0.2870941,9.7839365
82362607484806,0.3144995,0.2183358,9.73699
82362627341317,0.2572509,0.1960252,9.681325
82362647190172,0.14728789,0.23426156,9.816182
82362667046557,0.28262022,0.20352592,9.7716055
82362686902940,0.2783784,0.25272152,9.882184
82362706759196,0.2678841,0.19089623,9.831131
82362726615581,0.26170453,0.30767515,9.729382
82362746469710,0.24884929,0.35579386,9.785746
82362766325966,0.36559078,0.25516322,9.739244
82362786182351,0.2450019,0.22376409,9.732464
82362806038606,0.21008608,0.11844931,9.794794
82362825893899,0.28054926,0.19979317,9.7655525
82362845750156,0.31679052,0.3204732,9.716172
82362865606411,0.31075844,0.34714895,9.6929655
82362885462667,0.20528422,0.28823805,9.824859
82362905319052,0.3060111,0.17224692,9.963538
82362925175307,0.31903818,0.20987175,9.8129425
82362945036622,0.27152297,0.30454257,9.74847
82362964893007,0.22296883,0.29680288,9.712339
82362984749262,0.22470364,0.18949553,9.672996
82363004605646,0.29983672,0.2296229,9.697734
82363024461903,0.38357434,0.22532494,9.848741
82363044319311,0.29023987,0.24390824,10.084202
82363064175695,0.24451229,0.17853776,9.943336
82363084032080,0.31881258,0.16137956,9.839262
82363103888335,0.36270872,0.25303543,9.669882
82363123739899,0.21277182,0.2881707,9.477653
82363143596284,0.0821011,0.1622157,9.727603
82363163452539,0.22036915,0.025407748,9.848537
82363183308795,0.38524273,0.14999187,9.903789
82363203165052,0.25843754,0.28355592,9.8436365
82363223021307,0.02811186,0.35071686,9.636419
82363242876545,0.001365594,0.25197703,9.71503
82363262732802,0.2574444,-0.03337666,9.618383
82363282589057,0.2686335,0.03092292,9.818627
82363302445313,0.2109994,0.15662462,9.729764
82363322301570,0.2594021,0.25633657,9.877349
82363342157307,0.2559263,0.24831164,9.805315
82363362013563,0.20562473,0.33828416,9.862417
82363381869820,0.20518477,0.28045028,9.615336
82363401725947,0.31456217,0.16877384,9.752239
82363421584434,0.36211678,0.16429134,9.804645
82363441440691,0.22819784,0.23533963,9.831469
82363461296946,0.19532076,0.23625267,9.812517
82363481153202,0.27549344,0.23434024,9.7409
82363501009459,0.31246248,0.24352005,9.79557
82363520865714,0.23906882,0.23066203,9.737288
82363540725310,0.1984535,0.20602046,9.813506
82363560581567,0.19729754,0.17098857,9.794982
82363580437950,0.26244232,0.22119159,9.846925
82363600294206,0.22505002,0.2807951,9.833523
82363620150463,0.28595668,0.2572293,9.837287
82363640010259,0.23650816,0.27263132,9.765472
82363659866643,0.1800508,0.28159648,9.604916
82363679723028,0.16094576,0.24191764,9.70119
82363699583431,0.27450016,0.2443057,9.748085
82363719439815,0.37078077,0.18843447,9.735407
82363739296200,0.25945815,0.20011827,9.861339
82363759161872,0.20714422,0.25234735,9.9070635
82363779018512,0.24126576,0.32917506,9.85657
82363798875153,0.296518,0.26419207,9.784816
82363818731664,0.2424685,0.20280541,9.679609
82363838591827,0.2363388,0.08113308,9.695605
82363858448468,0.20198734,0.06486443,9.811217
82363878305235,0.19846319,0.21937132,9.810744
82363898161875,0.30657014,0.21262582,9.860393
82363918018644,0.36569476,0.15555683,9.710406
82363937880938,0.26711982,0.21647523,9.617885
82363957737834,0.25300872,0.22342825,9.862224
82363977594731,0.20861815,0.18550451,9.857592
82363997451498,0.24576133,0.19005774,9.8504925
82364017308394,0.29836592,0.15154,9.768244
82364037165291,0.25128114,0.19309305,9.606468
82364057024034,0.16474229,0.21380913,9.750992
82364076880930,0.16289309,0.13635969,9.688296
82364096737827,0.16954096,0.25315526,9.838004
82364116594722,0.26622373,0.27380595,9.836426
82364136454073,0.26710346,0.2485183,9.910212
82364156310970,0.15965484,0.30846456,9.795905
82364176167993,0.17585185,0.2855955,9.615088
82364196025017,0.22920914,0.24921222,9.621057
82364215881914,0.22483574,0.17767593,9.68413
82364235736358,0.14269052,0.13734798,9.798721
82364255593254,0.1162201,0.20529959,9.91892
82364275450151,0.18983741,0.33759227,9.9006605
82364295307174,0.2772861,0.41154525,9.779399
82364315164070,0.2189309,0.356925,9.72791
82364335020967,0.10478207,0.21175174,9.779182
82364354876894,0.11528611,0.18740372,9.769098
82364374733790,0.24625841,0.19365722,9.790657
82364394590687,0.23192546,0.2583713,9.827065
82364414447582,0.15468338,0.31393,9.796326
82364434297266,0.1217314,0.33832875,9.74331
82364454154035,0.1281214,0.36991748,9.779626
82364474010802,0.20159264,0.31157154,9.612454
82364493867570,0.15250275,0.2298775,9.663007
82364513724339,0.18400693,0.18901415,9.779674
82364533584111,0.23226462,0.29815236,9.869046
82364553441007,0.18639824,0.35046688,9.988228
82364573297904,0.15375794,0.3500728,9.763168
82364593154799,0.13769083,0.32522264,9.744411
82364613011695,0.21797168,0.16988891,9.714366
82364632868592,0.13616984,0.16438372,9.677406
82364652718380,0.1476782,0.18923534,9.7678995
82364672575148,0.1546651,0.33978254,9.886339
82364692431917,0.12164155,0.41062316,9.774565
82364712288684,0.11673374,0.23208968,9.716674
82364732140423,0.091659755,0.22464967,9.608377
82364751997064,0.16511929,0.27482146,9.676684
82364771853703,0.21565168,0.24846172,9.975411
82364791710343,0.19931467,0.19603023,9.982555
82364811566856,0.058675554,0.32297704,9.902106
82364831423495,0.15617931,0.31206056,9.758852
82364851269889,0.21606898,0.28308472,9.660405
82364871126274,0.121026136,0.2900575,9.642049
82364890982657,0.18368526,0.12850843,9.594599
82364910839041,0.1899451,0.24782729,9.787945
82364930695426,0.2762856,0.3856209,9.883245
82364950543087,0.24830712,0.4395878,9.987839
82364970399215,0.07501443,0.35420966,9.927763
82364990255344,0.017290447,0.23968257,9.797053
82365010111471,0.13538216,0.21477646,9.710984
82365029964167,0.2729766,0.2502576,9.66782
82365049820296,0.13160117,0.2897954,9.659163
82365069676295,0.09326593,0.2408669,9.728503
82365089532295,0.0685488,0.26363203,9.707785
82365109388424,0.15994482,0.3371504,9.863046
82365129244423,0.24778372,0.39449966,9.899274
82365149096638,0.16413042,0.35047325,9.909151
82365168952511,0.043165933,0.27404678,9.8399515
82365188808382,0.008468089,0.18963964,9.751159
82365208664382,0.01552299,0.21295859,9.753787
82365228520255,0.1984801,0.2960723,9.604386
82365248376754,0.10045293,0.41352028,9.645306
82365268232626,0.16599494,0.34584755,9.721928
82365288088499,0.11407388,0.2778853,9.615388
82365307944370,0.04262127,0.2444516,9.755864
82365327800517,0.19838898,0.23545538,9.941155
82365347656390,0.2503171,0.3307707,9.97562
82365367512389,0.19486713,0.36303088,9.964058
82365387368261,0.012468033,0.30031934,9.783959
82365407224134,-0.077802785,0.19966048,9.722338
82365427080005,0.1406287,0.19729777,9.592531
82365446939552,0.210251,0.23603593,9.526421
82365466795553,0.14685911,0.25976092,9.759862
82365486651424,0.09892791,0.23687027,9.7773905
82365506507296,0.011390267,0.27134225,9.874469
82365526363297,0.12416506,0.35303077,9.93451
82365546230760,0.19108354,0.3729216,9.786604
82365566087016,0.14449072,0.20655352,9.813265
82365585943145,0.074322894,0.13287805,9.855049
82365605799272,0.08657583,0.19903655,9.914498
82365625660459,0.19337052,0.28779724,9.759845
82365645516716,0.1564912,0.3439933,9.604181
82365665372971,0.06807925,0.33697572,9.612928
82365685226400,0.069289245,0.29713216,9.640383
82365705082785,0.12129261,0.2707216,9.775674
82365724939040,0.16140835,0.32582393,9.937953
82365744797173,0.19518653,0.37427822,10.022036
82365764653558,0.16585124,0.29841024,10.009245
82365784509941,-0.0339393,0.21393043,9.771003
82365804366197,-0.06991297,0.23096661,9.610736
82365824222582,0.10986408,0.21187904,9.5228
82365844082250,0.19938593,0.23662835,9.674036
82365863938634,0.03699719,0.23228393,9.797413
82365883795019,-0.008862831,0.30670717,9.782698
82365903651530,0.085559115,0.35234147,9.884219
82365923513509,0.20159815,0.38596836,9.886451
82365943370150,0.27098066,0.3765275,9.82385
82365963226661,0.26406708,0.27684385,9.835255
82365983083301,0.038994547,0.24380717,9.700945
82366002939942,0.053327817,0.18756498,9.669377
82366022796581,0.13698123,0.17742814,9.770223
82366042656756,0.18988045,0.32483563,9.794434
82366062513397,0.21283099,0.394891,9.910822
82366082370036,0.22347763,0.3644943,9.8248415
82366102226804,0.15307903,0.30818123,9.649793
82366122083445,0.12218859,0.20487592,9.709194
82366141943089,0.14021838,0.18777016,9.668432
82366161799857,0.1861161,0.2933946,9.791953
82366181656754,0.22803497,0.35885733,9.934141
82366201513521,0.30320606,0.38034484,9.941368
82366221370289,0.22748816,0.3440225,9.853616
82366241227058,0.12598695,0.28690752,9.542657
82366261090865,0.035125386,0.27725634,9.636127
82366280947761,0.20157015,0.26163575,9.755459
82366300804658,0.27284205,0.2503708,9.78521
82366320661681,0.16182362,0.30867356,9.945477
82366340517877,0.15343116,0.33653462,9.898115
82366360374774,0.13676292,0.33959216,9.865021
82366380231797,0.10756212,0.29666597,9.618262
82366400088821,0.091808096,0.17841421,9.680684
82366419945846,0.14165051,0.14370213,9.834859
82366439790214,0.20441468,0.28419685,9.771634
82366459646982,0.22386739,0.41967168,9.793364
82366479503623,0.1513802,0.38530558,9.750851
82366499360390,0.08451657,0.25287682,9.746339
82366519217158,0.08392525,0.18646975,9.782524
82366539073927,0.15068103,0.26831847,9.813678
82366558927341,0.23744613,0.27302396,9.85143
82366578783981,0.11970678,0.3000347,9.824737
82366598640622,0.046687413,0.27824643,9.724324
82366618497261,0.06637038,0.24301724,9.732194
82366638342654,0.074055284,0.27820146,9.667749
82366658199039,0.15382522,0.25459695,9.730685
82366678055550,0.26423144,0.29757512,9.800344
82366697911934,0.16608013,0.31920484,9.804466
82366717768447,0.15717469,0.2525418,9.8416815
82366737624752,0.0822293,0.3079381,9.7514925
82366757481136,0.09617277,0.3482899,9.739276
82366777337521,0.17630558,0.3025808,9.866152
82366797193904,0.16614516,0.2696324,9.796325
82366817050288,0.1853529,0.24006389,9.791886
82366836906673,0.17903633,0.28356895,9.836953
82366856760318,0.168531,0.3113419,9.840768
82366876616574,0.1723973,0.30450138,9.819435
82366896472959,0.108454086,0.38969553,9.748756
82366916329214,0.112637445,0.35438,9.670612
82366936184269,0.13410722,0.2531873,9.663675
82366956040526,0.023263972,0.284109,9.733354
82366975896781,0.06960913,0.30728003,9.832233
82366995752909,0.21636246,0.30694374,9.804048
82367015609166,0.1527791,0.30792508,9.862125
82367035465421,0.11396492,0.2694038,9.873153
82367055331777,0.15115504,0.22134086,9.782654
82367075188162,0.09142376,0.22511552,9.74782
82367095044545,0.06777399,0.21608497,9.733754
82367114900929,0.11829003,0.20650087,9.801318
82367134757314,0.16497798,0.24023758,9.807458
82367154615117,0.11678627,0.20803887,9.798677
82367174471501,0.112718925,0.24688238,9.686522
82367194328014,0.09589876,0.2995708,9.575839
82367214184397,0.069109745,0.24049802,9.836158
82367234039135,0.053766727,0.21723455,9.944884
82367253895520,0.17705178,0.25390413,9.898825
82367273752031,0.2630123,0.24439344,9.918211
82367293608415,0.20205349,0.30014554,9.800775
82367313464800,0.094125845,0.26214582,9.668755
82367333321183,0.016239109,0.22241941,9.6073065
82367353164200,-0.0072913216,0.22307332,9.668853
82367373020329,0.17056993,0.25682458,9.811036
82367392876456,0.2748339,0.3385224,9.893131
82367412732712,0.34686923,0.32877767,9.852974
82367432588841,0.38939628,0.3272128,9.881643
82367452449893,0.24885814,0.3577744,9.632409
82367472306149,0.0522144,0.31467,9.729972
82367492162406,0.0039974907,0.31648517,9.767084
82367512018533,0.056039747,0.32564464,9.746062
82367531878190,0.17378208,0.30864912,9.7621975
82367551734447,0.2532912,0.32041958,9.747876
82367571590702,0.1985838,0.30114174,9.7841
82367591446958,0.17035629,0.29378474,9.687866
82367611303215,0.07639424,0.2890765,9.6926365
82367631159470,0.07780107,0.272618,9.866683
82367651015793,0.15509492,0.33164725,9.896571
82367670872178,0.26659054,0.34683755,9.889158
82367690728433,0.30134013,0.35730577,9.839512
82367710580298,0.10325123,0.3181537,9.75458
82367730436555,0.04622961,0.22640733,9.5414
82367750296588,0.042845916,0.21275276,9.610547
82367770152972,0.16517153,0.28669196,9.764579
82367790009229,0.26040703,0.31342307,9.966278
82367809865612,0.31579986,0.3151318,10.043015
82367829732452,0.22946927,0.32960367,9.948583
82367849589221,0.056895666,0.33137217,9.7009735
82367869445860,0.04418687,0.30846298,9.641496
82367889302500,0.05241299,0.31199858,9.550343
82367909159141,0.1699162,0.19531435,9.665712
82367929015908,0.25706735,0.17572619,9.876983
82367948872548,0.15934771,0.28352025,9.933562
82367968719198,0.1933088,0.32297713,9.950052
82367988575838,0.19810903,0.32812893,9.842444
82368008432350,0.03703983,0.2736268,9.602592
82368028288862,0.022778874,0.19658726,9.685161
82368048145374,0.07198326,0.18247725,9.841919
82368068009700,0.12807947,0.13681807,9.895423
82368087866212,0.26759115,0.16386226,9.857775
82368107722852,0.18331498,0.32427928,9.733799
82368127579492,0.10584348,0.30086833,9.766568
82368147436004,0.091703705,0.24659102,9.709924
82368167297770,0.030503204,0.22755574,9.801206
82368187154538,0.13947241,0.24337661,9.820632
82368207011306,0.17304772,0.21035787,9.801214
82368226867946,0.14149262,0.20378774,9.787122
82368246724714,0.08066164,0.25999,9.746429
82368266576984,0.123781964,0.28795606,9.654659
82368286433624,0.088443525,0.27787086,9.6581955
82368306290136,0.058933306,0.26811838,9.816519
82368326146776,0.11507872,0.21940266,9.878136
82368346003288,0.17834418,0.17409676,9.718297
82368365861250,0.14836541,0.26299232,9.775407
82368385717890,0.18491748,0.38878727,9.834923
82368405574530,0.18201758,0.3987957,9.729596
82368425431170,0.076664604,0.25983033,9.785155
82368445287810,0.15096702,0.23092407,9.6932335
82368465136525,0.1592318,0.3627047,9.711764
82368484993037,0.1852531,0.3958141,9.814738
82368504849421,0.10911211,0.2859587,9.8986435
82368524705933,0.15803215,0.22655533,9.827327
82368544562445,0.193888,0.29266897,9.5997
82368564416448,0.16383849,0.30193734,9.738257
82368584272832,0.13166139,0.30139583,9.854325
82368604129344,0.06743354,0.32471627,9.808373
82368623985728,0.2299963,0.23626657,9.834505
82368643842112,0.21638888,0.2430644,9.776478
82368663700396,0.083139144,0.26418233,9.712418
82368683556908,0.051605735,0.2631992,9.726543
82368703413420,0.03500196,0.22267382,9.752485
82368723270060,0.17302611,0.18557379,9.842839
82368743126572,0.19293493,0.20440334,9.879878
82368762986802,0.10558939,0.22193678,9.866651
82368782843442,0.07462629,0.2234455,9.865181
82368802700082,0.027986407,0.30435324,9.614937
82368822556722,0.024530007,0.31345892,9.557693
82368842413362,0.03212837,0.19047454,9.675049
82368862262810,-0.02724009,0.092741884,9.823386
82368882119194,0.10307317,0.15768902,10.015297
82368901975706,0.31876785,0.29624793,9.942527
82368921832218,0.1502231,0.3877667,9.809576
82368941688730,0.051023666,0.29994318,9.622911
82368961536349,-0.049301587,0.27746475,9.545353
82368981392605,-0.0313172,0.29651654,9.708511
82369001248861,0.22964862,0.25670758,9.843259
82369021104989,0.2610806,0.29776424,9.942251
82369040961245,0.22785516,0.31523296,9.840615
82369060818592,0.11965824,0.37788323,9.5937605
82369080674848,0.050950624,0.3164682,9.681954
82369100531104,0.0333238,0.30615735,10.100572
82369120387360,-0.023013819,0.32071647,9.689153
82369140243616,0.14064986,0.27971226,9.671108
82369160098031,0.12823576,0.30028284,9.865461
82369179954287,-0.021860547,0.3380302,9.958832
82369199810415,0.1229699,0.28156927,9.70905
82369219666671,0.08211799,0.23586188,9.667165
82369239522799,0.0026879131,0.2292651,9.710857
82369259378031,0.10190691,0.28496933,9.710195
82369279234159,0.08658226,0.26338428,9.911428
82369299090287,0.052614722,0.21605742,9.864395
82369318946415,0.17497797,0.25932908,9.893023
82369338802543,0.05023329,0.40434298,9.837689
82369358656507,-0.079384536,0.34303367,9.58438
82369378512635,-0.076279454,0.18589208,9.622129
82369398368635,-0.10269635,0.17295963,9.688206
82369418224763,0.03231424,0.27317005,9.828422
82369438080763,0.2307858,0.32985395,9.986185
82369457939126,0.101245135,0.35261342,9.817254
82369477795254,-0.051814113,0.32639506,9.766261
82369497651382,-0.11076461,0.32178468,9.6752
82369517507510,-0.10053884,0.29190734,9.6748705
82369537363638,0.15215555,0.21932013,9.847865
82369557217022,0.20506483,0.23320971,9.892766
82369577073022,0.12658423,0.34347504,9.882692
82369596929022,-0.053275242,0.40087378,9.799664
82369616784894,-0.18534677,0.3241209,9.666111
82369636640894,-0.10038327,0.24955595,9.5637455
82369656509913,0.059925888,0.24069053,9.6110115
82369676366297,0.12726055,0.22081839,9.82325
82369696222553,0.0922142,0.2820119,9.936281
82369716078809,0.027140079,0.24731445,9.876161
82369735932816,-0.07820658,0.23816918,9.924371
82369755793710,-0.06556248,0.29410136,9.840054
82369775650222,0.039201144,0.31276736,9.679158
82369795506606,-0.04819641,0.28921884,9.683203
82369815363118,0.045868084,0.17019801,9.685709
82369835219502,0.08216232,0.22963369,9.805865
82369855075970,0.0755074,0.28693768,9.65104
82369874932482,-0.022246039,0.3082503,9.8566
82369894788994,-0.041437145,0.35604736,9.842292
82369914645378,-0.049588975,0.36245504,9.734704
82369934501890,0.0143666435,0.2911869,9.939486
82369954364649,0.08178979,0.25287473,9.808428
82369974221289,-0.049117524,0.22302791,9.801518
82369994077929,-0.025572743,0.20845771,9.7500105
82370013934569,-0.04098553,0.28853798,9.795529
82370033791209,-0.06380983,0.33338603,9.689254
82370053653968,-0.07886976,0.27911824,9.74001
82370073510736,-0.023754634,0.27735376,9.804404
82370093367376,0.04247583,0.3309748,9.946774
82370113224144,0.017420813,0.3109068,9.73917
82370133080912,-0.15906222,0.26465097,9.796794
82370152940415,-0.06722424,0.30899197,9.7386
82370172797183,-0.124745324,0.3191414,9.667739
82370192653951,-0.015554022,0.2501313,9.79523
82370212510847,-0.018406337,0.23135959,9.776207
82370232367615,-0.09638718,0.24700141,9.879506
82370252224570,0.021177465,0.27703977,9.895849
82370272081338,-0.069139995,0.30334294,9.784185
82370291938234,-0.14312102,0.2755866,9.700588
82370311795002,-0.0860205,0.26214856,9.6478195
82370331651898,-0.053281713,0.2842438,9.73043
82370351505642,0.058261145,0.27541855,9.821205
82370371362538,0.029726421,0.26626757,9.859484
82370391219306,-0.09031383,0.27480638,9.908165
82370411076202,-0.102451205,0.3123107,9.819422
82370430932970,-0.07817462,0.34086162,9.6720495
82370450778271,-0.072094694,0.29971018,9.64712
82370470634912,-0.052386824,0.22387333,9.736851
82370490491553,-0.016203893,0.21277514,9.81324
82370510348063,0.014814189,0.28371936,9.829531
82370530204703,0.06389757,0.39406997,9.905384
82370550060946,-0.13169794,0.4129462,9.779261
82370569917586,-0.16236368,0.32926238,9.679852
82370589774226,-0.1396016,0.27347508,9.704073
82370609630738,-0.033986833,0.22933102,9.709142
82370629487378,0.1250996,0.27381903,9.754599
82370649334989,0.11564414,0.2877946,9.820782
82370669191373,0.020721158,0.33872497,9.819966
82370689047757,-0.074762635,0.38260093,9.960865
82370708904141,-0.061132558,0.41708255,9.700405
82370728760653,-0.06811572,0.31256944,9.802751
82370748617012,0.0025533554,0.2632778,9.7532625
82370768473396,0.03869088,0.3346417,9.835491
82370788329780,0.11547241,0.29020938,9.901625
82370808186164,0.055347163,0.2706411,9.823659
82370828042548,-0.08949782,0.30656925,9.755639
82370847896492,-0.04192726,0.34865996,9.723029
82370867752748,0.014725689,0.28215823,9.705641
82370887609132,-0.03898979,0.19242352,9.699554
82370907465516,0.0061716298,0.21938092,9.793393
82370927321772,0.103964195,0.2675889,9.818013
82370947176302,0.038271144,0.2736256,9.812342
82370967032430,-0.030674376,0.28826782,9.7256775
82370986888686,-0.045585196,0.38189015,9.718568
82371006744942,0.12296824,0.3528082,9.772147
82371026601198,0.14332882,0.25976932,9.82275
82371046457123,0.0037084634,0.24059176,9.829293
82371066313379,-0.0030698378,0.3120445,9.745332
82371086169507,0.06279995,0.4504782,9.810123
82371106025636,0.07935737,0.4259138,9.796363
82371125881893,0.051848724,0.18451048,9.738998
82371145738019,-0.02518681,0.07077484,9.62255
82371165585229,0.0042768614,0.16681087,9.659154
82371185441229,0.12554495,0.24868631,9.949335
82371205297229,0.15879753,0.17838404,9.8987465
82371225153229,-0.045671467,0.118994236,9.844386
82371245006402,-0.0763395,0.21685134,9.756293
82371264859115,0.013124324,0.355971,9.68591
82371284715116,0.039183006,0.3764429,9.807506
82371304570989,0.13775651,0.34958985,9.8401985
82371324426990,0.0030737645,0.426725,9.813808
82371344282863,0.06216817,0.44436625,9.800485
82371364139740,0.0063906345,0.43228334,9.6938
82371383995613,0.014494313,0.3268865,9.721932
82371403851614,0.07033468,0.26963,9.844287
82371423707487,0.027978648,0.23287706,9.752843
82371443563360,-0.0050740894,0.1770926,9.841071
82371463418189,0.045156937,0.11134905,9.70773
82371483274062,0.030868564,0.10923565,9.76469
82371503129807,-0.025822029,0.08243609,9.728329
82371522985680,0.0106036905,0.1757361,9.70689
82371542841553,0.021591498,0.306498,9.758707
82371562705324,0.13157406,0.40055907,9.740339
82371582561325,0.048880365,0.40967697,9.852761
82371602417198,0.07639177,0.3329074,9.829221
82371622273199,0.039716322,0.34134912,9.820233
82371642129200,0.08570162,0.40405902,9.812748
82371661992477,0.1175757,0.3882293,9.692061
82371681848734,0.010148072,0.2598335,9.691365
82371701704863,0.018200109,0.14334373,9.779495
82371721560972,0.04345782,0.15058039,9.861929
82371741417229,0.017510379,0.18045431,9.79802
82371761279214,0.005482113,0.15779062,9.777948
82371781135471,0.040821355,0.17977548,9.811396
82371800991852,0.11743479,0.2791142,9.716869
82371820848108,0.010336355,0.21190774,9.712871
82371840704492,0.048614074,0.14893907,9.827031
82371860562899,0.13029832,0.2916042,9.758088
82371880419283,0.11788835,0.29836795,9.881845
82371900275795,0.087482385,0.24201497,9.948606
82371920132179,0.060695626,0.22955385,9.690319
82371939988691,0.007271237,0.18648906,9.601052
82371959846264,0.0887129,0.17037883,9.684946
82371979702648,0.19773981,0.2037737,9.807985
82371999559160,0.23272714,0.32936713,9.908057
82372019415544,0.097676024,0.3247954,9.841082
82372039272056,0.13699584,0.29819328,9.932264
82372059128838,0.25451216,0.35767952,9.654691
82372078985350,0.09253548,0.39221177,9.515429
82372098841734,0.06416629,0.28145313,9.738414
82372118698118,0.23247734,0.3072087,9.821498
82372138554630,0.16697612,0.35808006,9.900716
82372158416474,0.17745234,0.35251066,9.932132
82372178273114,0.05804097,0.3577104,9.82104
82372198129627,0.049748406,0.25347558,9.7086315
82372217986268,0.12630889,0.20923655,9.702315
82372237842778,0.10810086,0.22532558,9.625543
82372257701977,0.17652439,0.20187035,9.720792
82372277558489,0.108765416,0.27155787,9.764013
82372297415129,0.028066646,0.34560654,9.892891
82372317271769,0.15402687,0.33578295,9.838226
82372337128281,0.20368959,0.31037804,9.710093
82372356982952,0.137847,0.2402259,9.69931
82372376839593,0.15059723,0.23355271,9.735624
82372396696234,0.14478438,0.2527917,9.835343
82372416552747,0.18007755,0.27614385,9.826454
82372436409388,0.16048941,0.26480016,9.766642
82372456261267,0.16974944,0.22075833,9.762564
82372476117780,0.11412493,0.16466574,9.814435
82372495974421,0.12122577,0.17828776,9.840982
82372515830934,0.27420497,0.30616316,9.775068
82372535687447,0.23327735,0.33141258,9.969255
82372555547196,0.18979889,0.14740527,9.9391775
82372575403837,0.10591617,0.15642802,9.77505
82372595260478,0.029824357,0.31013954,9.75672
82372615117119,0.040294625,0.43266308,9.599434
82372634973760,-0.016053114,0.32532662,9.615131
82372654824747,0.034646705,0.102886744,9.645703
82372674681260,0.09235157,0.13590257,9.701484
82372694537901,0.1297483,0.19349626,9.828305
82372714394414,0.005339286,0.28814715,9.8908
82372734251055,0.01016012,0.35114795,9.890892
82372754060228,0.19188778,0.3614263,9.906128
82372773915845,0.1186066,0.26501095,9.698655
82372793771460,0.05686859,0.20363945,9.681909
82372813627076,0.018752823,0.21151163,9.729013
82372833482692,0.1083199,0.25768283,9.743491
82372853336042,0.16265503,0.3260563,9.821216
82372873191530,0.10323982,0.296288,9.661992
82372893047018,0.012645283,0.28124443,9.7518425
82372912902507,0.12717819,0.16077727,9.881819
82372932757866,0.15330133,0.21329038,9.933956
82372952623265,0.18654723,0.32470876,9.934895
82372972478882,0.110138535,0.32016882,9.744154
82372992334497,-0.024541073,0.26605844,9.702475
82373012190113,0.08616264,0.15926842,9.638474
82373032045602,0.16650288,0.20281124,9.735474
82373051913764,0.1487153,0.23555414,9.772569
82373071769508,0.15226857,0.2890463,9.789338
82373091625253,0.10772478,0.32505664,9.847415
82373111480996,0.06791251,0.3150642,9.763403
82373131342525,0.08331969,0.29816258,9.670893
82373151198398,0.22036827,0.18933,9.545394
82373171054269,0.22307828,0.14992283,9.526537
82373190910141,0.17376757,0.095537625,9.578886
82373210766014,0.11660605,0.25671795,9.597945
82373230621885,0.16407484,0.4223975,9.76308
82373250482706,0.32189736,0.33589542,9.82196
82373270338579,0.10809458,0.26111445,9.644486
82373290194578,-0.059899185,0.1615962,9.475772
82373310049443,0.11224083,0.079086505,9.444731
82373329905444,0.22157656,0.1712578,9.540648
82373349766203,0.21144065,0.16884446,9.775909
82373369622332,0.07991988,0.12440365,9.700738
82373389478333,0.09070229,0.11842184,9.719672
82373409334334,0.2768892,0.13352884,9.731114
82373429198757,0.19941069,0.14948574,9.570629
82373449054886,0.09178559,0.13401358,9.612793
82373468911143,0.14790483,0.096026145,9.623062
82373488767272,0.18845038,0.17882572,9.60947
82373508623529,0.20649812,0.24527535,9.661692
82373528479658,0.16730458,0.15059027,9.564723
82373548344819,0.15966612,0.10730418,9.578726
82373568201076,0.1653642,0.14917967,9.618704
82373588057461,0.15343304,0.16902955,9.544517
82373607913846,0.27196595,0.14045757,9.626133
82373627770231,0.24703312,0.08484335,9.656087
82373647626432,0.19191346,0.10369641,9.731001
82373667482817,0.28915593,0.15445347,9.653788
82373687339202,0.31496403,0.15991114,9.518418
82373707195715,0.31398186,0.11199326,9.556554
82373727052100,0.21673182,0.084543034,9.528431
82373746908485,0.21898374,0.06786094,9.598528
82373766769922,0.3189238,0.120185375,9.615709
82373786626415,0.3949009,0.14067446,9.626589
82373806483056,0.30079442,0.22819857,9.716797
82373826339695,0.28683454,0.20650786,9.623633
82373846204562,0.2559742,0.10903966,9.547308
82373866061459,0.20481186,0.06785695,9.400878
82373885918354,0.21803096,0.096481144,9.441034
82373905775250,0.37033492,0.12509876,9.622285
82373925632147,0.4718133,0.14221321,9.6557865
82373945494729,0.3865502,0.15552963,9.63365
82373965351753,0.336305,0.15861678,9.559611
82373985208778,0.2743031,0.18600023,9.5328245
82374005065929,0.39331505,0.15149881,9.557922
82374024922953,0.4313679,0.12949516,9.605904
82374044779978,0.36287585,0.16186173,9.528055
82374064637630,0.38560373,0.124715075,9.613992
82374084494782,0.45708463,-0.007500373,9.654402
82374104351935,0.30622628,0.02563559,9.61994
82374124209086,0.14758734,0.08553007,9.653222
82374144072937,0.14174835,-0.028794026,9.398964
82374163930346,-0.21477583,0.3211714,9.136626
82374183787753,-0.44682276,0.49667808,9.542886
82374203645161,0.06388882,0.24324107,9.679577
82374223502442,0.17108645,0.5002027,9.532103
82374243347579,-0.118302345,1.0191404,9.741357
82374263204859,0.22919881,0.98885137,9.790211
82374283062012,0.43593127,0.7118303,9.598957
82374302919291,0.44655713,0.34422415,9.720001
82374322776443,0.70723486,-0.26209068,9.885745
82374342633724,0.73178065,-0.5450994,9.921016
82374362465397,0.9814986,-0.600985,9.514726
82374382321782,0.82761437,0.27925226,9.33544
82374402178167,0.66787666,0.68450046,9.596184
82374422034552,1.0683565,0.8944881,9.3724785
82374441890937,1.0475582,1.1587882,9.15969
82374461736832,1.075881,0.83971214,9.023756
82374481592955,1.2444903,0.6166178,9.092343
82374501449083,1.1646624,0.535649,9.26689
82374521305211,1.0546873,0.519894,9.340504
82374541161339,1.4549787,0.44339904,9.35043
82374561021740,1.5737972,0.47951975,9.252621
82374580877868,1.4963046,0.5493426,9.321244
82374600734124,1.5017185,0.5363743,9.353451
82374620590252,1.1052322,0.94194716,9.825077
82374640446508,1.2982213,0.93068266,10.299422
82374660302332,2.0488603,0.86665523,11.036354
82374680158588,2.9470234,0.89790285,11.726023
82374700014844,3.6245384,1.1296537,11.889317
82374719871100,3.3732088,1.2622929,11.780663
82374739727228,3.4981446,0.67847306,11.535681
82374759579089,4.29084,0.2687089,11.010503
82374779435217,3.8541005,0.79155356,10.701106
82374799291345,2.4331243,2.1311269,12.387065
82374819147473,1.276046,2.9093924,13.904638
82374839003601,-0.4084413,4.6083126,13.422962
82374858851708,-1.6847752,5.0240865,11.175079
82374878707708,-0.99378204,3.2330194,9.506095
82374898563580,-0.37397847,0.33131087,10.925862
82374918419580,-0.016267903,-0.6600772,11.986555
82374938275452,0.80216944,-0.5011855,11.626762
82374958120478,-3.162876,-1.9116297,12.140527
82374977976223,-2.8200378,-1.5803698,10.98559
82374997831968,-3.3912358,0.5628301,8.605007
82375017687713,-4.3830976,3.4569757,7.099948
82375037543458,-4.8256707,4.457467,6.0254626
82375057406797,-2.7748978,4.751697,7.322473
82375077262670,-1.1552461,5.11661,7.318954
82375097118543,-1.261667,4.658768,4.57817
82375116974416,-1.3690516,2.0332513,2.894785
82375136830289,-1.1805478,-1.6467936,3.378536
82375156690812,-1.9983282,-3.837845,4.550343
82375176546813,-3.6446621,-3.2872832,4.90354
82375196402814,-2.292769,-1.8956755,5.125768
82375216258815,0.1275423,-0.33429405,5.9954977
82375236114816,1.1601906,0.10508536,8.767695
82375255974799,1.632078,-0.97521555,13.956184
82375275830800,-2.464901,-2.7257483,20.430658
82375295686801,1.90358,-2.7115943,20.34566
82375315542802,8.128085,-1.0974059,8.350612
82375335398803,2.0420878,1.1819485,-0.109104656
82375355253242,-1.4210175,4.380572,5.839481
82375375109243,-15.951259,11.727455,14.246174
82375394965116,-7.6761813,5.020579,26.878862
82375414821117,-0.04489768,4.206369,11.486549
82375434677098,-2.6754863,4.651488,5.408969
82375454539943,-1.7284671,2.9431982,8.29006
82375474396072,-1.5604459,1.548974,11.82431
82375494252201,0.76630944,-1.675443,13.546632
82375514108202,3.8095245,-2.2640564,10.93701
82375533964331,2.409518,0.9966937,7.6791215
82375553828896,0.32226288,2.270218,7.5202127
82375573685153,2.2693152,0.5958251,7.402609
82375593541538,4.37865,-1.8223641,7.312049
82375613397795,2.8355334,0.06403607,8.605323
82375633254180,0.60551673,1.1229814,8.386114
82375653117183,0.93784857,1.1580743,7.7216606
82375672973696,0.4154192,0.62950414,8.260009
82375692830209,0.2113235,-0.2021696,9.383282
82375712686722,0.4117353,-0.15255578,10.477829
82375732543235,1.1449738,2.9810874,10.147983
82375752402692,3.5250037,4.530571,10.644427
82375772259333,5.180932,3.205162,11.419271
82375792115958,4.4435816,3.4693587,12.142852
82375811972598,5.4187145,3.4123087,11.636544
82375831829238,4.688309,4.2323685,11.237237
82375851685007,1.8689321,4.0221996,12.049611
82375871541519,-1.0813937,3.4885657,11.37882
82375891398159,-2.8861816,4.09756,11.179809
82375911254799,-2.9651456,5.489167,10.234354
82375931111311,-4.036889,6.2822914,10.541548
82375950969969,-4.33149,5.082554,12.254422
82375970826737,-4.1463203,3.9660206,13.465185
82375990683377,-1.1103245,1.9212002,14.150112
82376010540017,1.0913118,0.7204905,12.801471
82376030396785,-3.2125823,2.580841,8.965828
82376050258288,-7.0039415,3.5346704,5.900295
82376070115056,-9.305217,4.8309674,5.8619184
82376089971696,-7.286389,5.1043644,6.4507623
82376109828464,-4.421884,3.0648768,6.297881
82376129685232,-3.188602,-1.6912606,6.9246497
82376149546710,-1.8194549,-4.024892,6.8648887
82376169403606,-0.64035326,-4.193555,7.017092
82376189260503,0.033120867,-3.6393952,6.739134
82376209117528,0.009086994,-3.3134232,6.1546206
82376228974422,-0.06397161,-3.2543585,7.949846
82376248829062,0.5824128,-1.5869075,9.809514
82376268685958,1.419175,0.8571221,11.38488
82376288542854,1.9969819,0.8184897,12.755583
82376308399750,5.8271413,2.5803583,14.237682
82376328256646,5.207219,10.216161,10.144537
82376348106927,-4.9679747,7.7500343,4.4599533
82376367963696,-9.612671,5.362554,3.8454678
82376387820593,-5.7053723,5.0636544,7.7232723
82376407677362,-7.582484,0.65568405,11.986617
82376427534131,-0.6142716,-6.410186,19.621872
82376447390900,8.029614,-1.357072,16.10847
82376467231803,-1.9002237,-1.9193043,5.3281417
82376487088188,-7.974909,-4.8055134,7.425102
82376506944701,-8.51542,-1.0021871,9.654678
82376526801086,-3.088009,4.310226,11.167183
82376546657599,0.94971234,4.9853435,12.443932
82376566506042,-2.3488197,2.876242,9.290346
82376586362299,-2.6272492,1.0634779,6.951103
82376606218428,-0.48318326,0.6300451,7.685178
82376626074685,-0.10805022,0.96452844,8.956057
82376645930942,-0.5524695,0.62265646,9.3542
82376665787315,0.24958935,-0.29402402,8.617234
82376685643572,-0.615647,-0.07685352,8.091057
82376705499829,-0.77362794,-0.67349285,9.446232
82376725356086,-0.5872323,-0.75984496,10.377422
82376745212195,7.9448224E-4,0.20986941,10.564851
82376765052757,-0.9458722,2.0228891,10.506845
82376784908629,-1.6175114,3.197924,10.744613
82376804764501,-3.1869612,3.3053977,10.833
82376824620501,-3.1840558,4.070153,10.905621
82376844476373,-1.2716888,4.43203,11.228031
82376864324291,-0.612246,4.501756,11.717894
82376884180035,0.35920158,4.614891,12.118126
82376904035651,-0.53688514,3.8330636,12.307696
82376923891395,-2.4318447,3.2259362,11.277846
82376943747139,-2.498065,2.3317904,10.816776
82376963601335,-2.4061701,0.39697152,10.476264
82376983456823,-1.736733,-0.16599455,11.515307
82377003312439,-1.6242534,-1.1420928,12.697876
82377023168055,-1.4682633,-3.0351276,12.684224
82377043023671,1.1902846,-0.8894829,12.803103
82377062883121,2.570139,0.9664129,12.620503
82377082738737,0.96647537,-0.9818997,10.790662
82377102594353,1.5552429,-1.624215,9.404059
82377122449969,0.80504733,-1.0823016,8.92633
82377142305585,-0.82548255,-2.5293312,8.583053
82377162169643,-2.3294847,-1.9202805,6.885558
82377182025388,-3.7481544,-2.5062897,5.7920194
82377201881261,-3.1637206,-2.1265745,5.3190165
82377221737003,-1.6683547,0.4943634,4.846364
82377241592747,1.4795218,0.03055131,5.500594
82377261458950,2.7482448,-1.2112225,6.4597754
82377281314950,1.3846554,-1.5805805,7.0139813
82377301170950,0.8380723,-1.4498152,6.5244737
82377321026822,0.9467193,-0.27980456,6.428832
82377340882822,1.7448109,1.2712104,7.7901793
82377360742245,3.4497473,2.982554,10.235845
82377380598245,2.186948,2.2958643,10.938104
82377400454245,0.117302164,-0.26150244,10.514629
82377420310245,-1.0225378,-1.3590243,9.727121
82377440166373,-0.45175114,-0.050912183,9.500333
82377460025146,0.14305806,1.9980972,11.312178
82377479881146,-0.17092071,3.494021,14.31307
82377499737274,-2.4845333,1.1919919,15.717859
82377519593274,-3.4502146,-9.699797,15.894191
82377539449402,0.28896266,-8.931177,15.191856
82377559310589,1.0263743,-1.4231364,8.644029
82377579166845,0.8604885,-0.7291382,5.1582437
82377599022973,1.5842916,-2.2327385,6.0774865
82377618879101,0.4560378,-2.0229025,9.798431
82377638735357,-3.517272,-3.8571346,12.808544
82377658599243,-4.2577634,-3.751157,12.267028
82377678455627,-0.72794795,0.80580187,10.679894
82377698312139,1.780061,3.6204054,10.04364
82377718168523,0.6549115,0.54703194,8.976775
82377738024907,-1.4156348,-1.1492853,8.045146
82377757885454,-1.6614298,-2.0157802,9.908217
82377777746088,-1.228829,-1.9439921,10.652623
82377797602600,-0.39925355,-0.66698873,9.764215
82377817459240,-0.05434432,-0.26333016,10.149513
82377837315752,0.29761732,0.35877496,10.732441
82377857171831,1.3919829,1.908008,10.599805
82377877028471,0.40766534,0.99781424,10.052254
82377896885111,-0.2471601,0.37537926,9.675464
82377916741751,-0.021294566,-0.066653095,10.134464
82377936598391,-0.27097118,-0.6979189,10.733542
82377956456685,-0.89888746,-1.1267314,10.646711
82377976313325,-0.46686497,-0.4104484,10.195129
82377996170093,0.033753075,0.003501031,10.163543
82378016026733,0.75519025,0.485058,10.457585
82378035883501,0.7232954,0.9285421,10.9088955
82378055743972,-0.2409235,0.5410998,10.922515
82378075600740,-1.2784857,-0.3293485,10.187044
82378095457508,-1.25703,-0.76094466,9.751243
82378115314276,-0.2298472,-0.55807024,9.5657625
82378135171044,0.7398893,-0.7811225,9.764964
82378155031379,0.2383978,-0.82458824,9.769979
82378174888276,-0.32081932,-1.0417495,9.453708
82378194745173,-0.22121215,-0.5452926,9.53897
82378214601942,-0.015829049,-0.066023104,9.788234
82378234458839,-0.011545305,-0.38298878,9.767363
82378254316684,-0.15352774,-0.9729941,9.755658
82378274173581,-0.04691413,-0.9451229,10.124359
82378294030606,0.32471466,-0.34947896,10.211897
82378313887503,0.32150236,-0.16547737,9.890626
82378333744528,0.28434154,-0.27787346,9.748816
82378353591117,0.04556588,-0.38175714,9.732895
82378373447886,-0.26725823,-0.3875684,9.968571
82378393304527,-0.37222555,-0.1692733,10.107659
82378413161168,-0.2262162,-0.10940024,10.018224
82378433017937,0.052434064,-0.37398463,9.853724
82378452855560,0.004893167,-0.6295377,9.822071
82378472711817,0.0529955,-0.6644304,10.049639
82378492568074,0.20470418,-0.49903604,10.265652
82378512424331,0.26432455,-0.39208764,10.405207
82378532280588,0.4862078,-0.35618696,10.483238
82378552130303,0.4459053,-0.37720984,10.364117
82378571986432,0.42336544,-0.21541248,10.382144
82378591842433,0.38078272,-0.12403036,10.304534
82378611698562,0.14737958,0.08228397,9.959119
82378631554543,-0.20723595,0.59578687,9.675303
82378651405898,-0.29532236,0.8376411,9.38636
82378671261771,-0.6049477,0.4728022,9.034204
82378691117644,-0.71397686,-0.1454927,8.95128
82378710973645,-0.36773005,-0.2943962,9.039614
82378730829518,-0.27025184,-0.21828167,9.191229
82378750679399,-0.2294588,0.13464795,9.370279
82378770535272,-0.30825233,0.26421082,9.504276
82378790391017,-0.3599316,0.08868782,9.722926
82378810246881,0.022823809,-0.043907113,10.133555
82378830102625,0.54206073,0.025800152,10.307755
82378849958497,0.54912674,-0.008708221,10.169555
82378869812479,0.2781297,-0.21306024,9.886205
82378889668223,0.099904396,-0.18694407,9.733305
82378909523967,-0.2529083,-0.29890734,9.700348
82378929379839,-0.44833297,-0.16766834,9.685422
82378949235583,-0.2101551,0.047789775,9.752711
82378969090833,-0.020373572,0.08386956,9.860118
82378988946577,0.30275017,0.11165841,9.925339
82379008802321,0.42419547,-0.01061195,9.951596
82379028658065,0.18364596,-0.18606298,9.932965
82379048513809,-0.13486147,-0.35582256,9.974365
82379068380712,-0.2497047,-0.3002104,9.928804
82379088236584,-0.10502136,-0.20795952,9.679173
82379108092584,0.17794524,-0.10850816,9.596244
82379127948456,0.25932553,-0.04838898,9.656738
82379147804456,0.093365975,-0.060935065,9.720231
82379167666008,-0.05414833,-0.03886201,9.747718
82379187522008,-0.18389465,-0.06618516,9.848346
82379207378008,-0.15222959,-0.10865532,9.872953
82379227234008,-0.05344256,-0.04112134,9.931656
82379247090009,0.011537492,0.12628846,9.872697
82379266949690,0.1274871,0.11733527,9.836915
82379286805819,0.10517767,0.026038608,9.77336
82379306661817,0.028701141,0.035064377,9.728023
82379326517945,-0.034963507,0.17290257,9.773098
82379346374073,-0.0070044817,0.23884194,9.862277
82379366230742,0.0030085566,0.26064438,9.880111
82379386086870,-0.057839643,0.14994489,9.807507
82379405942999,-0.092654355,0.02623045,9.711125
82379425799000,-0.022470953,-0.07403334,9.705917
82379445655129,0.06785476,-0.005865287,9.811231
82379465508660,0.1932038,0.08713228,9.992003
82379485364661,0.22562712,0.093270816,9.907662
82379505220662,0.044874366,0.07110935,9.861182
82379525076663,-0.08329052,0.0787469,9.747043
82379544932664,-0.15180941,-0.017387463,9.72724
82379564798117,-0.12629454,-0.0150539,9.735381
82379584654246,-0.15442203,0.1006226,9.68681
82379604510503,-0.18040633,0.118717134,9.748255
82379624366632,-0.13068576,0.07593293,9.851987
82379644222889,-0.11672877,0.06852383,9.861098
82379664087738,-0.1108661,0.09789471,9.764563
82379683944251,-0.09390884,0.15068163,9.727998
82379703800636,-0.106016725,0.122523315,9.714832
82379723657149,-0.14094658,0.12715155,9.78281
82379743513519,-0.1648889,0.11560749,9.851847
82379763378467,-0.19132818,0.07597816,9.838779
82379783237351,-0.16203265,0.02767322,9.695379
82379803093991,-0.15174639,-0.0012319544,9.7239
82379822950759,-0.059627473,-0.010217735,9.793037
82379842807399,0.037267886,0.036576677,9.878539
82379862662876,0.11171647,0.09805512,9.91465
82379882519644,0.09161778,0.10001834,9.762476
82379902376412,-0.031812366,0.036414847,9.727924
82379922233052,-0.06538642,0.037111156,9.844304
82379942089820,-0.062333457,0.11711873,9.740156
82379961951379,-0.01700696,0.025548382,9.736335
82379981808275,0.12536457,0.06058055,9.704087
82380001665171,0.01593839,0.074779816,9.770214
82380021522067,-0.014617623,0.11182018,9.810627
82380041378963,-0.032578383,0.16694108,9.679661
82380061233543,-0.09009449,0.13659789,9.723606
82380081090439,-0.08970807,0.15019463,9.834617
82380100947207,-0.091939144,0.17315666,9.784251
82380120804103,-0.21303439,0.01390647,9.733423
82380140660871,-0.00999581,-0.022141345,9.7593355
82380160517452,0.13038248,0.05887652,9.749102
82380180374349,0.09949549,0.14628871,9.817332
82380200231118,0.123344995,0.18400376,9.830421
82380220088015,0.064348914,0.15064546,9.831571
82380239944784,0.022291007,0.14365608,9.730692
82380259798390,-0.08019438,0.094267786,9.758651
82380279655158,-0.0050944467,0.20220041,9.8188505
82380299511926,-0.0096225105,0.25922924,9.735592
82380319368694,-0.046001248,0.2378406,9.765363
82380339225462,-0.049496394,0.23835325,9.736224
82380359077257,-0.124086596,0.093093924,9.695884
82380378933897,-0.071412414,-0.01406384,9.748383
82380398790409,0.045281213,0.20515515,9.813957
82380418647050,0.037605263,0.20739268,9.893205
82380438503691,0.045955382,0.1700261,9.911353
82380458351070,-0.0071827373,0.12714052,9.8636265
82380478207455,-0.055284403,0.10068373,9.736158
82380498063840,-0.09985976,0.059617046,9.676542
82380517920225,-0.0289208,-0.0015614843,9.784378
82380537776610,-0.0034289493,-0.0027751953,9.892775
82380557631305,-0.011751294,0.08678923,10.012417
82380577487690,0.04973891,0.100837305,9.924241
82380597343947,0.037562698,0.05010719,9.627872
82380617200332,-0.0015089718,0.016061002,9.560269
82380637056589,0.016332367,0.050463878,9.638691
82380656912466,0.0034261036,0.009103618,9.782288
82380676768851,-0.0044070645,0.05174752,9.763387
82380696625236,-0.050106313,6.4726226E-4,9.632432
82380716481621,-0.05704108,-0.057615347,9.837089
82380736337878,0.033472728,0.034544144,9.874884
82380756193549,0.052874576,0.042099416,9.719698
82380776049790,0.07778209,0.047559276,9.532437
82380795906174,-0.019373585,0.072365604,9.587194
82380815762558,-0.07111605,0.07995686,9.768681
82380835618814,-0.15044077,0.052155722,9.754938
82380855468865,-0.087229274,-0.0050246026,9.69837
82380875325121,0.01777257,0.021409435,9.750548
82380895181249,-0.01970529,0.1184615,9.734865
82380915037505,-0.08425266,0.07710421,9.88246
82380934893761,0.0026802504,0.048214886,9.916362
82380954749098,0.07990931,-0.029505216,9.962
82380974605354,0.20567591,0.048308242,9.987888
82380994461482,0.1773898,0.23869398,9.847177
82381014317610,0.004705974,0.24697177,9.772967
82381034173738,-0.07304091,0.16674726,9.697048
82381054029866,-0.16440514,-0.081099145,9.657308
82381073880533,-0.06606146,-0.11433839,9.807744
82381093736533,0.05180509,0.11461347,9.935766
82381113592533,0.06683875,0.13143669,9.861241
82381133448533,-0.013316667,-0.016730016,9.752213
82381153304533,-0.06103809,-0.17995237,9.691839
82381173157065,-0.037410915,-0.13833055,9.742987
82381193012938,0.008151444,0.021082805,9.724157
82381212868939,0.03743655,0.01264393,9.756475
82381232724812,-0.03693475,-0.070073314,9.76819
82381252580809,-0.13789557,-0.13645603,9.749301
82381272435899,-0.11243512,-0.03848629,9.807117
82381292291771,0.0010894189,0.04290548,9.795068
82381312147771,0.011022386,-0.0016652085,9.728102
82381332003643,-0.0068545537,-0.06432294,9.713645
82381351859515,-0.0873812,-0.022543594,9.752801
82381371711956,-0.14549734,-0.070928924,9.857692
82381391567829,-0.05923073,-0.02346037,9.824957
82381411423574,0.03761743,-0.010015731,9.766916
82381431279447,0.038375556,0.013930667,9.753173
82381451135320,-0.08089365,-0.005576411,9.781886
82381470996459,-0.10327585,-0.052935313,9.903057
82381490852332,-0.058933124,-4.7575723E-4,9.845405
82381510708205,-0.09779086,-0.03944337,9.747823
82381530564078,-0.0525804,0.011815263,9.838789
82381550419951,-0.0734119,-0.02705966,9.790776
82381570279414,-0.026012866,-0.0899928,9.7601185
82381590135287,0.014165319,-0.043022,9.705612
82381609991288,-0.03322135,-0.015344607,9.734942
82381629847289,-0.04093403,-0.044510208,9.805151
82381649703162,0.0023345018,-0.031347256,9.754097
82381669559639,-0.029965136,-0.03719887,9.697463
82381689415512,-0.07590924,-0.01175385,9.673738
82381709271513,-0.07571631,-0.046172135,9.745247
82381729127514,0.033065863,0.07399029,9.869206
82381748983495,-0.021447873,0.06388883,9.866756
82381768844599,-0.042152658,-0.0311384,9.86212
82381788700600,-0.021515345,-0.026653519,9.81561
82381808556600,0.023693595,0.029754937,9.810168
82381828412728,0.11519247,0.16778433,9.773616
82381848268856,0.04571067,0.040607814,9.689148
82381868124124,-0.023517719,-0.10774366,9.727153
82381887980252,-0.004312395,0.022936413,9.799994
82381907836252,0.01056094,0.09362081,9.894881
82381927692380,0.024758974,0.07575504,9.863549
82381947548508,-0.031671207,-0.004392495,9.76405
82381967405837,0.00753571,-0.030470015,9.783967
82381987261965,0.13558653,0.11142699,9.82165
82382007118093,0.06817565,0.08345519,9.754526
82382026974221,-0.014526409,0.07182938,9.797939
82382046830349,-0.095974915,0.068525724,9.783965
82382066676609,-0.13356803,0.07060557,9.83184
82382086532481,-0.03878847,0.10618088,9.809888
82382106388481,-0.01201089,0.06059187,9.615899
82382126244353,-0.0055624354,0.065079324,9.638657
82382146100225,0.036590226,0.16045229,9.743615
82382165964082,-0.08930185,0.097646736,9.906443
82382185820082,-0.10220958,0.033369564,9.883497
82382205676210,-0.08688309,0.04880967,9.757327
82382225532338,-0.014168424,0.080873944,9.653611
82382245388466,0.03829104,0.13480008,9.659408
82382265247563,0.035229083,0.070242785,9.8002
82382285103692,0.042028736,0.045372248,9.908644
82382304959821,-0.07974174,0.057067376,9.903779
82382324815950,-0.0705076,-0.077142194,9.815716
82382344672079,0.063724875,0.033080462,9.865427
82382364527444,0.09716987,0.16599803,9.807646
82382384383701,0.082504876,0.20529313,9.720884
82382404239830,0.05799449,0.09650466,9.661344
82382424095959,-0.007790881,0.04827412,9.726451
82382443952216,-0.071128994,0.13333674,9.819647
82382463807351,-0.080601186,0.18763563,9.86422
82382483663480,-0.06480269,0.13513264,9.7493105
82382503519609,-0.045042783,0.119063236,9.662929
82382523375738,0.013397846,0.14393169,9.88004
82382543231867,0.13836597,0.16088463,9.84425
82382563094568,0.02857435,0.0784614,9.7282915
82382582950953,0.043229554,0.17829013,9.752382
82382602807210,-0.08331381,0.12870856,9.781001
82382622663467,-0.08783608,0.010837869,9.81836
82382642519724,0.027184239,0.15980382,9.674459
82382662377135,-0.036162097,0.095407404,9.744593
82382682233392,0.039246242,0.0611463,9.923066
82382702089777,0.009609846,0.029813206,9.853788
82382721946012,-0.015097192,0.036802575,9.834619
82382741802397,0.024224104,0.1714887,9.728317
82382761658970,-0.18238935,0.01792072,9.69415
82382781515227,-0.14373615,0.017867573,9.7322855
82382801371609,-0.05313327,0.06989267,9.659054
82382821227865,0.019733893,0.09772353,9.7597685
82382841084121,-0.01197404,0.12700522,9.819364
82382860937305,-0.12601765,0.05620556,9.825041
82382880793561,-0.054825936,0.038913313,9.763071
82382900649817,-0.011007674,0.11207646,9.661821
82382920506073,-0.04837624,0.04037209,9.656716
82382940362201,-0.032229483,0.053019844,9.721211
82382960214471,-0.05372842,0.015473745,9.806132
82382980070599,0.014418234,0.067041576,9.92513
82382999926727,-0.031429574,0.056650378,9.927294
82383019782727,-0.06271977,-0.054637488,9.872835
82383039638855,0.04583137,-0.030848775,9.767962
82383059505400,0.10435898,-0.017515875,9.626072
82383079361656,0.041763704,0.076890536,9.715664
82383099218041,-0.09591041,0.063586414,9.750021
82383119074424,-0.14541273,-0.11416641,9.767865
82383138928493,-0.07640298,-0.08734625,9.8255625
82383158784878,-0.04748806,0.058967672,9.993746
82383178641133,0.04314966,0.09174204,9.879682
82383198497517,0.009190552,-0.010445291,9.740612
82383218353902,0.050417,-0.06744147,9.736932
82383238210159,0.026966833,0.020923665,9.739163
82383258068679,-0.09920681,-0.003254425,9.719763
82383277925064,-0.010523378,0.05396714,9.761321
82383297781447,-0.07708569,0.037044726,9.721386
82383317637831,-0.11738464,-0.024003487,9.747299
82383337494216,-0.018585764,0.044974994,9.785829
82383357348849,-0.012708243,0.033396177,9.8094015
82383377205233,0.011289289,0.020784486,9.863312
82383397061618,-3.3272034E-4,0.12956657,9.814671
82383416918001,-0.12533629,-0.039287522,9.765746
82383436778092,-0.007146892,0.06699111,9.688597
82383456634605,-0.07142217,0.09972756,9.701919
82383476490990,-0.0516399,0.04027244,9.753146
82383496347503,-0.098865144,-0.06907052,9.786237
82383516204016,-0.050979376,-0.06780312,9.798441
82383536060401,-0.046907753,0.016283616,9.902519
82383555923782,-0.024698082,-0.015203805,9.830864
82383575780295,-0.062152486,-0.055136517,9.793494
82383595636936,-0.016928859,-0.003407192,9.698567
82383615493577,-0.041812368,0.027653616,9.673122
82383635350218,-0.08466413,0.15034696,9.73969
82383655202775,-0.17424333,0.22775425,9.769169
82383675059160,-0.20851542,0.20339254,9.889726
82383694915673,-0.13522941,0.23312424,9.894252
82383714772058,-0.079396196,0.112917356,9.77226
82383734628441,0.023032578,0.11470004,9.755312
82383754484826,0.043846056,0.11936452,9.714548
82383774339523,0.068418644,0.02708646,9.838818
82383794195905,0.118922375,0.007907248,9.892549
82383814052418,0.064591326,-0.099856794,9.8983345
82383833908929,0.12988394,-0.07238379,9.797392
82383853765234,0.067606084,-0.039286513,9.652503
82383873621747,0.05668711,-0.037624698,9.656463
82383893478258,0.07778115,0.008316329,9.809892
82383913334770,-0.019003978,0.05454053,9.91325
82383933191155,-0.04367977,-0.016399436,9.822665
82383953044576,-0.10302738,-0.026814016,9.737097
82383972901088,-0.09745257,0.07519421,9.892089
82383992757473,0.074101046,0.21949466,9.852942
82384012613856,0.12053647,0.07771769,9.812343
82384032470240,0.20661797,0.10333167,9.786634
82384052326625,-0.07178308,0.11769412,9.750083
82384072178577,-0.259322,0.10876072,9.7742605
82384092034833,-0.25934973,0.088740036,9.776497
82384111891090,-0.18051389,0.03200962,9.774918
82384131747473,0.025837446,-0.045102898,9.807553
82384151606405,0.23366308,0.015890742,9.758996
82384171462790,0.15670997,0.0015221855,9.765616
82384191319173,0.12382608,0.050572425,9.746223
82384211175557,-0.008345514,0.03131045,9.780877
82384231031942,-0.012300456,0.04429222,9.803073
82384250893006,-0.032222632,0.092699714,9.799031
82384270749518,-0.020567516,0.1333835,9.828242
82384290605903,-0.058321033,0.08629236,9.74002
82384310462414,-0.091502756,0.009359791,9.689261
82384330318798,-2.7056478E-4,0.036010638,9.814936
82384350175311,0.05577726,0.052875284,9.789844
82384370028962,0.05937133,0.04439179,9.754768
82384389885474,0.06728451,0.12799203,9.739574
82384409741859,-0.015873812,0.1033019,9.74682
82384429598370,-0.019590078,0.17344245,9.824678
82384449445701,-0.028814487,0.1349182,9.759001
82384469301958,-2.3672006E-5,0.07931189,9.790176
82384489158213,0.019480307,0.10632425,9.8265915
82384509014341,0.022659939,0.09564357,9.8085
82384528870598,0.028782923,0.088905156,9.720191
82384548726853,0.007271393,0.11300316,9.5971985
82384568571558,-0.004832892,0.067525305,9.643875
82384588427559,0.014619924,0.13120738,9.786677
82384608283558,-0.042446733,0.10086091,9.905869
82384628139430,-0.016108347,0.06813296,9.94863
82384647995431,-0.0017514882,0.07407682,9.803461
82384667853435,-0.025006102,0.035744056,9.722485
82384687709435,0.009513608,0.08327614,9.624692
82384707565564,-0.027486555,0.04618848,9.675753
82384727421563,0.09755327,0.13486362,9.965279
82384747272608,0.017233277,0.12858376,9.919899
82384767128481,-0.10746132,0.01243712,9.804055
82384786984352,-0.019118387,0.06729894,9.76624
82384806840224,-0.03255004,0.09765992,9.705673
82384826696097,-0.017148698,0.11174931,9.779764
82384846551968,0.039268356,0.11859368,9.707201
82384866408236,-0.028412178,-0.011781636,9.728436
82384886263981,0.05579547,0.077612,9.798986
82384906119852,-0.020865822,0.087818995,9.790346
82384925975724,-0.070898816,0.08666466,9.724323
82384945831597,-0.10687015,-0.009238101,9.648093
82384965688596,-0.04134495,-0.011379232,9.786126
82384985544468,-0.002663407,0.11838396,9.81665
82385005400341,-0.016812166,0.07981643,9.8574915
82385025256084,0.044433113,-0.014680045,9.836112
82385045113462,0.023262292,-0.07499188,9.804772
82385064969335,0.026274994,-0.019825218,9.739057
82385084825206,-0.015272361,0.056272317,9.709407
82385104681078,-0.04374771,0.012380048,9.68984
82385124536951,-0.04820732,-0.061646767,9.840521
82385144392694,0.007506567,-2.585429E-4,9.913168
82385164257447,0.008077844,-0.025608908,9.929046
82385184113576,0.028061442,0.022094486,9.848371
82385203969575,0.013940593,-0.013588205,9.743491
82385223825704,0.06978218,0.040118054,9.756058
82385243681833,0.027324349,0.08349971,9.708661
82385263543764,-0.056732066,0.069048926,9.727648
82385283400020,-0.11187529,-0.008577796,9.842093
82385303256149,-0.14937828,-0.02207826,9.858865
82385323112404,-0.108133696,0.08294444,9.855533
82385342970923,0.0054864804,0.086410254,9.711031
82385362827180,-5.5861543E-4,-0.033114098,9.64278
82385382683437,0.043962065,0.05013016,9.698712
82385402539694,-0.022292497,0.008286021,9.783574
82385422395951,-0.031127594,-0.022419762,9.903685
82385442252080,-0.030736178,0.01307676,9.884181
82385462108087,-0.048264418,0.052421466,9.785737
82385481964344,-0.0086249765,0.013336913,9.672162
82385501820601,-0.0019572985,-0.01894019,9.657666
82385521676858,0.05041508,0.04431252,9.767664
82385541532987,-0.0019347399,0.07458394,9.908472
82385561389438,-0.08558697,-0.052063555,9.822758
82385581245695,-0.049005788,0.0106642,9.798837
82385601101952,-0.078947306,0.044541143,9.761072
82385620958337,-0.05506733,-0.0062991013,9.682255
82385640814594,0.0117846625,0.04333299,9.729519
82385660670851,0.014142329,0.016887145,9.852018
82385680528734,-0.04377029,-0.0058148094,9.786891
82385700384991,-0.027066996,0.07716995,9.853557
82385720241376,0.016961576,0.12979032,9.891977
82385740097615,-0.08128981,0.16231754,9.758916
82385759956055,-0.07853242,0.12895067,9.6832695
82385779812440,-0.011771546,0.13148041,9.703575
82385799670077,-0.03839214,0.12282665,9.7340355
82385819526461,-0.10999535,0.16807151,9.856687
82385839382846,-0.0897953,0.19852318,9.889891
82385859242117,-0.10008272,0.036003094,9.847891
82385879098629,-0.06010284,0.05886539,9.8708515
82385898955142,-0.04491432,0.03469599,9.756367
82385918811653,0.027936013,0.04589256,9.796562
82385938668165,0.046073005,0.07022812,9.774449
82385958524678,-0.01095258,-0.018545043,9.805603
82385978382639,-0.0047060396,-0.017499179,9.797383
82385998239279,-0.05120741,0.044213455,9.725545
82386018095920,-0.073683135,0.09955649,9.753164
82386037952431,-0.037566368,0.09326945,9.779305
82386057810565,-0.040724482,0.07480239,9.732941
82386077667206,-0.044276383,0.06016169,9.792837
82386097523845,-0.040378157,0.06638099,9.772269
82386117380357,-0.023398938,0.0381635,9.873
82386137236998,0.002257456,0.07921466,9.820286
82386157093637,-0.036621194,0.07575703,9.729358
82386176945913,-0.029047532,-0.026265712,9.690003
82386196802298,0.017616697,-0.005911926,9.658034
82386216658809,0.057444394,0.052169066,9.796554
82386236515321,-0.00913935,0.023797657,9.927705
82386256371706,-0.08510799,-0.0028089518,9.763171
82386276231405,-0.05936167,0.02988345,9.731938
82386296087918,-0.033024017,0.06259577,9.743049
82386315944431,0.097272836,-0.008723974,9.777882
82386335800944,0.24244727,-0.018977536,9.877483
82386355657457,0.15316114,0.05898581,9.787821
82386375513970,0.012212295,0.04779152,9.785761
82386395368209,0.03869197,0.03675618,9.771483
82386415224722,-0.0655328,0.12760767,9.812501
82386435081235,-0.05032005,0.18508206,9.793076
82386454937620,0.0072975415,0.17709824,9.842632
82386474793633,0.0488422,0.16925175,9.818879
82386494650018,0.045618635,0.08934036,9.788687
82386514506531,0.0910483,0.11469214,9.772592
82386534362916,-0.047628865,0.20053597,9.764426
82386554219301,-0.10478535,0.20195706,9.657718
82386574065140,-0.12379137,0.1020733,9.665922
82386593921397,-0.110187255,0.15328473,9.712642
82386613777654,-0.13312462,0.13232814,9.883977
82386633633911,0.012728311,0.15302537,9.897029
82386653490168,-0.06440473,0.12266894,9.801133
82386673346425,-0.019910228,0.093723536,9.843356
82386693199098,-0.080530494,0.11785037,9.789012
82386713055227,-0.08268596,0.058654536,9.76809
82386732911356,0.010555199,0.096509375,9.740208
82386752767591,-0.098982945,0.070936784,9.77779
82386772630376,-0.11269518,0.016847463,9.840406
82386792486633,-0.094549865,0.0067088096,9.80631
82386812342888,-0.06577274,-0.020631537,9.750783
82386832199144,-0.026643539,0.099035084,9.726601
82386852055529,-0.042822763,0.11714212,9.781384
82386871914144,-0.07828418,0.11627123,9.869688
82386891770400,-0.102181345,0.043816566,9.764902
82386911626785,-0.12100489,-0.035294283,9.680389
82386931483168,-0.042089645,0.05612132,9.795724
82386951339552,-0.094444305,0.04209522,9.771173
82386971195809,-0.07272917,-0.046130273,9.69969
82386991053765,-0.08073136,0.02915212,9.651149
82387010910149,-0.14297792,0.08152788,9.784066
82387030766662,-0.14303045,0.042016204,9.9420805
82387050623045,-0.0932217,-0.012389902,9.934009
82387070470000,-0.035845023,-0.030588318,9.818561
82387090326129,0.0035588408,0.05253772,9.71442
82387110182384,-0.02769157,0.0074778553,9.57742
82387130038512,-0.02068302,-0.031974953,9.683279
82387149894769,-0.056657676,0.09492972,9.888761
82387169752075,-0.070808195,0.004266317,9.89702
82387189608331,-0.024875997,-0.08022566,9.863128
82387209464460,0.019799747,-0.07548186,9.82833
82387229320715,0.024173362,-0.008860947,9.766766
82387249176843,0.043439057,-0.04210952,9.751244
82387269033100,0.13803759,0.013459843,9.866791
82387288890092,0.04293879,-0.02789904,9.786112
82387308746348,-0.0227957,-0.13887997,9.730379
82387328602477,0.01585621,0.022906706,9.785589
82387348458732,-0.09185788,0.11729156,9.746775
82387368316093,-0.18813764,0.023110308,9.756635
82387388172350,-0.07837812,0.033395402,9.76029
82387408028479,-0.06945792,-0.0028965618,9.751486
82387427884736,-0.058418956,0.05204307,9.863275
82387447740993,-0.09318522,0.06968372,9.79051
82387467597122,-0.12961729,-0.04114607,9.774584
82387487455401,-0.058999445,-0.03291633,9.81221
82387507311530,-0.034583014,0.054151174,9.745816
82387527167787,-0.06430322,0.07667369,9.694529
82387547024044,-0.114671186,0.08200299,9.738806
82387566880301,-0.15512882,0.027931497,9.850346
82387586731882,-0.08357024,0.05172365,9.883412
82387606588011,-0.039164122,0.103074014,9.847684
82387626444140,-0.035623375,0.0401374,9.738029
82387646300269,-0.09924136,-0.0035764738,9.688927
82387666158560,0.021258468,0.0662933,9.767329
82387686014689,0.09528508,0.09666962,9.77054
82387705870946,0.034500033,0.09290434,9.776598
82387725727059,0.019775871,0.07295269,9.877809
82387745583316,-0.013869625,0.05554908,9.873111
82387765439443,-0.02990919,0.08220948,9.778543
82387785296791,0.0086966865,0.14036225,9.695562
82387805153048,0.05473265,0.13382575,9.694865
82387825011122,0.12172206,0.06364378,9.767765
82387844867250,0.08096686,0.12713054,9.831166
82387864723507,0.0100170765,0.100855276,9.86366
82387884580909,-0.0033197652,0.07741549,9.792852
82387904437165,-0.04936284,0.037371323,9.668698
82387924293422,-0.01132385,0.087586075,9.69144
82387944149805,-0.012027221,0.13849269,9.7595825
82387964008201,-0.037551124,0.10958168,9.851423
82387983864586,0.025384203,0.039489042,9.771306
82388003720841,0.014537852,-0.01878259,9.727972
82388023577225,0.04615005,0.09957315,9.816393
82388043433610,-0.005125179,0.1708464,9.746893
82388063289865,-0.028764252,0.07039298,9.75761
82388083147389,0.045505196,0.08795034,9.822317
82388103003774,-0.045658126,0.07023134,9.836772
82388122860157,-0.044878185,0.07897037,9.863461
82388142716542,0.007964077,0.18936847,9.971832
82388162572927,-0.0014363951,0.18357825,9.726874
82388182430053,-0.06972136,0.038772114,9.650825
82388202286437,0.025808973,0.023831211,9.641596
82388222142694,0.025038106,0.09630612,9.7361355
82388241999077,0.0035138829,0.17846262,9.764551
82388261861880,-0.053431567,5.8307045E-4,9.733182
82388281718265,-0.061644945,-0.016177824,9.739637
82388301574778,-0.07267576,0.05316129,9.751024
82388321431163,-0.018303884,0.046784315,9.720118
82388341287676,0.020039592,0.0038843588,9.726828
82388361144061,0.07157836,-0.028917907,9.709009
82388380999500,0.07520074,-0.01555133,9.8336315
82388400856013,0.020883135,0.0191702,9.85823
82388420712526,-0.031289306,-0.047549058,9.799885
82388440568911,0.008774517,0.0042893286,9.733094
82388460425424,0.051204327,-0.021727799,9.689315
82388480276005,0.076070055,0.05684462,9.717032
82388500132390,0.029329661,0.0388654,9.749501
82388519988775,0.03857615,-0.037233084,9.821373
82388539845160,0.04809213,-0.006374715,9.830076
82388559701545,0.012142251,-0.010363875,9.866392
82388579557930,0.03488482,0.0650868,9.826431
82388599403441,0.026450751,0.02474068,9.726935
82388619259698,0.05035081,-0.01401043,9.736702
82388639115955,0.027998142,0.025037348,9.790099
82388658972084,-0.023755642,-0.020773103,9.864778
82388678820873,-0.03702702,-0.019476736,9.924123
82388698676874,-0.053463176,-0.0014993111,9.818374
82388718532853,-0.056049477,0.014083199,9.703929
82388738388854,-0.034934737,0.020487873,9.704777
82388758244855,-9.4516244E-4,-0.022832733,9.7403345
82388778104150,6.961754E-4,0.05736096,9.838406
82388797960150,-0.06271578,0.042399526,9.871141
82388817816279,-0.115193374,-0.0358849,9.862672
82388837672278,-0.10056676,-0.05094543,9.797368
82388857528278,-0.08419227,0.03251787,9.673258
82388877384407,-0.078010574,0.040254008,9.721333
82388897237456,-0.09981925,0.1453063,9.758547
82388917093456,-0.14478971,-0.024319377,9.73047
82388936949457,-0.07108223,-0.0037547136,9.778379
82388956805456,-0.10853872,0.04579735,9.818899
82388976663791,-0.14612088,0.113970175,9.806271
82388996519792,-0.13392784,0.05421543,9.706091
82389016375791,-0.04751624,-0.022241889,9.775104
82389036231919,-0.03170809,0.03453246,9.810305
82389056087920,-0.045529295,-0.015776856,9.793807
82389075941315,-0.019983616,-0.009944685,9.782999
82389095797315,-0.03329849,-0.017853279,9.768137
82389115653316,-0.064093105,0.018219005,9.79935
82389135509315,-0.06577647,0.005075995,9.824926
82389155365315,-0.054465227,-0.09408363,9.7709255
82389175221316,-0.048925236,-0.10420972,9.763064
82389195074292,-0.012934591,-0.09621534,9.8063755
82389214930164,-0.031243905,-0.0012404395,9.86253
82389234786037,-0.07447222,-0.083460115,9.813404
82389254641908,0.023902088,-0.14917347,9.663807
82389274500504,0.040641166,-0.011204932,9.703632
82389294356377,-0.022292495,0.16412231,9.779843
82389314212248,-0.10482026,0.1918243,9.785378
82389334068120,-0.10177206,0.14791492,9.773302
82389353924121,-0.07744259,0.15463524,9.765381
82389373783260,-0.07971092,0.17634,9.927484
82389393639261,-0.11539103,0.2363648,9.870256
82389413495262,-0.115130596,0.14622484,9.779357
82389433351135,-0.054723393,0.15970638,9.786606
82389453207136,-0.059621084,0.17608757,9.866581
82389473063137,-0.030049453,0.06486537,9.842042
82389492927390,-0.03994842,0.032529123,9.72118
82389512783519,-0.065117985,-0.03798065,9.702808
82389532639520,-0.06153008,-0.007143928,9.699438
82389552495649,-0.0024085373,-0.054710034,9.706705
82389572353588,0.088296145,0.030515755,9.82735
82389592209717,0.0671354,-0.00828345,9.936566
82389612065846,0.010754293,-0.050821103,9.819249
82389631921975,-0.0049760332,-0.09590497,9.7065935
82389651778104,0.027778625,0.070108294,9.762672
82389671634233,-0.05495245,0.05172884,9.712383
82389691485316,-0.027173454,-0.05360753,9.767003
82389711341445,0.0013705111,-0.064619444,9.834482
82389731197446,-0.060373504,-0.01755089,9.865817
82389751053428,-0.11602384,0.03164548,9.841542
82389770909557,-0.11253029,0.05498775,9.788156
82389790778161,-0.063756675,-0.06858626,9.645775
82389810635625,0.004541514,-0.098798156,9.688285
82389830492010,0.047841236,-0.0015230166,9.785558
82389850348265,-0.037455697,0.06628276,9.787232
82389870207520,-0.055619214,0.003761278,9.761416
82389890064033,-0.009772744,-0.023921411,9.767268
82389909920544,-0.05275555,-0.039201308,9.788987
82389929777056,-0.06454383,0.14921851,9.862645
82389949633569,-0.09069095,0.047824565,9.757742
82389969490080,-7.0998387E-4,0.009522558,9.79455
82389989342790,0.0033082739,0.12060724,9.78685
82390009199175,-0.074211985,0.09092462,9.805975
82390029055686,-0.11004945,0.1119732,9.787405
82390048912198,-0.1615601,-0.018809237,9.72387
82390068768711,-0.047037747,0.010210329,9.774606
82390088621454,0.016014267,0.05820588,9.773556
82390108477838,0.015245336,-0.004981495,9.69783
82390128334351,0.008750823,0.04202876,9.817782
82390148190734,-0.033706967,0.043225583,9.880677
82390168050904,-0.0604847,-0.02961493,9.808004
82390187907417,0.009140677,0.033505935,9.692638
82390207763800,-0.013671161,0.038340956,9.645743
82390227620184,-0.05171332,0.07859493,9.70466
82390247476569,-0.07471283,0.03919197,9.720923
82390267333080,-0.06406383,0.038095936,9.84127
82390287188305,-0.068579264,0.054758873,9.95549
82390307044690,-0.117025405,0.08628679,9.943869
82390326901073,-0.10608751,0.052024778,9.747593
82390346757329,-0.0427309,0.008315097,9.621327
82390366613714,0.0605732,-0.008154895,9.674304
82390386475741,0.02999326,0.09350482,9.843932
82390406332254,-0.052440047,0.07596882,9.833563
82390426188895,-0.058383547,-0.03583335,9.77228
82390446045404,-0.03695695,-0.05670165,9.812934
82390465898295,-0.075475164,0.036159903,9.854032
82390485754680,-0.0021538364,0.01281181,9.683384
82390505611191,0.08333944,0.010961282,9.708569
82390525467575,0.048090193,0.04784638,9.804564
82390545324088,-0.043679073,-6.197003E-4,9.791594
82390565180471,-0.04835352,-0.027046928,9.832753
82390585031668,-0.05923762,0.0626111,9.799896
82390604888053,-0.09337452,-0.025059272,9.7859535
82390624744436,-0.0012642451,0.03023448,9.752453
82390644600820,0.03828808,0.058919985,9.761596
82390664457205,0.01009147,0.024570145,9.829872
82390684306907,-0.06088322,0.073797226,9.794129
82390704163163,-0.093281,-0.045508068,9.732849
82390724019292,-0.052531634,0.0017138235,9.781155
82390743875547,-0.06722999,0.06725206,9.779506
82390763730840,-0.06724717,-6.7553826E-4,9.823198
82390783586969,-0.037137926,0.006859835,9.799361
82390803443096,0.003025427,-0.053083867,9.778867
82390823299225,-0.033005808,0.08790857,9.861282
82390843155482,-0.08273595,0.094472736,9.818148
82390863011611,-0.04589765,-0.0174676,9.761831
82390882867267,-0.043015588,0.009068776,9.763761
82390902723396,-0.08406952,0.045185305,9.759773
82390922579523,-0.07748895,0.04217652,9.782729
82390942435651,-0.040734343,0.017277054,9.736286
82390962291780,-0.030060401,0.020410106,9.824592
82390982149175,-0.03583199,0.06670034,9.874487
82391002005303,-0.0021277075,-0.012505944,9.8212595
82391021861432,-0.017112333,0.004830537,9.696317
82391041717559,-0.07884416,0.024691513,9.67685
82391061573687,-0.08595462,0.07508682,9.78227
82391081429816,-0.10476446,-0.003833794,9.85358
82391101287973,-0.053661764,-0.024699163,9.825537
82391121144229,-0.107142605,0.06388206,9.875161
82391141000358,-0.10140629,0.11137796,9.747257
82391160856613,-0.101859465,-0.046619985,9.663803
82391180716473,-0.017644424,0.07098791,9.693503
82391200572730,-0.05587949,0.08079089,9.826041
82391220429113,-0.08858794,-0.056844212,9.83851
82391240285369,-0.09718955,-0.0018656879,9.722323
82391260141626,-0.026063425,0.0041528475,9.754611
82391279995498,-0.021083213,0.16379765,9.813473
82391299851754,-0.093587466,0.048916593,9.712466
82391319707883,0.011923997,0.009354081,9.782837
82391339564012,0.010462071,0.04402829,9.766947
82391359420266,-0.051307186,0.059668116,9.820831
82391379276395,-0.05053943,0.17654324,9.908293
82391399132577,-0.050705273,0.05905765,9.709612
82391418988833,-0.0012198313,-0.06809826,9.66334
82391438845090,-0.010441496,0.14512387,9.795486
82391458701345,-0.092908785,0.1754369,9.789508
82391478561587,-0.10190896,0.080770515,9.810136
82391498417844,-0.048107468,0.09682869,9.700789
82391518274229,-0.061502494,-0.060756102,9.779697
82391538130486,-0.041031532,0.13757612,9.799068
82391557986871,-0.076097,0.06557963,9.751831
82391577836672,0.061953094,0.07115431,9.772733
82391597692801,0.008514818,0.10252281,9.658458
82391617548930,0.037922002,-0.023696583,9.627426
82391637405059,0.034981508,0.111826725,9.891179
82391657261188,-0.12637398,0.1556429,10.077996
82391677117317,-0.14946088,-0.005411614,9.947405
82391696975694,0.013571957,-0.08471179,9.577842
82391716831823,0.04690869,-0.028035922,9.687237
82391736687952,-0.049381558,0.25041112,9.809853
82391756544069,-0.0491695,0.037557587,9.773128
82391776405852,0.09103853,-0.03076378,9.797686
82391796262237,-0.012024418,0.05209269,9.84885
82391816118492,-0.14434166,-0.006460425,9.84941
82391835975466,-0.10607188,-0.093465194,9.699549
82391855831851,-0.0059284954,-8.634191E-4,9.653185
82391875687516,0.034627672,0.22246556,9.848878
82391895543772,-0.023116522,0.106999785,9.820937
82391915400157,-0.10255738,-0.10556871,9.846336
82391935256412,-0.14667536,-0.06816774,9.877071
82391955112796,-0.20589526,-0.048155796,9.706138
82391974969053,-0.10278817,-0.115183495,9.592978
82391994830568,0.013253731,0.06427983,9.679694
82392014686952,-0.017562727,0.10636873,9.781425
82392034543465,-0.02956167,0.009995925,9.752216
82392054399976,-0.04773314,-0.050800607,9.771811
82392074260022,-0.08661334,0.032732386,9.938044
82392094116535,-0.15550108,0.018975643,9.882557
82392113973174,-0.15192112,-0.06005338,9.803091
82392133829686,-0.077654906,0.027197162,9.868747
82392153686199,-0.022816898,0.0690945,9.705135
82392173542838,-0.020972954,0.042688675,9.642485
82392193353264,-0.041506328,0.10267738,9.708604
82392213209009,-0.13054349,-0.039856035,9.659802
82392233064624,-0.12217594,-0.017027847,9.634791
82392252920240,-0.056737646,0.09366007,9.658423
82392272775985,-0.052456263,0.07691727,9.665972
82392292641724,-0.057975505,0.0313425,9.58432
82392312497468,0.048135035,0.002046106,9.499512
82392332353213,0.031035494,0.16549109,9.5905485
82392352209084,-0.07519342,0.048966452,9.483907
82392372070003,-0.0108353235,-0.001329249,9.479103
82392391925748,0.04960824,0.09820297,9.549094
82392411781619,-0.12433247,0.03417944,9.625509
82392431637492,-0.19601144,0.049910016,9.7827835
82392451493365,-0.11874909,0.064678326,9.811851
82392471349238,-0.05547944,0.054283302,9.769729
82392491204415,-0.033484977,0.1537647,9.712031
82392511060160,-0.03966042,0.13389865,9.762813
82392530916033,-0.016278448,0.06818366,9.704252
82392550771906,0.021319078,-0.018364478,9.555343
82392570627651,0.025788635,-0.021896178,9.55394
82392590484792,-0.03430597,-0.010080259,9.508555
82392610340665,-0.11517217,-0.0714562,9.495381
82392630196410,-0.09185643,-0.04802723,9.567929
82392650052283,-0.04893357,-0.103161804,9.675835
82392669913502,0.027793063,-0.070411325,9.731526
82392689769375,0.017996648,0.017407894,9.708211
82392709625376,-0.054167613,-0.010840786,9.762033
82392729481234,-0.09371577,-0.015124838,9.740863
82392749337107,-0.058440838,0.017794257,9.557755
82392769192978,0.016097955,0.03171245,9.533609
82392789057877,0.037748743,0.090495,9.6083765
82392808914006,-0.11956728,0.03586442,9.69104
82392828770005,-0.24232441,-0.056596182,9.7343445
82392848626133,-0.2540354,-0.1034576,9.589162
82392868482134,-0.14292264,-0.071130134,9.471965
82392888344156,-0.058049694,0.027263561,9.595278
82392908200284,-0.12436789,-0.018690335,9.592875
82392928056541,-0.13058296,0.016551642,9.611694
82392947912796,-0.11057014,-0.01814634,9.695612
82392967774178,-0.119670615,-0.030214746,9.7476845
82392987630435,-0.13309723,0.00853273,9.742995
82393007486690,-0.099182785,0.10288011,9.6236
82393027343074,-0.12046199,0.0050954837,9.596067
82393047199331,-0.026834177,0.008750365,9.582015
82393067055586,0.049688857,0.059240125,9.62743
82393086909581,0.05779582,0.09853336,9.683032
82393106765838,1.5803121E-4,0.15157264,9.72482
82393126622093,-0.1390219,0.064108685,9.586839
82393146478478,-0.18335359,0.028592236,9.512846
82393166334735,-0.11927147,0.10766912,9.576347
82393186190326,-0.09809759,0.11313564,9.561269
82393206046582,-0.07999158,0.13891153,9.52571
82393225902839,-0.09975393,0.115745194,9.567561
82393245759094,-0.10123145,0.07999067,9.581064
82393265615350,-0.24959923,-0.105513506,9.608191
82393285471607,-0.24108298,-0.03124306,9.695689
82393305332786,-0.21656036,-0.054827306,9.725908
82393325189171,-0.19198912,-0.02818347,9.645899
82393345045684,-0.19287406,-0.06811859,9.621144
82393364902069,-0.11655581,-0.100543275,9.722398
82393384764280,-0.05795458,-0.011506368,9.617911
82393404620921,-0.047442645,0.18178864,9.633819
82393424477562,-0.031545445,0.33141348,9.862024
82393444334075,-0.02642126,0.33390105,9.808935
82393464190716,-0.07844272,0.24670559,9.688
82393484054281,-0.0811097,0.28856355,9.678034
82393503911050,0.041405633,0.41015106,9.682807
82393523767819,0.20258568,0.65072286,9.688891
82393543624588,0.2876399,0.8317662,9.742753
82393563481485,0.36424932,1.1419653,9.865923
82393583338254,0.31208706,1.4299225,9.960063
82393603197863,0.3005599,1.4913659,10.043946
82393623054760,0.13954663,1.52493,10.381135
82393642911785,0.0073940246,1.5920742,10.91036
82393662768682,-0.22400957,1.5731999,10.894164
82393682625707,-0.53264797,2.596066,10.737374
82393702492066,-1.9587393,-0.61711687,9.895636
82393722349347,-2.948183,-2.0430818,9.270763
82393742206607,0.41657346,0.17446253,9.767189
82393762063760,1.9265913,0.7578352,9.938162
82393781921041,2.7137659,1.1638231,9.658957
82393801753251,1.5056375,1.0253766,9.541598
82393821609763,0.19742386,1.2684413,9.833666
82393841466147,-0.45057753,0.70633113,10.113617
82393861319897,-0.44692695,0.4684091,9.927191
82393881176281,0.066813834,1.0163473,9.312193
82393901040100,0.8432064,1.3142692,8.758774
82393920896740,1.3703866,1.6085613,8.332439
82393940753380,1.1723346,1.6189158,8.462765
82393960610020,0.6293045,1.4114066,8.489705
82393980466660,0.49092567,1.4160205,8.573609
82394000321558,0.6339566,1.6780355,8.811578
82394020178198,0.791763,1.5351902,9.165045
82394040034838,1.2318126,1.4112455,9.51069
82394059891478,1.1215235,1.8095733,9.5833645
82394079748118,1.1892503,2.0671523,9.892211
82394099598529,0.68855697,2.2238,9.744899
82394119455041,0.72564584,1.9507439,9.601441
82394139311553,1.0008737,1.8205801,9.767448
82394159168065,1.1980616,2.1691244,9.889842
82394179024577,1.5870351,2.955446,10.073776
82394198878182,2.0196147,3.4634216,10.152296
82394218734566,2.129463,2.9402473,9.847403
82394238591079,0.79428816,1.27073,10.526958
82394258447464,-1.2302244,-0.5258821,13.413418
82394278303846,-2.9169774,-5.3254805,13.799692
82394298166873,-0.5112764,-7.2924294,11.56529
82394318023385,1.511551,-1.807597,7.5309463
82394337879897,2.9065816,0.8743035,4.240262
82394357736409,2.8562455,-0.42788762,5.983795
82394377593050,1.5416545,-2.2745352,9.848103
82394397445947,-0.5378243,-3.0600293,10.529925
82394417302460,-3.1609864,-3.849639,11.030383
82394437158845,-4.739271,0.16363786,11.420554
82394457015358,-3.2895687,3.9261115,11.264126
82394476871871,-0.99035674,0.9583288,10.373244
82394496729084,-0.643215,0.00993509,8.894192
82394516585597,-0.37782642,1.145501,7.7448435
82394536442110,-0.30509233,0.5465253,8.01187
82394556298623,-0.0018141436,0.46022388,8.896511
82394576155136,-0.38278985,1.0739945,9.961082
82394596005699,-1.348265,1.3782204,10.056246
82394615862084,-0.5091397,0.9149755,9.365813
82394635718597,-0.08912081,-0.06464698,8.755918
82394655574982,0.0013544164,-0.1955769,8.51689
82394675431495,0.36750606,0.25413156,8.505239
82394695275892,-0.2708227,0.20678449,9.146564
82394715132021,-0.85565966,0.8331553,9.969356
82394734988150,-1.1560454,2.205105,11.338201
82394754844279,-1.1555545,2.3246353,12.3962965
82394774700518,-0.044945598,3.3345404,12.499092
82394794556346,0.103954636,2.4262955,12.149885
82394814412474,-0.9562626,1.7551745,11.982273
82394834268602,-2.560667,1.5233101,12.282197
82394854124730,-3.0655634,1.8975931,13.020311
82394873980730,-2.438397,-0.08336573,11.861303
82394893831422,0.4699583,0.17441481,11.609345
82394913687294,-0.97695243,0.5897485,10.919087
82394933543294,-4.445517,-2.9489784,11.486669
82394953399294,-5.5345964,-4.0536127,11.675443
82394973255166,-4.960396,-1.9561865,11.0930805
82394993114593,-5.7111015,-0.012568735,11.296292
82395012970593,-5.0819883,1.1877186,11.207677
82395032826593,-3.5387177,0.36109847,9.174562
82395052682465,-3.9817243,-2.070799,7.4719353
82395072538465,-5.4625235,-5.5370865,5.630026
82395092393362,-5.88374,-8.023097,4.0106535
82395112249362,-3.8929682,-6.335392,4.0573955
82395132105362,0.6998471,-3.7059534,6.0596304
82395151961362,3.2956014,-0.08020004,6.5145535
82395171817234,4.1948347,-0.14502952,6.6976147
82395191672890,4.503874,-0.78707856,6.939333
82395211528762,3.1344001,-0.6856449,7.824708
82395231384762,2.154002,-1.9434494,8.483129
82395251240634,0.68151385,-1.3639908,9.183095
82395271096634,0.7679922,0.9380192,10.489591
82395290961791,0.87967086,3.5111825,13.067534
82395310817919,-5.387144,10.711291,17.667135
82395330674047,-9.774625,5.671807,12.757989
82395350530175,-4.14769,-9.471802,4.035618
82395370386304,-3.4254446,-8.299458,6.9799814
82395390242335,-0.030244017,-8.926791,12.589851
82395410098464,5.018502,-5.698506,17.996937
82395429954593,0.19623809,6.329948,15.346822
82395449810722,-5.4910035,1.7527728,5.8087516
82395469666851,4.208951,-6.8999877,7.732146
82395489516414,3.8095894,-8.861107,9.204417
82395509372415,2.0561833,-6.758286,11.372931
82395529228416,-1.516604,-0.31077242,13.084513
82395549084417,-4.0144286,2.4690356,11.675147
82395568940546,-0.91461396,-2.959295,8.499193
82395588796547,-0.6483699,-4.377196,6.8555803
82395608648726,-0.9054774,-0.69411755,9.820999
82395628504727,-0.9374677,-0.28709564,10.797971
82395648360600,-0.06937155,0.24919252,9.422535
82395668216601,0.2913112,0.29931,8.957552
82395688072474,-0.7559952,0.38948262,9.244887
82395707931223,-2.0444593,-1.2607114,9.686217
82395727787224,-2.8660476,-1.7834713,9.694072
82395747643225,-3.161308,-1.398357,9.296047
82395767499098,-1.7651395,-2.8137662,9.676671
82395787355078,-2.8156,0.5013118,10.143803
82395807194720,-4.565274,3.6334577,9.550047
82395827050336,-4.4435134,3.0877752,8.935357
82395846905952,-0.55210596,-0.5320518,10.422905
82395866761471,1.6153148,-3.152985,16.741499
82395886617215,-2.1640203,-5.0731897,14.472245
82395906476214,-5.1897593,-3.7527514,12.224964
82395926331958,-8.479366,-0.21966599,10.350796
82395946187830,0.28086573,7.350869,10.851413
82395966043574,7.0233874,-1.3272666,14.2617235
82395985899318,4.951828,-3.2975833,15.381791
82396005718838,0.1723656,3.7880821,11.400308
82396025573942,0.29560742,10.393752,5.776466
82396045429046,1.1103375,11.123799,3.6310956
82396065284022,3.2180514,8.090203,4.6372
82396085139126,2.9571388,3.0093138,5.573716
82396105010608,-2.4948068,-0.20055719,7.385808
82396124865968,-5.602862,0.455199,7.7888446
82396144721328,-4.5652747,2.162593,6.9527144
82396164576560,-3.3681078,0.65517235,6.8922305
82396184431920,-3.1463766,-0.9675683,6.984633
82396204299751,-2.3603647,-0.9490316,7.99678
82396224155239,-0.36517432,-0.22721316,9.421209
82396244010727,1.5664241,-1.5026697,10.111453
82396263866343,2.3834126,-4.9037347,11.39533
82396283721831,8.249442,-7.080136,12.611538
82396303585393,11.712744,2.8686569,6.897727
82396323441009,5.2305856,13.834214,4.4452906
82396343296625,2.1877382,8.319309,10.328197
82396363152114,1.2019665,5.508543,14.213262
82396383007731,-3.6135304,-3.1829078,20.71419
82396402877738,-0.62086815,-15.502341,14.230572
82396422733611,-2.7389562,-4.220385,2.6917002
82396442589484,-4.59425,2.165667,4.8935847
82396462445485,-5.042596,2.3261502,10.873009
82396482301358,-6.6057935,6.575096,13.240491
82396502160795,-2.425593,8.163923,11.533277
82396522016668,6.330189,1.1078274,10.436208
82396541872541,7.5850387,-3.9127495,10.011446
82396561728542,-0.006072419,1.4572691,7.6713586
82396581584415,0.013286629,1.1926099,7.8523145
82396601446406,0.83151037,0.018394355,9.449357
82396621302407,0.959839,0.3939351,9.880211
82396641158536,0.7803708,0.3404194,9.707627
82396661014665,1.2899883,-0.09494032,9.478633
82396680870794,2.294987,-0.02303685,9.977093
82396700737393,2.5911975,0.3804791,10.246731
82396720593778,1.0818188,1.7600416,10.300898
82396740450016,1.8974022,1.1941612,10.091612
82396760306272,3.3050358,0.58282584,9.99937
82396780162656,2.5656843,1.5692364,10.515097
82396800032126,1.7860129,2.7218935,12.083444
82396819888766,1.0929189,1.0367619,12.175882
82396839745406,1.0058957,-1.2682266,11.425161
82396859602046,0.9936021,-4.5824094,11.803662
82396879458686,-2.4634166,-1.766393,10.792613
82396899321647,-5.532899,1.6096573,9.946407
82396919178543,-3.9071567,1.4062792,10.917301
82396939035439,-2.1586933,0.6720008,11.4787245
82396958892207,0.20418537,0.5687998,11.556466
82396978749103,1.0073096,0.025421945,10.5371475
82396998611942,-0.6436613,1.5108502,8.641015
82397018469094,-2.9572344,2.20487,7.1447687
82397038326118,-2.2984424,1.0344682,6.746415
82397058183270,-1.4269109,1.2347728,6.48545
82397078040422,-2.2069902,1.5442905,7.5564203
82397097891657,-1.1610782,-0.01948237,6.5012093
82397117748681,-1.1277978,-0.9262698,4.6919813
82397137605705,-2.2020888,-0.32920352,5.643367
82397157462730,-2.0125885,1.1278232,7.249101
82397177319755,-1.3889621,2.2878158,8.694679
82397197173184,-0.07708182,0.81039953,9.914892
82397217030208,2.253827,-2.0130198,11.778776
82397236887232,6.1873083,-6.7755585,14.235934
82397256744256,4.969146,-5.253686,12.745953
82397276601280,-0.9592787,3.0878963,10.436328
82397296458925,-4.3610296,6.6343026,9.452556
82397316316206,-3.7628636,3.4477897,10.179072
82397336173359,-4.026115,1.1241937,10.276703
82397356030512,-0.6901518,-1.1459492,9.590212
82397375887661,1.583569,-4.853003,9.221126
82397395736162,-1.6292729,-1.4606547,9.188656
82397415593058,1.4371309,3.1787634,8.40056
82397435450082,1.2967457,3.748614,13.102874
82397455306978,0.25937137,3.8664885,14.762021
82397475163874,0.6071809,2.4018402,12.326684
82397495018246,0.38169625,0.45020455,10.027677
82397514875142,-0.59038013,0.07752588,8.971862
82397534732166,-1.9686168,0.3767829,8.367533
82397554589062,-1.4995674,1.2674813,8.132167
82397574445958,-0.9499966,2.268077,8.563613
82397594278217,-0.07575798,2.007613,9.418656
82397614134345,0.65600204,0.5130632,10.163321
82397633990473,0.35815546,0.8056105,10.700793
82397653846473,0.24957222,0.76908803,10.774869
82397673702601,-0.031039055,-0.1072812,10.261048
82397693563067,-0.66242826,-0.038617004,9.713488
82397713419323,-1.0257422,0.575085,9.589101
82397733275451,-0.5770835,0.9994954,9.491723
82397753131579,-0.28981337,1.2763618,9.46327
82397772987707,-0.13831562,0.63802415,10.083608
82397792851454,0.26054463,-0.91349167,10.686817
82397812707711,0.40121317,-1.7350603,10.12753
82397832564094,0.5162587,-1.7511662,10.260172
82397852420350,-0.073022895,0.031503282,10.353062
82397872275930,-0.50092334,2.0347471,10.672381
82397892137367,-0.8175881,2.9796047,10.335978
82397911993751,-0.32749578,3.3477345,9.868449
82397931850263,0.28578776,1.9441394,9.509083
82397951706647,-0.20296425,-0.73535615,9.750354
82397971563031,-0.4168991,-1.8096312,9.859485
82397991428052,0.7479302,-1.5081089,9.755253
82398011284692,0.79724205,-0.37051028,10.3926
82398031141332,0.45296177,0.7644853,10.312328
82398050997844,-0.059705198,1.0875423,10.145061
82398070854484,-0.42308953,1.319724,9.819954
82398090710283,-0.47711375,2.0567245,9.383331
82398110566795,-0.61518544,0.50261456,9.67984
82398130423435,-0.4371492,-0.5608784,10.027655
82398150280075,-0.3070126,-0.6316653,10.069024
82398170136587,-0.11977353,-0.4296409,10.123695
82398189993410,0.2779009,-0.22051656,10.319395
82398209850050,0.37034088,0.5149165,10.289315
82398229706562,0.40359354,1.6290551,9.585444
82398249563075,0.11535851,2.320255,9.343416
82398269419716,-0.10050809,1.6914634,9.7233515
82398289279009,-0.10219557,0.36484513,10.126619
82398309135649,0.4117,0.07648001,10.287972
82398328992289,0.41623572,0.16627136,10.446748
82398348848929,-0.04303964,-0.24545643,10.2123995
82398368705569,-0.45253113,-0.3631213,9.956869
82398388566085,-0.56023294,-0.23343775,9.826184
82398408422982,-0.1440009,0.381309,10.098971
82398428279751,0.3440691,0.41604975,10.2809
82398448136648,0.37926567,0.11023013,9.850693
82398467993417,0.037760235,0.22001785,9.796456
82398487848240,-0.17079124,0.2553993,10.003377
82398507705009,-0.30674377,-0.21300116,10.29041
82398527561906,-0.18981676,-0.534135,10.575247
82398547418675,-0.004928531,-0.3721471,10.76497
82398567275572,0.22560227,-0.95075154,10.98218
82398587125135,0.39949676,-1.5434183,11.171019
82398606981904,0.69028383,-0.96049154,10.675826
82398626838673,1.1192284,0.3140947,10.09738
82398646695314,1.3612293,1.9494455,9.768505
82398666552083,0.89566153,2.9220896,9.245118
82398686396736,0.35213038,1.7715967,7.8929257
82398706253249,-0.35138917,-0.9519187,7.4849467
82398726109762,-1.3101337,-2.7821105,9.731656
82398745966147,-1.2346705,-1.3864268,9.982224
82398765822642,-1.095502,-0.05480389,9.744566
82398785673173,-0.25142694,0.39078206,9.941672
82398805529429,0.7988742,0.6923138,9.854639
82398825385813,0.61035734,-0.3901411,9.547898
82398845242069,0.2175168,-0.8654402,9.247748
82398865098453,-0.19588502,0.4642489,9.096527
82398884946797,-0.13562904,0.5513708,9.958089
82398904802925,0.28166136,0.026692605,11.336559
82398924659053,0.5042494,-0.5428997,11.682486
82398944515181,0.31149676,-0.9619729,10.881894
82398964371309,-0.05342842,-0.46676195,9.780865
82398984227522,-0.22580534,0.07793438,9.301924
82399004083522,-0.10926392,0.12588689,9.317647
82399023939650,0.28227854,0.18142067,9.54234
82399043795778,0.41760695,0.21311589,9.75254
82399063651778,0.36513126,0.0142599065,10.016416
82399083507906,0.23280606,-0.19556682,10.129693
82399103353390,0.0927395,-0.16265799,9.973838
82399123209262,-0.0298744,0.06416209,9.810286
82399143065134,-0.19751179,0.2438185,9.650138
82399162921007,-0.17993157,0.27100974,9.564948
82399182776752,-0.05681501,0.27127567,9.633802
82399202631293,0.09145404,0.07962694,9.73948
82399222487037,0.19240792,-0.0044357087,9.880463
82399242342781,0.110310204,-0.08394312,9.869677
82399262198397,0.04707575,-0.056671266,9.777266
82399282054141,0.00514735,0.09763225,9.791328
82399301915322,0.049451433,-0.10399645,9.863962
82399321771067,-0.009067814,-0.040431,9.859431
82399341626812,0.01853769,-0.13894813,9.902014
82399361482557,0.05799814,-0.30303273,9.692005
82399381338430,0.07204555,-0.3357898,9.73212
82399401199891,-0.0013293171,-0.35414076,9.843782
82399421055764,0.00860827,-0.28128606,9.963999
82399440911637,0.035543524,-0.1669794,9.958822
82399460767510,0.146652,-0.12379014,9.943743
82399480623383,0.18722083,-0.064486936,9.783348
82399500488830,0.17646067,-0.0038413166,9.678059
82399520344831,0.10351729,0.013431609,9.62562
82399540200960,0.076940805,0.061179984,9.656328
82399560056961,-0.012979959,0.09118343,9.74349
82399579913090,-0.092410624,0.090718925,9.837418
82399599774125,-0.012162539,0.119369075,9.890337
82399619630254,0.0050853724,0.12785827,9.819591
82399639486511,-0.061926045,0.12900329,9.702285
82399659342640,-0.14036013,0.13952056,9.662697
82399679198897,-0.15586603,0.12999654,9.793905
82399699061834,-0.13328612,0.04999445,9.862375
82399718918091,-0.086800516,-0.0010505663,9.915663
82399738774455,-0.06747617,-0.019646807,9.883788
82399758630711,-0.12192377,0.01134224,9.760351
82399778487095,-0.14382768,0.047751665,9.706438
82399798346478,-0.17322686,0.0058115143,9.6415
82399818202862,-0.17103893,0.026022444,9.743111
82399838059374,-0.13597311,0.08051912,9.839758
82399857915758,-0.16486062,-0.017279606,9.894503
82399877770915,-0.13065788,-0.0090273125,9.859966
82399897628408,-0.058454204,-0.0068340246,9.813006
82399917484920,-0.09099439,0.04300659,9.731106
82399937341432,-0.110737965,0.0920747,9.715136
82399957197944,-0.10073874,0.09927376,9.735883
82399977054456,-0.10825924,-0.00846613,9.793478
82399996916143,-0.04645809,-0.02560419,9.865017
82400016772911,-0.08425668,-0.14373228,9.859722
82400036629551,-0.0874338,-0.11169413,9.835121
82400056486191,-0.12390326,-0.12761827,9.737405
82400076342959,-0.13205998,-0.002063313,9.692473
82400096197868,-0.12684731,-0.005718129,9.752873
82400116054636,-0.1125571,0.0064812847,9.916826
82400135911277,-0.11988461,0.012069437,9.957342
82400155768044,-0.04784501,-0.04362131,9.855305
82400175624684,-0.06328385,-0.16015233,9.7500305
82400195460192,-0.107578605,-0.042025063,9.686598
82400215316448,-0.12910058,-0.06768637,9.65702
82400235172832,-0.08254374,0.020105325,9.764638
82400255029088,-0.016964192,-0.03711363,9.788985
82400274885473,-0.022025473,-0.02049348,9.824862
82400294743180,-0.0360116,-0.03947602,9.875332
82400314599565,0.08675378,-0.121169694,9.920904
82400334455822,0.047113813,-0.025587313,9.769822
82400354312079,-0.040632427,0.022907494,9.667823
82400374168464,-0.075894825,0.017489962,9.7352295
82400394023597,0.028011207,-0.039823424,9.754855
82400413879854,0.01686953,-0.07097431,9.725503
82400433736111,0.010470913,-0.016620364,9.740992
82400453592368,0.03626678,0.06300396,9.804795
82400473448625,0.038733646,0.05274454,9.79071
82400493302736,0.026473725,0.0019865257,9.851189
82400513158865,0.094827056,-0.072800815,9.817452
82400533014994,0.066593945,0.0060829446,9.748943
82400552871251,0.09597261,0.050883595,9.752001
82400572727380,0.0158549,-0.025045054,9.816484
82400592573373,-0.009408381,0.040084142,9.763402
82400612429374,0.19517152,0.011889975,9.660946
82400632285375,0.19833618,-0.016911041,9.765552
82400652141248,0.1300064,0.05426784,9.880109
82400671997249,0.118854545,0.11745005,9.841909
82400691841874,0.1009661,0.11123785,9.708916
82400711697491,0.14989066,0.047219884,9.711578
82400731553086,0.15419719,0.015074425,9.777285
82400751408703,0.15790883,0.10569309,9.785233
82400771264318,0.14589308,0.111135,9.721436
82400791125962,0.06454899,0.087244816,9.787925
82400810981706,0.048868254,0.1177725,9.809001
82400830837450,0.08046308,0.1065799,9.790817
82400850693066,0.068022795,0.057576742,9.759307
82400870548810,0.11348581,0.00713882,9.633997
82400890399873,0.03610208,0.039984327,9.717971
82400910255361,0.014551444,0.028182466,9.842479
82400930110977,0.043643836,0.08469871,9.943643
82400949966593,0.09470198,0.10498416,9.931066
82400969822209,0.15439141,0.010687332,9.736257
82400989684274,0.07010243,-0.00909561,9.6399
82401009539890,-0.0058917273,-0.059437927,9.682693
82401029395634,0.051527742,0.02648998,9.710424
82401049251250,0.051058944,0.080550544,9.809825
82401069106994,0.05993045,0.050957534,9.896126
82401088967011,0.08565433,0.002078245,9.8752775
82401108822755,0.066599466,-0.12506649,9.786071
82401128678627,-0.04180845,-0.16431071,9.796279
82401148534371,0.024862427,-0.15528008,9.498847
82401168390116,-0.058920566,-0.14604966,9.681818
82401188254101,-0.04936451,-0.09610306,9.910114
82401208110100,0.021915523,-0.11955205,9.850405
82401227965973,-0.06495765,-0.12127078,9.835486
82401247821972,0.0064599435,-0.124233894,9.786991
82401267677844,0.06169996,-0.13299923,9.742111
82401287541645,0.056218743,-0.0990238,9.702321
82401307397901,-0.0039165486,-0.07894848,9.690807
82401327254030,-0.07551036,-0.06680839,9.774245
82401347110159,0.022736741,0.024657693,9.940725
82401366966288,0.16102766,-0.04403649,9.9420595
82401386830577,0.13210624,-0.091780744,9.862526
82401406686962,0.084180504,-0.02857921,9.661998
82401426543347,-0.069006786,0.07240233,9.548108
82401446399732,-0.22966087,0.037805602,9.689249
82401466255989,-0.15080367,0.049985904,9.786829
82401486117840,4.375612E-4,0.092832096,9.867882
82401505974353,0.0910555,0.034279812,9.915586
82401525830866,0.066994965,-0.018805332,9.865474
82401545687251,-0.033450842,0.009114007,9.796675
82401565543764,-0.0226938,0.03895196,9.642005
82401585400277,0.055109855,-0.001328701,9.598442
82401605263586,0.0026276151,0.12566942,9.706593
82401625120227,-0.02594228,0.18518943,9.816478
82401644976996,-0.13651894,0.16734701,9.92899
82401664833637,-0.0527658,0.031148382,9.927862
82401684690406,0.17553918,-0.035011835,9.848499
82401704549551,0.18192326,0.06659526,9.74501
82401724406448,0.06659997,-0.0014572582,9.643312
82401744263197,-0.18674736,-0.0073944153,9.815275
82401764119965,-0.05551562,-0.012077747,9.863465
82401783976861,0.13932894,0.036552057,9.887593
82401803828016,0.09634845,-0.008256177,9.731156
82401823684656,-0.04923078,-0.03583152,9.6652975
82401843541296,-0.17968236,-0.009807742,9.701941
82401863397936,-0.06303348,0.016747259,9.754921
82401883254896,0.07982112,-0.020469626,9.808326
82401903110471,0.056780707,-0.034521665,9.8429165
82401922967111,-0.0039570434,-0.065067574,9.883023
82401942823751,-0.08285197,0.04639183,10.015581
82401962680391,0.17479609,0.02028058,9.784557
82401982537159,0.04635598,0.04917644,9.710939
82402002395762,0.013554034,-0.02508721,9.652301
82402022252530,-0.120217286,-0.008183084,9.74964
82402042109170,-0.032799616,-0.04371349,9.833909
82402061965938,0.029754499,0.01316358,9.831119
82402081822706,0.0772668,-0.0066580875,9.767786
82402101681205,-0.0743349,0.0061570616,9.797342
82402121538101,-0.099293806,-0.10518714,9.757101
82402141394870,-0.04140748,-0.013118873,9.731408
82402161251767,0.026721604,2.6525138E-4,9.785738
82402181108664,0.061601732,0.0021851975,9.84151
82402200961319,-0.13765156,0.0012674767,9.870197
82402220818088,-0.007813979,-0.0374707,9.771403
82402240674723,-0.011006777,0.06546742,9.74097
82402260531491,0.10459267,0.021993833,9.798042
82402280388259,0.061172083,0.1470876,9.82728
82402300247355,0.004453787,0.12838288,9.827607
82402320103995,0.020500846,0.066481344,9.671645
82402339960763,0.02767328,0.06906307,9.801827
82402359817403,0.029792823,0.057311635,9.785173
82402379674172,-0.009797853,0.10332265,9.817544
82402399531611,-0.06893663,0.018383376,9.836176
82402419388380,-0.110639006,-0.024821632,9.793776
82402439245149,-0.13832301,-0.05773973,9.879713
82402459101918,0.024144938,-0.1170964,9.7621355
82402478958687,0.030424288,-0.0010929459,9.72596
82402498806362,0.008992661,0.15393488,9.655355
82402518662875,-0.057681594,0.19273569,9.69019
82402538519388,-0.08037645,0.11186994,9.897868
82402558375901,0.03203005,0.073217824,9.912199
82402578232414,0.11625057,0.064135134,9.912756
82402598078815,0.19765718,-0.033720437,9.7459755
82402617935200,0.0909463,0.01469651,9.678482
82402637791457,0.06053742,0.024777753,9.662402
82402657647842,0.056649234,0.0936571,9.72578
