UPTIMENANO,Ax,Ay,Az
88683652615897,0.6726067,-0.020759432,9.627084
88683672474202,0.7979654,0.3282518,10.061495
88683692332633,1.2892996,0.77551734,10.718457
88683712189208,1.5703275,1.1976058,10.606585
88683732047513,1.017412,1.4310657,10.584434
88683751905816,0.6874308,0.8938554,10.948436
88683771764120,1.2543617,1.5282351,10.935001
88683791622425,0.81424254,1.9634514,10.863007
88683811482056,0.5869683,1.8028678,10.371408
88683831340488,-0.2832004,0.9723759,10.01204
88683851198793,-0.26705718,0.66088843,9.020728
88683871057224,-0.07254479,-0.47333676,8.090038
88683890915528,0.17471781,-0.9192973,8.929619
88683910773961,1.0625926,0.011843268,10.146692
88683930634665,0.9042913,0.18092248,10.0176115
88683950493097,0.3111891,-0.042334642,9.65406
88683970351530,0.22417164,-0.73412997,9.963345
88683990209833,0.15359823,-0.49394238,9.580124
88684010071835,-0.34387204,0.5638857,8.6622095
88684029930396,-0.47297323,0.058445174,9.625253
88684049788827,-0.25037688,-1.166209,10.494585
88684069647387,-0.12755516,-0.47815225,9.4735985
88684089505820,-0.08098956,1.0346278,8.537383
88684109368208,0.8073958,0.72017765,9.444559
88684129226768,2.1053414,-0.4739875,10.727154
88684149085329,1.2470844,-0.69136566,9.989903
88684168944016,-0.23756441,0.023612598,8.597285
88684188802576,-0.64210767,0.03298049,8.8411455
88684208661265,0.21678619,-0.7409984,10.280077
88684228524231,0.5093731,-0.4368974,10.08693
88684248382919,0.0076528024,-0.17900778,9.747468
88684268241608,-0.23410071,0.05054094,9.523255
88684288100295,-0.48508018,0.38976914,9.229771
88684307954538,-0.12208827,0.5106182,9.823133
88684327813227,0.63013107,0.2523605,10.44644
88684347671786,0.94407916,0.428341,10.011461
88684367530474,0.10830396,-0.020867258,9.875678
88684387389163,-0.19464663,0.36521715,9.488126
88684407247722,-0.35178393,0.8126749,8.99985
88684427100632,-0.021499274,-0.21242629,10.092913
88684446959065,-0.49200806,-1.003415,10.827372
88684466817624,-0.6900923,-0.38703117,10.694346
88684486676056,0.060934752,0.6079508,10.787734
88684506534489,-0.08263045,0.4150221,9.526664
88684526393822,-0.13989578,-0.7113713,8.967185
88684546254965,-0.20886382,-0.8226205,9.340815
88684566113398,0.042842433,-0.04601163,10.492149
88684585971957,0.33702916,-0.3057699,10.926696
88684605830218,-0.23839483,-0.72937644,9.897324
88684625688779,-0.39632097,-0.44841453,9.672801
88684645547210,-0.2229623,0.5561151,9.743903
88684665405770,-0.43365073,0.4396975,9.414858
88684685264331,-0.5675665,-0.11306484,9.052176
88684705122890,-0.17388207,0.12407459,9.8049
88684724972149,0.252207,0.33918464,9.854991
88684744830454,-0.062907666,-0.78900135,9.242529
88684764688757,0.09359452,-0.6960371,9.196845
88684784547061,0.49029425,0.75770146,9.420671
88684804405366,0.6723997,1.8742608,10.056239
88684824256991,-0.13416378,1.9110004,9.32869
88684844115295,-0.09359503,1.5390501,9.692621
88684863973472,0.5313964,0.6013157,10.668511
88684883831647,-0.052802388,-0.29374683,9.783438
88684903684302,0.41180605,-0.6538774,9.0207
88684923542351,2.035102,-0.9716031,9.680372
88684943400398,1.1660309,-0.33105615,10.619503
88684963258446,0.5845721,0.17786585,10.225925
88684983116495,0.5727734,0.73432326,10.428799
88685002974414,0.17614517,1.9245687,8.252242
88685022827976,0.8465307,1.5774413,8.374097
88685042685897,0.9888033,1.3579127,7.292243
88685062543816,1.399336,2.541105,6.354302
88685082401608,0.7277062,0.532931,5.7587247
88685102259529,-1.0072482,-3.799989,8.746414
88685122120891,-3.339209,-4.9185147,9.516627
88685141978811,-2.4382093,-2.6600728,12.008012
88685161836860,0.1917355,-1.5771546,14.957814
88685181694907,0.59439415,-0.092648976,16.49334
88685201552827,0.88707787,0.567592,15.505344
88685221410876,1.1081197,0.64271784,12.847511
88685241274220,1.6974425,0.60146207,10.12913
88685261132268,2.2062857,1.1729214,8.241816
88685280990317,2.4259017,1.6808153,7.2315826
88685300848492,2.7471068,1.1582347,6.8874373
88685320700762,2.833108,0.83997107,6.9800363
88685340558683,2.8812308,0.22183138,7.344944
88685360416602,3.1032221,-0.36561835,7.7476983
88685380274394,1.8597927,-0.580854,8.506976
88685400132315,0.0142023945,-2.1368082,9.137902
88685419994397,-1.2806805,-1.9222465,5.7424517
88685439852317,-4.7665267,-1.9958149,4.625398
88685459710366,-5.29192,-2.6222541,11.738252
88685479568285,9.373891,-0.5976347,10.212508
88685499426205,10.352158,0.22780862,7.200899
88685519284126,3.0141845,4.8674903,2.5441883
88685539143910,3.194283,3.6075387,2.128147
88685559001958,4.610673,0.19570926,5.5087976
88685578859879,3.720271,0.10939741,6.0410085
88685598717926,3.2327855,-0.41436172,4.2535863
88685618576200,3.804366,-2.6367111,1.8942473
88685638434249,5.355327,-4.019809,1.8598566
88685658292168,5.1212463,-6.7788076,7.758643
88685678150216,4.340513,-9.091996,12.85976
88685698008137,2.451602,-11.182465,11.665026
88685717871755,0.35828397,-9.23361,11.12187
88685737729803,0.4939231,-6.3934402,17.13084
88685757587979,-2.4164217,-4.9308267,20.753435
88685777446027,-4.331716,-4.4113455,21.077137
88685797304203,-4.8654475,-3.325173,20.799908
88685817162251,-5.0568857,0.18444735,19.04244
88685837019781,-7.536,2.338014,17.842737
88685856877957,-7.941524,2.103751,16.462788
88685876736133,-8.124576,1.6129172,15.973061
88685896594309,-2.2105148,7.9979424,12.626507
88685916452485,4.211958,13.381119,10.785563
88685936311854,1.0296848,6.4032464,12.458912
88685956170030,0.4187262,1.4215947,12.259836
88685976028334,-0.47510767,0.6312583,10.335004
88685995886510,-6.1465497,-3.1876,10.484738
88686015744686,-3.2977803,2.7154593,8.503345
88686035604789,-2.1971736,2.4666166,7.8122334
88686055463093,-3.5094175,1.9158905,4.2037263
88686075321397,-4.6869287,3.0400076,3.3142247
88686095179573,-2.9109957,2.5684664,4.100447
88686115037877,-0.428135,3.313084,3.9124346
88686134896327,3.4536953,1.5191858,3.3987174
88686154754631,-0.4395281,0.04841035,5.6210475
88686174612935,-12.4184065,-0.2995171,8.129649
88686194471239,-9.491068,1.1462157,9.594737
88686214329543,-6.0358458,-0.500455,10.565921
88686234187774,-3.9709795,-1.6072038,9.287275
88686254046078,-0.942519,-0.113863,9.095595
88686273904382,-0.7302203,0.41993812,13.920015
88686293762686,1.6392728,0.54539365,19.972597
88686313620990,8.337126,3.997173,18.529064
88686333480659,9.3904085,1.9742534,15.182135
88686353338963,7.651344,-2.090213,15.619619
88686373197267,2.731724,-3.3920157,13.767797
88686393055571,-1.0130745,0.09837275,8.0455065
88686412914003,0.82096225,-1.5474263,7.6916428
88686432767400,2.4998076,-0.82955325,6.3979697
88686452625704,-1.5202187,-2.2335143,0.6295764
88686472483880,1.9412938,-1.3907497,-0.7164944
88686492342056,-1.2616712,2.2751436,3.0974994
88686512200232,-3.3100483,1.6502881,1.5155448
88686532055086,-5.3162036,-5.3475323,1.6872139
88686551915213,-5.956454,0.7656932,10.556284
88686571773261,-4.094396,5.085274,13.223404
88686591631437,-2.3052385,1.4609106,11.211097
88686611489613,-0.39405736,-2.5984485,10.223435
88686631343004,1.7364979,-1.2331743,9.680812
88686651201052,1.6717343,-0.8514124,8.474751
88686671058972,-0.308449,-0.7480347,9.058261
88686690917020,4.89093,0.29711458,10.359182
88686710774940,1.2523704,-0.5788472,12.353126
88686730635644,1.321315,-0.8706784,10.088231
88686750493564,0.8394899,0.51914835,8.8797245
88686770351612,1.4946592,1.5950603,8.336556
88686790209660,3.020805,2.9565537,8.609351
88686810067708,6.615979,3.999045,12.308065
88686829921040,9.722278,4.386107,18.663532
88686849779088,0.43358964,0.060355548,13.892641
88686869637008,-1.3116533,1.1453803,12.182895
88686889495056,-1.697901,-0.17029409,12.881464
88686909352976,-1.7863114,-0.83929443,12.712592
88686929206824,-1.5181708,-0.076746225,11.32233
88686949064616,-1.355635,0.24860531,9.722582
88686968922536,-2.9001055,-0.50012875,10.467329
88686988780328,-3.1593776,-1.783833,12.425458
88687008638248,1.6820533,0.91517466,10.321263
88687028500921,-2.0860503,0.9758884,7.466942
88687048358969,-3.66675,-2.1168382,7.4071236
88687068216889,-6.0376406,-3.1269383,7.629664
88687088074809,-6.1642804,-5.0814223,8.550717
88687107932857,1.9294482,-2.1840444,6.189373
88687127792052,8.80696,1.9547851,1.2898585
88687147649972,7.5968304,0.5749923,1.5641172
88687167508020,2.3412054,1.5527971,2.3591974
88687187365940,6.955146,1.9310431,18.107542
88687207223988,-1.0531231,2.6172612,27.878633
88687227081207,-8.75065,2.1469615,8.927413
88687246939127,0.8137409,-4.9881816,6.402751
88687266797175,1.5002738,-4.0621333,9.679821
88687286655095,0.12320484,1.0857025,10.041142
88687306513015,-0.163739,1.348015,9.229322
88687326369757,-0.4033693,-0.02940369,9.552033
88687346227677,0.059233397,-1.3610601,11.203497
88687366085725,-0.11057422,-1.5648675,11.572869
88687385943645,-1.1221241,-0.14681476,10.868445
88687405801565,-2.409402,1.6260582,9.961379
88687425660507,-1.9963434,2.1188133,9.44565
88687445518427,-0.92213565,1.9216447,8.936284
88687465376347,-0.2898568,2.4821172,8.68547
88687485234267,-0.35158458,2.606156,8.584182
88687505092187,-1.3525718,1.9987936,8.348656
88687524964046,-2.2126782,1.7038771,8.127333
88687544822222,-2.732161,1.3530796,8.13109
88687564680398,-3.1586936,1.4446844,8.667552
88687584538574,-3.0407324,0.63626534,9.74202
88687604396878,-2.410109,-0.56680083,10.888609
88687624259837,-2.7158604,-0.0973692,10.684892
88687644118141,-2.4750986,0.563458,10.665765
88687663976445,-0.9081595,0.59489506,10.773069
88687683834749,0.8436288,1.1071584,11.392802
88687703693053,1.1497437,0.313493,11.734355
88687723558274,0.03486216,-0.6144211,11.637635
88687743416706,0.18104742,-1.4485893,11.52536
88687763275138,1.0975548,-1.6129911,11.385217
88687783133698,-0.07434474,-0.6377014,10.642237
88687802992130,-0.29647225,0.7789137,11.092747
88687822845818,0.110640615,1.4633229,10.633025
88687842704250,-0.010431887,-0.5015271,9.259591
88687862562554,1.1524785,-1.7681006,9.266187
88687882420986,0.99159014,-1.9385183,8.467879
88687902279418,0.49756876,-1.3436413,7.2570047
88687922140470,1.1141027,0.3015317,7.1835914
88687941999030,1.8305641,0.3586931,7.374344
88687961857590,1.9487137,-0.73727477,7.623933
88687981716022,1.9790392,-1.389619,7.870914
88688001574582,1.0327129,-0.13732429,7.7549872
88688021441241,-0.102294706,0.5199684,8.692091
88688041299929,-1.8363701,0.09325266,10.810191
88688061158617,-3.1648397,2.0683725,13.921718
88688081017305,-1.0872867,0.5595034,12.470142
88688100875993,0.5389606,-2.9797177,9.650279
88688120733553,1.0552142,-0.63810587,9.134256
88688140592241,0.011131245,1.3316507,9.55961
88688160450929,-0.23015335,-3.3521821,9.62696
88688180309617,-0.8446717,-2.0266511,9.106988
88688200168305,0.07705622,0.9119879,9.498737
88688220027267,0.5051091,0.5191914,9.734858
88688239885955,0.18167296,0.57379943,9.668613
88688259744643,0.004782363,0.5405836,9.910575
88688279603331,0.15925199,-0.33102307,9.915202
88688299462147,0.38833684,-0.23097971,9.706276
88688319316952,0.34070694,-0.09320489,9.873678
88688339175640,0.36665434,-0.9835986,9.534322
88688359034328,0.66653615,-1.0039542,9.824813
88688378893016,0.7328847,-0.021614337,9.683759
88688398751832,0.6806173,0.25363225,9.294899
88688418605161,0.6698099,-0.15277846,9.151599
88688438463721,0.60531396,-0.44169092,9.57855
88688458322281,0.30575404,-0.34136352,9.581035
88688478180841,0.18398406,-0.12737137,9.674935
88688498039401,-0.09420679,-0.32423893,9.641964
88688517892359,-0.35573506,-0.77295876,9.768862
88688537750791,-0.45709983,-0.5167692,9.582365
88688557609223,-0.22929128,-0.03733998,9.738128
88688577466972,-0.2103689,0.061078466,9.67894
88688597325276,-0.29974994,0.076394565,9.69357
88688617183708,-0.48340577,-0.20341659,9.782167
88688637041920,-0.4694436,-0.0928129,9.93063
88688656900352,-0.23543826,0.3469847,9.733
88688676758784,-0.058234226,0.13883963,9.613546
88688696617216,-0.014989686,-0.77188885,9.454456
88688716475648,0.1907206,-0.8345891,9.465368
88688736326179,0.35829508,-0.21157089,9.304466
88688756184483,0.42526463,-0.012208592,9.401031
88688776042659,0.37667888,-0.08241617,9.565407
88688795900963,0.14261648,0.07782254,9.81073
88688815759267,0.07967802,0.10869388,9.817736
88688835616900,0.028999427,0.09885841,9.637417
88688855475077,0.1758285,0.07899968,9.656848
88688875333252,0.33918282,0.22712603,9.588852
88688895191556,0.41187325,0.23119874,9.679037
88688915049732,0.38692972,0.101207934,9.734236
88688934901172,0.27925995,0.012353043,9.666036
88688954759220,0.21050632,0.035729285,9.574705
88688974617140,0.3020226,-0.0416176,9.381839
88688994475188,0.18869077,-0.22164646,9.492582
88689014333108,0.024180174,-0.121678285,9.550303
88689034187162,-9.625727E-4,-0.1458575,9.561046
88689054044954,-0.0137270475,-0.13744141,9.703629
88689073902874,-0.09272822,0.21583286,9.737417
88689093760666,-0.11081329,0.0898034,9.601604
88689113618586,-0.12852418,-0.13289542,9.560045
88689133479748,-0.15293144,-0.20404404,9.606174
88689153337796,-0.10643048,-0.15026015,9.669147
88689173195716,-0.07053385,-0.15111221,9.544867
88689193053764,-0.054547008,-0.1354853,9.516135
88689212911684,0.093414664,-0.0749581,9.613805
88689232772231,0.14701265,-0.17093325,9.517473
88689252630279,0.090770185,-0.117650054,9.519743
88689272488199,0.12810756,0.009860734,9.68913
88689292346247,0.35899168,-0.12946467,9.6460905
88689312204295,0.46145713,-0.003197399,9.6027565
88689332064133,0.39269364,0.10155795,9.555876
88689351922309,0.4498445,0.18012263,9.650154
88689371780357,0.60527587,0.14433414,9.609304
88689391638405,0.5183199,0.06967089,9.662401
88689411496581,0.4288481,0.067158505,9.69204
88689431351440,0.43580297,0.09305727,9.69821
88689451209359,0.34415337,0.12426783,9.920279
88689471067407,0.23093346,0.23055862,9.841322
88689490925327,0.1172058,0.2663702,9.636445
88689510783247,-0.01393946,0.17367673,9.653094
88689530644738,-0.0859032,-0.02750707,9.561176
88689550502786,-0.10639183,-0.09499525,9.555722
88689570360834,-0.19802806,-8.3765783E-4,9.580989
88689590218755,-0.3218583,0.00112884,9.655969
88689610076804,-0.348896,-0.060291413,9.740301
88689629939117,-0.3185832,-0.08333683,9.726708
88689649797294,-0.22496705,-0.03308934,9.812293
88689669655471,-0.19915725,0.18063745,9.768298
88689689513648,-0.25991076,0.13344216,9.826335
88689709371697,-0.07690943,0.079123825,9.909586
88689729234316,0.10038193,-0.027235292,9.815167
88689749092621,0.20738965,-0.18877795,9.806097
88689768950926,0.2796239,0.03715782,9.788802
88689788809103,0.14711995,0.26366878,9.685744
88689808667398,0.23565324,0.2207586,9.692893
88689828526334,0.3969975,0.066040315,9.647981
88689848384638,0.20006984,0.033277895,9.711835
88689868242942,0.08223957,0.07747813,9.690357
88689888101246,0.096130215,-0.03640788,9.621038
88689907959550,0.3355439,-0.1046642,9.66349
88689927815403,0.53872144,0.009573751,9.904916
88689947673707,0.48986384,0.0957335,9.850782
88689967531883,0.3448224,0.21869037,9.778729
88689987390187,0.33862677,0.24952057,9.73117
88690007248363,0.4455163,0.33399394,9.723644
88690027111548,0.16011775,0.19115953,9.660382
88690046969852,0.013065175,-0.035025682,9.590976
88690066828284,-0.15932366,-0.25101745,9.673882
88690086686588,-0.29202178,-0.378105,9.761031
88690106544892,-0.3597524,-0.13898788,9.823966
88690126399401,-0.59434074,0.06974853,9.7114315
88690146257705,-0.45122302,-0.021637147,9.923925
88690166116009,-0.18162577,-0.20418452,9.752082
88690185974313,-0.13453539,-0.37797144,9.602479
88690205832618,-0.26056358,-0.110141695,9.637971
88690225692683,-0.23147577,-0.009887596,9.840491
88690245550986,-0.063063405,-0.03758841,9.913505
88690265409418,0.16876352,-0.01781474,9.763639
88690285267722,0.1916296,-0.0060776225,9.612538
88690305126026,0.22588803,0.110473014,9.72197
88690324985053,0.35122752,0.22013842,9.751272
88690344837678,0.4838264,0.32293165,9.757444
88690364696111,0.34229913,0.23000641,9.707739
88690384554416,0.16720827,0.089288756,9.77717
88690404412721,0.23394367,0.15215696,9.800826
88690424273562,0.22454742,0.21872751,9.728973
88690444131867,0.11177013,0.045917585,9.747909
88690463990300,0.052903976,-0.026071224,9.730901
88690483848733,-0.06120742,-0.11927064,9.6475
88690503707166,-0.128186,-0.059332095,9.759851
88690523565599,-0.13437825,0.025964245,9.756502
88690543417026,-0.18912469,0.023209035,9.816672
88690563275331,-0.12540738,0.07992284,9.742254
88690583133636,-0.11117787,0.06578626,9.725859
88690602991941,-0.11719005,0.14653051,9.80321
88690622850118,-0.19447356,0.20339343,9.750084
88690642702113,-0.22713448,0.09321277,9.763559
88690662560290,-0.1679288,0.0048844684,9.757805
88690682418339,-0.07699113,-0.0648476,9.809039
88690702276516,-0.030642066,-0.05232856,9.800686
88690722134693,0.02624774,0.122315906,9.966071
88690741988304,0.006096193,0.033288106,9.93508
88690761846225,0.06802717,-0.018467758,9.745868
88690781704274,-0.018975908,-0.14042762,9.780763
88690801562323,-0.008698399,-0.14351743,9.660799
88690821420351,-0.03541259,0.025336819,9.692844
88690841273838,-0.14005592,0.0102609955,9.866165
88690861131758,0.02353782,-0.023574911,9.772704
88690880989678,0.044658836,-0.05672323,9.706982
88690900847598,-0.018440425,0.021161692,9.774739
88690920705518,-0.041157715,-0.044734392,9.789012
88690940563499,-0.017496724,-0.083892845,9.843396
88690960421419,0.095900655,-0.037581883,9.731913
88690980279339,0.045076642,-0.071724676,9.757412
88691000137259,0.012203987,-0.014326791,9.759039
88691019995179,0.021258334,-0.0010694984,9.77057
88691039856457,0.05211147,-0.03478284,9.804965
88691059714377,0.11355216,0.06265088,9.725289
88691079572425,-0.014309951,-0.050161432,9.744967
88691099430345,-0.042892553,-0.068820715,9.772594
88691119288265,0.030941429,-0.049369656,9.80197
88691139151616,0.014013027,0.056731574,9.813303
88691159009664,0.053874776,0.1142291,9.796351
88691178867712,0.022690285,-0.07077281,9.761463
88691198725760,0.116936766,-0.10918044,9.769635
88691218583808,0.0943897,0.028463772,9.739341
88691238440693,0.06593623,0.0019958054,9.710828
88691258298742,0.09909446,-0.025550997,9.730871
88691278156788,0.016331924,-0.054311242,9.755561
88691298014708,0.017340355,-0.08738108,9.772291
88691317872756,0.13496704,-0.032887246,9.787669
88691337731119,0.04698047,-0.010935106,9.803954
88691357589167,0.05377735,-0.048568718,9.778464
88691377447215,0.115206875,-0.15527987,9.752987
88691397305264,0.11601042,-0.028113091,9.69704
88691417163313,0.05619568,0.016898567,9.673203
88691437020618,0.037983082,-0.009911542,9.764051
88691456878667,0.08996977,-0.06273209,9.799043
88691476736716,0.036980066,-0.08701938,9.831764
88691496594765,0.03948953,-0.0068527507,9.79348
88691516452679,0.05530971,-0.03869424,9.73004
88691536313305,0.05870853,-0.02916577,9.808549
88691556171353,0.08890008,-0.027781602,9.768193
88691576029401,0.06130334,-0.048228137,9.730233
88691595887449,0.033417534,0.0060506053,9.74119
88691615745497,0.052669737,0.019999893,9.807584
88691635608067,0.024231303,0.0105382,9.856469
88691655466243,0.15594497,0.016430115,9.7592535
88691675324419,0.16428158,-0.007138259,9.779302
88691695182595,0.078157514,0.07220961,9.710556
88691715040771,0.08331025,-0.0084118415,9.802658
88691734896503,0.08671618,0.019791707,9.783933
88691754754551,0.083859384,0.039529946,9.842674
88691774612727,0.108084805,0.0046619186,9.785757
88691794470775,0.12770852,-0.08015834,9.716104
88691814328951,0.11576923,-0.043582294,9.676339
88691834189088,0.092256606,0.022964958,9.729714
88691854047264,0.046339598,0.026957378,9.762397
88691873905440,0.06542774,0.011666183,9.767172
88691893763617,0.05554304,0.030639527,9.72959
88691913621792,0.040644452,0.08408693,9.705465
88691933487898,-0.014844231,0.046810593,9.766499
88691953346330,-0.039357558,0.020255866,9.798336
88691973204634,-0.0402431,0.046845756,9.764328
88691993063066,-0.0130684,0.0036244772,9.784843
88692012921498,0.054005314,0.0409394,9.715676
88692032784418,0.083856486,0.056468643,9.68652
88692052642978,0.08625241,0.036729626,9.699086
88692072501410,0.019663854,0.011884346,9.710227
88692092359970,-0.06775848,0.014528962,9.773261
88692112218530,-0.027593832,-0.014567685,9.741501
88692132079763,0.004815693,0.001869363,9.818291
88692151938323,-0.008977132,0.07025623,9.837555
88692171796883,-0.0014638613,-0.0037937528,9.778182
88692191655443,-0.0048164,-0.04573374,9.710963
88692211514003,0.050959025,-0.11018475,9.698178
88692231373697,0.038053595,0.022484636,9.717966
88692251232257,0.045801934,-0.014735594,9.749983
88692271090945,-2.537247E-4,-0.066124864,9.747507
88692290949505,0.0070445575,-0.06421058,9.763047
88692310808065,0.06229376,-0.040081996,9.8040905
88692330668032,0.0641843,-0.018258436,9.767899
88692350526593,0.09244722,-0.019530032,9.775266
88692370385280,0.101434015,-0.04122036,9.766817
88692390243840,0.043599673,-0.0169131,9.744673
88692410102529,0.09008336,-0.0053534927,9.687694
88692429963195,0.02114288,0.03211713,9.696641
88692449821755,0.004517153,0.04474915,9.844028
88692469680444,0.08686779,-0.060642082,9.776569
88692489539003,0.09215312,-0.030002413,9.831685
88692509399946,0.10803248,-0.010904039,9.721347
88692529258635,0.061531797,-0.04898802,9.766547
88692549117324,0.043654833,-0.004057492,9.747941
88692568976013,0.030392945,-0.047398746,9.686233
88692588834574,0.020411622,-0.045927674,9.750553
88692608693263,0.055091515,-0.02482962,9.72317
88692628545782,0.03309581,0.044503514,9.793349
88692648404343,0.052893836,0.03480915,9.83169
88692668262904,0.0034030087,-0.021805348,9.783837
88692688121593,-0.012856687,-0.005814431,9.820811
88692707980154,0.042862184,-0.06896749,9.732538
88692727831613,0.03352309,-0.06825426,9.7531
88692747690046,0.07603938,-0.020903433,9.735338
88692767548607,0.09931222,-0.013889398,9.769378
88692787407156,0.037831128,-0.013247814,9.728878
88692807264572,0.040464297,-0.06310344,9.74353
88692827123133,0.021340236,-0.002026047,9.841928
88692846976517,-0.0068032467,0.036563203,9.773427
88692866834949,0.04477265,-0.02305546,9.747373
88692886693382,0.06901351,-0.0464838,9.729633
88692906551813,0.08776218,-0.038368676,9.768896
88692926400578,0.05164795,0.008074187,9.759157
88692946258755,0.040303502,-0.034303565,9.807858
88692966117058,-0.005792471,-0.059407383,9.779633
88692985975234,-0.0447157,-0.06472653,9.71598
88693005833411,0.06777741,-0.10308182,9.673177
88693025686970,0.11245222,-0.019554684,9.716963
88693045545146,0.017428499,0.039602965,9.765671
88693065403195,0.013128344,-0.050774515,9.814917
88693085261242,5.485452E-4,-0.07479213,9.8129015
88693105119290,0.013927087,-0.022795,9.776871
88693124977339,0.023650527,-0.06157872,9.744802
88693144829266,0.030395975,-0.06017261,9.692782
88693164687186,0.08640457,-0.08035223,9.749388
88693184545107,0.07250936,-0.022444395,9.785532
88693204403026,0.032318424,-0.033173714,9.774733
88693224265138,-0.02266674,-0.06911384,9.780271
88693244123187,-0.04281452,-0.06485148,9.779663
88693263981106,0.026455833,-0.05668316,9.799979
88693283839154,0.02323583,-0.034942426,9.683465
88693303697075,0.06937492,-0.12140804,9.657836
88693323546460,0.096403316,-0.016603777,9.749374
88693343404124,0.07062831,0.00505737,9.834815
88693363261917,0.048593633,-0.0523952,9.823351
88693383119580,-0.024618328,-0.07513131,9.8250675
88693402977372,0.015787916,-0.07174445,9.753659
88693422835165,0.0720083,-0.067890234,9.704146
88693442691487,0.071831785,-0.057645597,9.732823
88693462549151,0.09092656,-0.050736118,9.747953
88693482406816,-0.02102763,-0.008530782,9.813388
88693502264479,0.020218404,-0.037612934,9.757398
88693522125763,0.042999983,-0.031225443,9.736672
88693541983556,0.022861224,-0.0013733665,9.76658
88693561841219,0.05796682,0.012427188,9.80177
88693581698883,-0.015125026,0.034959793,9.749887
88693601556676,-0.005829499,-0.017412249,9.824007
88693621416771,0.09587186,0.0013208031,9.783487
88693641274435,-0.0131704025,0.034916807,9.781675
88693661132228,0.050549373,0.024347484,9.710518
88693680989891,-0.004129373,0.024176678,9.748444
88693700847683,0.03020906,0.12856577,9.802594
88693720705348,0.080465995,0.20732701,9.79994
88693740568460,-0.116001114,0.10874126,9.674174
88693760426252,-0.109590985,-0.11309686,9.8089695
88693780284045,-0.07645233,-0.04917018,9.806439
88693800141964,0.021372013,0.07352431,9.751316
88693820005730,0.076354615,-0.020465193,9.67441
88693839863779,0.055727664,-0.023487244,9.7236805
88693859721698,0.05157484,0.045002412,9.765624
88693879579618,-0.028572414,0.07614959,9.762111
88693899437539,-0.085301146,0.13545029,9.806136
88693919295586,-0.09250655,-0.003070607,9.732379
88693939161272,-0.090213954,-0.070079006,9.7032585
88693959019449,-0.14224891,-0.10203117,9.648961
88693978877496,-0.19485931,-0.023352653,9.666003
88693998735672,-0.094672985,0.081072815,9.702566
88694018593849,0.116549216,0.20167984,9.755595
88694038460887,0.14177723,0.093766116,9.760929
88694058319319,0.09762258,-0.063272804,9.735038
88694078177752,0.024529936,-0.15010859,9.773883
88694098036055,-0.039259776,-0.092511274,9.805887
88694117898103,0.08525321,0.11400439,9.810785
88694137756664,0.13819501,0.1288557,9.8770685
88694157615223,0.13408177,0.024494268,9.846346
88694177473783,0.07970502,-0.07122973,9.842627
88694197332344,0.026001103,-0.009738459,9.718987
88694217190903,0.0097980555,0.08325983,9.588558
88694237054626,-0.13555677,0.021806331,9.665849
88694256913315,-0.022102917,-0.008644133,9.782993
88694276772002,-0.009475057,0.019417621,9.865831
88694296630690,0.045752067,-0.03658061,9.842242
88694316489379,0.033116452,-0.082408294,9.750633
88694336342976,-0.13543363,-0.098692685,9.758715
88694356201664,-0.007663178,-0.00663128,9.704299
88694376060225,0.030866247,-0.02181712,9.710162
88694395918784,0.086660706,-0.040401313,9.769573
88694415777003,0.051996365,0.031753685,9.77051
88694435635564,-0.0059083863,0.0078828065,9.87322
88694455494123,0.0759074,0.04337227,9.7620735
88694475352811,-0.010392566,-0.045754027,9.71112
88694495211372,0.006862969,-0.08462734,9.69899
88694515070059,0.11966843,0.044687882,9.705773
88694534925193,0.02243377,-0.029573958,9.760443
88694554783754,0.10431337,-0.06435363,9.805014
88694574642313,0.047276743,-0.037828982,9.856412
88694594500745,-0.013005689,-0.021263704,9.836515
88694614359306,0.05434519,-0.02939855,9.69548
88694634210331,0.018043414,-0.08917819,9.701582
88694654068763,0.062844336,-0.06520327,9.695124
88694673927196,0.0940938,-0.06261975,9.760695
88694693785499,0.13131413,-0.016446771,9.849537
88694713645400,0.072827436,-0.0059357164,9.78527
88694733503833,-0.0858498,-0.12390439,9.738252
88694753362136,-0.015572581,-0.050945573,9.758363
88694773220568,0.0020805562,-0.0050024716,9.804793
88694793078873,0.051550962,-0.0235466,9.792488
88694812937304,0.151124,-0.12735257,9.725343
88694832761430,-0.014250646,-0.10789984,9.795971
88694852619351,0.03010528,0.013488428,9.766425
88694872477270,0.016588176,-0.012699783,9.797131
88694892335190,-0.019809574,-0.047614526,9.789601
88694912193111,0.007626096,-0.08116252,9.714565
88694932045160,-0.024233133,-0.137534,9.708549
88694951902824,0.04744913,-0.044313062,9.704648
88694971760489,0.010744149,-0.026551368,9.790305
88694991618280,0.039366778,-0.033148848,9.827014
88695011480345,0.044534247,-0.026706412,9.793132
88695031338138,-0.031404894,-0.062354773,9.734119
88695051195801,0.016926164,-0.022464797,9.683322
88695071053593,0.013116613,-0.05200165,9.801885
88695090911386,0.047708705,-0.037528045,9.88146
88695110769049,0.057372868,-0.050058555,9.823657
88695130622690,0.018717451,-0.09666038,9.777494
88695150480355,0.02449625,-0.06244642,9.697804
88695170338018,0.0084756715,-0.03528458,9.643851
88695190195554,0.026118027,-0.017460309,9.789315
88695210053219,0.042883776,-0.015198736,9.766455
88695229910204,-0.022734579,-0.114249215,9.787943
88695249767740,0.06926282,-0.09644952,9.803216
88695269625405,0.04058996,-0.0030054222,9.730595
88695289482940,-0.10844949,-0.04565633,9.752912
88695309340476,0.1043704,-0.08357313,9.713178
88695329198013,0.08303568,-0.06706984,9.800953
88695349061704,0.01733353,-0.016852126,9.75715
88695368919368,0.048213992,-0.024937736,9.716097
88695388777033,4.6685748E-4,-0.106714405,9.853988
88695408634696,0.051816225,-0.080242306,9.740313
88695428498347,0.051547404,-0.070347175,9.782772
88695448356140,-0.010917494,-0.003289295,9.729712
88695468213931,0.003250236,-0.025619121,9.714205
88695488071596,0.05032452,-0.06695877,9.723086
88695507929389,0.05245292,-0.042510163,9.722912
88695527796636,-0.022002164,-0.022482155,9.743677
88695547654556,-0.053186614,-0.033023074,9.701029
88695567512477,0.013443228,-0.009005464,9.703938
88695587370396,-0.015417286,0.011007666,9.834192
88695607228316,0.032153863,0.07130642,9.842782
88695627086237,0.01910085,-0.0050616963,9.787668
88695646947118,-0.0028859607,-0.049021605,9.784245
88695666805167,0.025986107,0.016855728,9.6917305
88695686663216,0.040082764,0.034969,9.803892
88695706521265,0.10298184,0.006427469,9.706597
88695726383494,0.109601706,-0.034594562,9.7288065
88695746241671,-0.0023912843,-0.030639306,9.770268
88695766099720,-0.0421584,-0.019558948,9.724331
88695785957891,-0.015911194,-0.029001055,9.824073
88695805815940,0.07576879,-0.019282088,9.785512
88695825674115,0.11238578,-0.037254322,9.753476
88695845537550,0.01986987,0.05814559,9.7859
88695865395855,-0.035064325,0.044671725,9.691357
88695885254158,-0.015491135,0.002457863,9.786085
88695905112462,0.034407306,0.01162985,9.790314
88695924970767,0.050432872,0.019018395,9.787184
88695944836494,-0.014993728,0.019183878,9.772079
88695964695054,-0.021429705,-0.010727503,9.715363
88695984553487,0.019652816,-0.056134194,9.759806
88696004411918,0.09094451,0.06903849,9.793619
88696024272422,0.04044156,0.054290585,9.791572
88696044130983,-0.031743646,-0.0048733796,9.798069
88696063989542,0.034484513,-0.013585827,9.756447
88696083848102,0.02799682,0.02704014,9.747867
88696103706663,0.013350852,0.07871269,9.74194
88696123565222,-0.028617995,0.021846054,9.746153
88696143432053,0.027079485,0.0026802178,9.759104
88696163290870,0.06806796,0.052438524,9.789159
88696183149557,-5.4302765E-4,0.051961627,9.884494
88696203008373,0.01461947,0.022627592,9.878993
88696222867190,0.03155371,-0.070786744,9.775987
88696242726915,0.059261415,-0.121125415,9.659801
88696262585857,0.094027266,0.053980563,9.598124
88696282444674,0.03541797,0.03888859,9.713368
88696302303489,0.03396457,0.06102086,9.786742
88696322162433,0.05341667,0.054276098,9.860581
88696342021250,-0.013808016,-0.0068933317,9.884394
88696361879583,0.004586224,-0.015786376,9.7728195
88696381738655,0.03431452,-0.08701901,9.723085
88696401597600,0.04854018,-0.05359663,9.760109
88696421456543,0.12282464,-0.010434468,9.728326
88696441296068,0.094761334,-0.06333783,9.707142
88696461154501,0.05118818,-0.025218314,9.714596
88696481012804,0.03195441,-0.0069201714,9.785712
88696500871236,-0.010088766,-0.0252818,9.785239
88696520729669,-0.025911251,-0.03340637,9.809997
88696540577647,0.035563566,-0.060185306,9.73757
88696560435951,0.048287068,-0.015622078,9.717427
88696580294128,0.03505583,0.030306809,9.789864
88696600152303,0.034493584,0.07509683,9.831906
88696620010479,0.02319671,0.0076953615,9.817358
88696639868656,0.0197,-0.08070706,9.761886
88696659720199,0.06513305,-0.101441056,9.712413
88696679578376,0.070157275,-0.06867693,9.734161
88696699436425,0.035695035,0.039017443,9.734438
88696719294471,0.047353126,0.021005983,9.749932
88696739148423,0.046304397,-0.092191905,9.787543
88696759006344,0.07226563,-0.0609796,9.744991
88696778864263,0.052469034,-0.021738848,9.78536
88696798722311,-0.019271726,0.005746304,9.803901
88696818580232,0.030922208,0.040989857,9.767561
88696838417561,-0.016756535,-0.015562366,9.745446
88696858270722,0.052701827,-0.014295849,9.748142
88696878128259,0.073466465,2.7209055E-4,9.762875
88696897985666,0.042753734,0.034607057,9.780602
88696917843202,0.015140679,0.007163906,9.741102
88696937700611,0.012800743,-0.01712532,9.742157
88696957563993,0.05925331,0.03220961,9.749731
88696977421657,0.031883918,0.05019269,9.77071
88696997279194,0.016776988,0.028199553,9.818123
88697017136729,0.041383695,0.010965398,9.845229
88697037001052,0.026358848,-0.03786641,9.867385
88697056858717,0.022838939,0.021343503,9.7001505
88697076716380,-0.008317878,0.016561108,9.770481
88697096573916,0.029775523,0.03261323,9.785501
88697116431581,0.114866205,0.036738288,9.864201
88697136289246,0.06952861,0.0071512633,9.775777
88697156149803,0.06541373,-0.032137383,9.733818
88697176007468,0.04018528,-0.033788692,9.656225
88697195865131,0.037485093,-0.02860889,9.724557
88697215722923,0.13548249,0.032781832,9.788553
88697235580588,0.06764461,0.03212407,9.844397
88697255442256,0.12457425,-0.050328363,9.855257
88697275300048,0.1784586,-0.08231053,9.761047
88697295157713,0.13056798,-0.10050847,9.762622
88697315015506,0.14635427,-0.041864816,9.732901
88697334869603,0.21764696,-0.04609971,9.699301
88697354727268,0.2143608,0.009392524,9.71248
88697374584805,0.11050497,-0.011459586,9.791799
88697394442470,0.03260766,-0.041067157,9.841768
88697414300135,0.099738546,-0.026347715,9.809586
88697434157800,0.09439564,-0.07198901,9.797172
88697454020511,0.07938015,-0.03013556,9.711207
88697473878176,0.09331252,-0.02404732,9.662494
88697493735841,0.09162207,0.0029327082,9.693407
88697513593634,0.11145218,0.04587544,9.776509
88697533451299,0.038942236,0.0054460326,9.86164
88697553317490,0.082727626,-5.1495947E-5,9.796466
88697573175411,0.08091365,-0.0835644,9.734171
88697593033332,0.06848613,-0.08383079,9.717395
88697612891253,0.0528284,-0.010595148,9.75245
88697632754162,-0.027425805,0.005724305,9.784288
88697652612083,0.048186854,-0.01997534,9.783391
88697672470132,0.09037383,-4.1407926E-4,9.722423
88697692328181,0.046212476,-0.011358936,9.702654
88697712186230,0.06309003,0.024182808,9.697793
88697732044151,0.0029063572,0.036952704,9.694304
88697751913750,0.057363175,-0.080493145,9.702491
88697771772183,-2.4001644E-4,-0.06947232,9.7586775
88697791630488,-0.023687322,0.02151478,9.883608
88697811488793,-0.0061642597,0.013766914,9.862052
88697831347098,-0.060227547,0.008188768,9.709407
88697851205186,0.0341401,-0.14835957,9.769346
88697871063618,0.020021966,-0.009655583,9.644152
88697890922051,-0.07668599,-0.06837426,9.632799
88697910780354,-0.032628436,0.042054992,9.77217
88697930644206,-0.02503973,0.086771086,9.851519
88697950502767,-0.08769575,0.010932846,9.868778
88697970361326,-0.06374699,-0.07595789,9.822187
88697990219886,-0.027893016,-0.11389825,9.746133
88698010078447,-0.04712354,-0.041379765,9.742182
88698029937006,-0.16331829,0.045805782,9.731961
88698049799333,-0.14104888,-0.0076969597,9.721104
88698069658022,-0.033918597,-0.054603178,9.719214
88698089516709,0.053189468,-0.043987397,9.807612
88698109375397,0.038164347,0.091892466,9.867215
88698129234086,-0.029727375,0.082904145,9.77791
88698149086751,0.08468681,0.027305344,9.655628
88698168945311,0.1577339,0.08477908,9.624713
88698188804000,0.15199716,0.12534449,9.70445
88698208662559,0.10378843,0.1411183,9.77555
88698228521119,0.09535357,0.09634676,9.770622
88698248379680,0.20757584,0.08460222,9.816405
88698268238764,0.2328155,0.20117477,9.732072
88698288097324,0.32943836,0.096527025,9.773378
88698307955885,0.063449316,0.37041703,9.705888
88698327814444,0.08671143,0.20832795,9.851077
88698347668085,0.118706964,0.013688565,9.921761
88698367526646,0.19045913,0.21709535,9.711728
88698387385205,0.1896643,0.20024697,9.741859
88698407243765,0.13867469,0.102164485,9.802651
88698427102198,0.2001718,0.08025416,9.83711
88698446945653,0.27582356,0.24160136,9.822866
88698466803829,0.23308815,0.39798683,9.731798
88698486661878,0.30033898,0.19795854,9.840376
88698506519925,0.34210902,0.27453882,9.765329
88698526377973,0.07254052,0.15132916,9.546749
88698546236022,0.18657994,-0.66749406,9.960041
88698566098817,-0.12659387,-0.68915415,9.82838
88698585956866,-0.79348004,0.55000895,9.275907
88698605815043,-0.38290316,0.62022996,9.43645
88698625673220,0.15200225,-0.62187535,10.037581
88698645531397,0.057716303,-0.69255936,10.072635
88698665385514,-0.5181629,-0.54151976,9.600533
88698685243690,-0.8808729,0.3213201,9.545456
88698705101738,-0.4760694,-0.023387576,10.004843
88698724959914,-0.17729346,-0.54467475,10.056936
88698744818090,-0.08871006,-0.7885787,10.016674
88698764671134,-0.31469035,-0.43680882,9.680539
88698784529182,-0.8626039,0.3215454,9.270084
88698804387102,-0.6111257,0.3422739,9.681363
88698824245150,0.04289708,-0.22111861,9.8771105
88698844103198,0.25975713,-0.10884011,9.939256
88698863952268,0.15125722,0.21882282,9.792144
88698883806470,0.09968072,0.30107,9.730436
88698903664390,0.18819378,0.40797532,9.755227
88698923522182,0.35062245,0.4597523,9.858776
88698943380102,0.5525877,0.3002075,9.866239
88698963227301,0.47826225,0.38703033,9.69076
88698983084837,0.24598056,0.37829563,9.580395
88699002942501,0.102246866,0.56683344,9.702831
88699022800037,0.4934583,0.09030725,10.053466
88699042657573,0.6024526,-0.26706588,9.801914
88699062524948,-0.087021165,0.23337664,9.516019
88699082382612,-0.15800989,0.07031225,9.595627
88699102240277,0.102460995,-0.1074974,10.013553
88699122098070,0.22523206,-0.16535236,9.911721
88699141955732,-0.24490552,-0.056337066,9.744973
88699161814658,-0.6814925,0.06134648,9.763847
88699181672450,-0.53682745,-0.1310052,9.822563
88699201530114,-0.08205345,-0.5922527,9.691337
88699221387778,-0.063259125,-0.49688563,9.789443
88699241245570,-0.19293588,-0.04598575,9.897553
88699261108135,-0.15519994,0.029926024,9.753591
88699280965928,-0.10136896,-0.092676535,9.719947
88699300823721,0.06694913,-0.19593944,9.79014
88699320681514,0.23128736,-0.08990305,9.79199
88699340539307,0.22271082,0.003514271,9.726321
88699360393452,0.18365954,-0.029758988,9.6267
88699380251245,0.4224176,-3.9610153E-4,9.700703
88699400109038,0.48103893,0.14118515,9.859776
88699419966831,0.20694555,0.34246042,9.766641
88699439824496,0.2436486,0.19348364,9.817557
88699459684409,0.10671596,-0.027968455,9.357771
88699479542074,0.03716921,-0.086357266,9.689267
88699499399867,0.383993,0.013046329,10.188842
88699519257532,0.24898192,0.35107163,10.065931
88699539115325,0.117417336,0.12916055,9.726206
88699558982906,-0.019182181,-0.07360764,9.673011
88699578840827,0.147009,0.13343267,9.745539
88699598698876,0.30562842,0.25779945,9.8218155
88699618556797,0.14733852,0.24044347,9.74364
88699638414718,0.0637187,0.10530707,9.786374
88699658278745,0.17449829,0.17132844,9.819704
88699678136922,0.13284019,0.2321347,9.650471
88699697994971,0.10739877,0.19485533,9.771529
88699717853129,0.051893346,0.18420246,9.647886
88699737711178,-0.121385545,0.19257024,9.699717
88699757571453,-0.2873387,0.011009681,9.764203
88699777429630,-0.11076685,-0.19580771,9.694221
88699797287807,-0.18960068,-0.18203892,9.72847
88699817145984,-0.29860863,-0.16668409,9.8438635
88699837004156,-0.25632265,-0.20980631,9.803912
88699856863849,-0.22321008,-0.1213447,9.77321
88699876722153,-0.2650177,-0.111795716,9.774601
88699896580457,-0.2855044,-0.1582383,9.810036
88699916438633,-0.11342319,-0.0764363,9.777096
88699936296937,0.039735075,-0.06647739,9.746462
88699956156082,0.15529738,-0.07396832,9.735671
88699976014386,0.046193246,0.02406496,9.742279
88699995872690,0.10027379,-0.026163837,9.871128
88700015730994,0.15953521,-0.041566532,9.564899
88700035589298,0.090715304,0.09085255,9.7243
88700055449388,0.08448727,0.097721376,9.809004
88700075307820,-0.0014711978,0.1284822,9.737745
88700095166124,-0.08256723,0.095536426,9.786015
88700115024428,-0.064735904,0.043385163,9.805157
88700134882732,-0.023859765,0.057262186,9.831288
88700154742001,-0.020868732,0.08969752,9.806259
88700174600433,-0.09298638,0.056229234,9.695284
88700194458865,-0.101701446,-0.009575572,9.661464
88700214317297,-0.05976663,-0.017443718,9.705222
88700234175729,-0.06996957,0.018265035,9.774714
88700254036902,-0.022373686,0.007619691,9.760499
88700273895334,0.0038883188,-6.1857677E-4,9.682988
88700293753894,-0.018418739,-0.0025909157,9.721677
88700313612326,0.0020827411,-0.017371148,9.806022
88700333470886,-0.05162464,0.044784043,9.881148
88700353323265,0.01936036,0.04085285,9.881025
88700373181569,0.08952958,0.0442166,9.721596
88700393040001,0.079948425,0.09399482,9.659744
88700412898433,0.045645177,0.07349944,9.666121
88700432756737,-0.014053731,0.082977116,9.770515
88700452606734,-0.0140272705,0.072453514,9.883633
88700472464911,-0.010678091,0.11459091,9.860473
88700492323088,-0.016444515,0.10634077,9.790385
88700512181265,0.014622504,0.04826133,9.854904
88700532039309,0.04496959,0.016961848,9.746709
88700551892766,-0.015324873,0.0106708035,9.696808
88700571750814,-0.050083,0.09111698,9.656184
88700591608734,-0.028711263,0.10560181,9.720392
88700611466782,-0.009442043,0.13781698,9.685498
88700631324703,-0.053749304,0.051210962,9.836083
88700651181400,-0.04443159,-0.049097426,9.891983
88700671039449,-0.08202238,0.038643606,9.767245
88700690897498,0.060469385,-0.040975764,9.685176
88700710755547,0.003395686,0.012652643,9.699494
88700730613463,-0.01989065,-0.029451614,9.823751
88700750453926,-0.06530311,-0.037179157,9.831378
88700770311590,0.002031842,0.033862352,9.828354
88700790169126,0.06923615,0.047037106,9.7322035
88700810026790,0.05826388,0.06732979,9.7603655
88700829884454,0.09089308,0.03870283,9.724728
88700849742118,0.17020322,0.05781492,9.709296
88700869595680,0.060124088,0.17732741,9.832315
88700889451603,0.06780412,0.004989007,9.778782
88700909309139,0.40638006,-0.07266813,9.592489
88700929166803,0.11256005,0.09077231,9.983248
88700949024339,-0.25905034,0.022917395,10.010998
88700968876865,0.19285382,0.0064916313,9.553077
88700988734273,0.10143461,0.008568137,9.658771
88701008591681,0.12153416,-0.0015733982,9.772772
88701028448961,0.004001262,0.05980816,9.865409
88701048306369,0.064078726,0.08596377,9.916415
88701068171446,0.08794241,0.24923909,9.768714
88701088028855,0.23255298,0.19267552,9.780814
88701107886389,0.23598078,0.25278074,9.780994
88701127743797,0.14646524,0.20514558,9.749738
88701147601333,0.18656489,0.090751514,9.778264
88701167465246,0.13482359,0.16951653,9.781707
88701187322782,0.09607528,0.12613282,9.745669
88701207180446,0.028219039,0.07206941,9.821158
88701227037983,0.047913324,0.1672786,9.831892
88701246895648,0.08116597,0.09478154,9.875263
88701266760157,0.07003804,0.1460562,9.797839
88701286617947,0.11319146,0.09783657,9.829191
88701306475611,0.067148514,0.07911417,9.726687
88701326333403,0.09728751,0.050999455,9.805837
88701346191067,0.08851545,0.030324591,9.75649
88701366048022,0.0753733,0.039407305,9.771527
88701385905686,0.09023752,-0.039168764,9.732036
88701405763478,0.13939273,-0.06019927,9.641402
88701425621142,0.058797617,-0.057111744,9.698614
88701445478806,-0.007832768,-0.08825378,9.743697
88701465338085,8.512694E-4,-0.019843385,9.699801
88701485195749,0.049954195,-0.050810214,9.69868
88701505053541,0.015336044,-0.030769901,9.706551
88701524911205,-0.012280879,0.06750546,9.787114
88701544768997,-0.03371349,0.08455227,9.832925
88701564634688,-0.05868683,0.1327074,9.751257
88701584492608,-0.07028998,0.048180684,9.721444
88701604350528,-0.028486542,0.069313094,9.732158
88701624208448,-0.04658086,0.108112715,9.762131
88701644066240,-0.07621675,0.03661053,9.7804
88701663929773,-0.05894747,0.09266358,9.809661
88701683787822,-0.01610883,0.04827568,9.75512
88701703645868,0.063445464,0.030500108,9.778174
88701723503916,0.038922347,0.071828365,9.763926
88701743361964,0.020956371,0.039646197,9.793668
88701763222066,0.024346642,0.06514134,9.62701
88701783080242,0.09507887,0.01710144,9.722811
88701802938290,0.06705334,0.048532046,9.752947
88701822796466,-0.077588014,0.09979469,9.802164
88701842654514,-0.046810057,-0.055720206,9.892345
88701862512537,0.07840227,0.05920917,9.832067
88701882370713,0.05023153,0.004581184,9.684061
88701902229017,0.06778405,-0.07455688,9.734881
88701922087193,0.024190772,0.07388021,9.7797365
88701941945369,0.025740376,0.03448017,9.785743
88701961808086,0.115395,0.11077285,9.8226795
88701981666390,0.1110113,0.16563705,9.741452
88702001524694,-0.058851194,-0.0010677153,9.784127
88702021382998,-0.091343015,-0.15177564,9.72117
88702041241303,-0.023601387,-0.12077379,9.764707
88702061097048,0.020985182,0.0794669,9.85077
88702080955353,0.11071444,0.08641399,9.723205
88702100813526,-0.098928645,0.10722505,9.767447
88702120671830,-0.15468337,0.061322812,9.769024
88702140530134,0.024359362,-0.12679957,9.75729
88702160391577,0.005216883,-0.11022493,9.800706
88702180249881,0.07203797,0.03358519,9.674056
88702200108314,0.05301897,0.108717024,9.647294
88702219966747,0.09192404,0.074719764,9.708101
88702239825180,0.0773959,0.02859651,9.858575
88702259685983,0.0861109,0.015927153,9.865254
88702279544416,0.1891163,0.09959551,9.763308
88702299402977,0.1354322,0.05014166,9.632188
88702319261410,0.01622752,0.011482332,9.631091
88702339119971,-0.010779102,-0.017789021,9.706997
88702358966402,0.112627976,0.08574787,9.731207
88702378824579,0.12697887,0.18814245,9.750407
88702398682628,0.089766964,0.042416323,9.747548
88702418540805,0.040993955,-0.013651689,9.781271
88702438398982,-0.030837683,-0.028430924,9.856416
88702458247265,0.048566025,-0.049667932,9.704785
88702478105058,0.112115346,0.06535772,9.68976
88702497962979,0.052176002,-0.004143189,9.710855
88702517820900,-0.013218286,0.06134386,9.782138
88702537678821,-0.03830085,0.11512044,9.781179
88702557535938,0.024588523,0.04385173,9.76232
88702577393859,0.10339656,-0.019877456,9.755882
88702597251652,0.043969095,-0.077604115,9.729935
88702617109445,-0.035273947,0.014969708,9.708345
88702636967366,0.006470134,-0.019965656,9.749928
88702656817855,0.08813315,-0.06825838,9.852013
88702676675520,0.067095056,-0.017006192,9.881821
88702696533313,0.09615497,-0.0399585,9.834224
88702716390978,0.12083116,-0.04018449,9.723099
88702736248643,0.16898523,-0.04719357,9.674652
88702756110788,0.09406979,-0.031797834,9.711151
88702775968581,0.012914514,0.029175634,9.747051
88702795826246,0.07040063,-0.029695742,9.839583
88702815684039,0.08193098,0.044935394,9.824854
88702835541832,0.07193353,-0.030633755,9.7620325
88702855398900,0.10648731,-0.06959427,9.887447
88702875256692,0.06375288,0.027039686,9.756878
88702895115063,0.08340836,0.03706256,9.722999
88702914972855,0.0563787,0.039387062,9.765601
88702934830647,0.04669266,-0.034678333,9.677808
88702954685781,0.09866009,-0.08173874,9.896669
88702974543445,0.04388158,0.03204631,9.835017
88702994401109,0.055969503,0.04891293,9.788951
88703014258773,0.13072756,-0.016917367,9.716645
88703034116437,0.13001545,-0.06137049,9.650455
88703053978177,0.0976338,-0.03263683,9.789705
88703073835969,0.08974371,0.011691503,9.763897
88703093693633,0.113938145,0.0235841,9.735745
88703113551425,0.080861986,0.056403607,9.699035
88703133409089,0.011393725,-0.05568285,9.627957
88703153266334,-0.057367902,-0.062870316,9.840064
88703173124126,-0.047165193,-0.037231658,9.797858
88703192981790,-0.025030175,0.026422279,9.799828
88703212839582,-0.07536015,0.11742181,9.845229
88703232697375,-0.113883704,0.11862699,9.821883
88703252561306,-0.054436196,-0.010437995,9.811474
88703272419224,0.124723576,-0.04780339,9.793078
88703292277016,0.1860207,0.038499568,9.682626
88703312134936,0.13870211,0.10752715,9.776912
88703331992856,0.09888101,0.053526707,9.701077
88703351850648,0.13185509,0.07845573,9.808857
88703371705141,0.17521404,-0.06401772,9.730078
88703391562934,0.12913287,0.007055321,9.787117
88703411420727,0.09557904,-0.083907545,9.84972
88703431278648,0.045415062,-0.09216816,9.784992
88703451136441,0.04818117,-0.05554222,9.7258005
88703470993794,0.008401371,-0.026142282,9.80144
88703490851587,-0.016806673,-3.8116832E-7,9.8978405
88703510709252,-0.041549794,0.05672748,9.71384
88703530567045,0.003149555,0.028506171,9.672787
88703550424838,0.011279019,-0.06141204,9.79361
88703570294159,-0.023819748,-0.034655213,9.792051
88703590152208,0.016957493,0.059763405,9.839588
88703610010257,9.5947087E-4,0.05844163,9.764954
88703629868306,-0.003988538,0.013131481,9.694726
88703649726355,0.008439541,-0.04528798,9.722148
88703669582472,0.03372751,-0.030270813,9.690176
88703689440521,0.028177217,0.043926727,9.786123
88703709298442,0.0038045845,0.0074607967,9.760482
88703729156491,0.028964931,0.072852395,9.786518
88703749014412,0.029424421,0.10185335,9.869219
88703768883005,-0.035465535,0.105768,9.697372
88703788741163,0.0387548,0.10079717,9.801383
88703808599340,-0.0014275063,0.009932832,9.727286
88703828457643,0.035154913,-0.03298609,9.728113
88703848312235,-0.093172655,0.099134654,9.916385
88703868170540,-0.1876439,0.14557715,9.818305
88703888028715,-0.14124781,0.13959071,9.969339
88703907887019,-0.14206164,0.033176184,9.829928
88703927745196,-0.0782018,0.07520213,9.936018
88703947603810,-0.13867278,0.07709292,10.154985
88703967462114,-0.21646728,0.04225464,10.029065
88703987320419,-0.12517558,0.0084386915,9.96176
88704007178594,-0.14196555,0.057672806,10.22224
88704027036898,-0.13863617,-0.06541814,9.835929
88704046895075,0.024794752,0.03602871,9.945642
88704066756889,0.03515662,-0.015144846,9.836197
88704086615193,0.05033617,0.04809961,9.998883
88704106473498,-0.04360514,0.13178687,10.117636
88704126331801,-0.053115815,-0.002123818,9.70695
88704146194196,0.069058776,0.05340632,10.166527
88704166052501,-0.1370002,0.13773221,10.054726
88704185910931,-0.07338499,0.033302493,9.777907
88704205769363,-0.013051257,0.068625726,9.98283
88704225627796,0.013639299,0.06543196,9.809113
88704245486227,-0.07488954,0.16101651,10.159957
88704265341637,-0.249829,0.08032716,10.057721
88704285199942,-0.076197505,-0.091748826,9.874566
88704305058245,0.001867847,0.018924387,10.186535
88704324916550,-0.07490989,0.111010894,9.91646
88704344774855,0.08058006,0.11863104,9.949297
88704364631530,0.06434111,0.013328982,9.860749
88704384489963,0.1553362,0.040376514,9.928953
88704404348268,0.0318787,0.02959082,10.07759
88704424206573,0.0813954,0.011469391,9.892222
88704444052600,0.14095743,0.10032183,9.949763
88704463910649,0.07700705,0.15401483,9.931454
88704483768698,0.027464649,0.19726402,9.999492
88704503626747,-0.08660933,0.13719542,10.110243
88704523484796,-0.11993236,0.08817594,9.867333
88704543342973,-0.02053425,0.08316647,10.0245905
88704563190634,-0.06573768,0.1915019,10.007371
88704583048427,-0.06581579,0.14178254,9.885649
88704602906348,-0.052597187,0.084935546,9.940008
88704622764141,-0.017335376,0.02605217,9.827755
88704642622062,-0.025447067,0.0382378,10.040637
88704662479049,-0.17536736,0.13163231,9.968467
88704682336842,-0.050570276,0.090895966,9.911559
88704702194635,-0.07197892,0.013016312,10.068735
88704722052556,-0.1364463,0.056403663,9.897004
88704741911885,-0.06381894,-0.026861263,9.980308
88704761769678,-0.16016613,0.0098592965,9.885966
88704781627451,-0.21216108,0.22493435,9.986704
88704801485244,-0.18929642,0.114418074,10.038104
88704821343037,-0.16143759,0.14766814,9.954245
88704841200955,-0.13206401,0.1862545,10.155367
88704861053056,-0.27346966,0.21527049,9.963257
88704880910721,-0.21426311,0.3201332,10.055266
88704900766261,-0.24460211,0.46661195,10.510708
88704920624053,-0.37773693,0.54026145,10.319179
88704940481718,0.018118512,0.6293834,10.442305
88704960334211,0.25924724,1.0837752,10.52334
88704980191747,-0.029038288,1.8683668,10.516753
88705000049283,-0.23715669,2.1076307,10.711836
88705019906819,-0.16595188,1.4500583,11.396634
88705039764355,0.34469354,0.19482622,12.0334425
88705059623598,0.72475666,1.2141143,11.74259
88705079481134,0.19836704,1.850314,11.108199
88705099338670,0.43371785,0.40429914,10.671394
88705119196206,0.42903727,-3.3578131,8.687198
88705139053742,-0.3790996,-0.04852133,8.422887
88705158911150,0.10404792,1.9620285,9.099819
88705178777067,-0.13601393,0.96690804,9.042305
88705198634859,-0.967057,0.4001872,8.959033
88705218492523,-1.4183447,0.5312964,9.20846
88705238350187,-1.6798776,0.91264164,9.300294
88705258207851,-1.6054933,1.4238309,9.008187
88705278071912,-0.7366045,2.600938,8.269387
88705297929705,-1.4139569,3.771563,7.926357
88705317787495,-4.008687,5.00999,9.226857
88705337645159,-6.1813173,2.8232121,7.4687486
88705357502951,-3.910975,-2.8959413,3.7379863
88705377362301,1.6710389,-6.1966376,8.056545
88705397220221,0.94796735,1.8109604,17.044258
88705417078014,0.7470962,7.925629,12.902454
88705436935935,0.90691847,1.3028445,7.430816
88705456793856,1.2942022,-0.8275547,7.940915
88705476646919,3.1406271,0.30862924,11.270311
88705496504712,3.5263436,2.1002884,13.486345
88705516362377,0.6378245,2.595962,12.276065
88705536220170,-0.5349238,0.52872354,9.920058
88705556077835,-0.19468537,0.19587362,8.606983
88705575933982,-1.2130225,1.0205718,8.060699
88705595791775,-2.006492,1.791709,8.028262
88705615649440,-1.9006875,2.1088414,7.5287175
88705635507105,-1.1610614,1.1087657,8.43659
88705655364770,-0.8697641,1.3959036,8.595685
88705675230245,-2.0406594,1.183465,8.676516
88705695088166,-2.4903593,0.686264,9.2112465
88705714946087,-0.9884973,0.7710158,9.947793
88705734803880,-0.9349378,1.3672612,10.01209
88705754661801,-1.4426572,1.3394055,10.354504
88705774530384,-1.7810806,1.1134288,11.131745
88705794388561,-2.488239,2.1139462,12.2318535
88705814246718,-4.2324176,2.7812417,12.015458
88705834104767,-5.053093,1.2230073,11.554969
88705853962942,-4.411707,0.59000075,11.168585
88705873826862,-2.2090847,0.97551197,12.276626
88705893685166,-0.4590382,0.97156924,14.988936
88705913543470,-1.1806556,-0.043854833,13.682007
88705933401902,-0.27600005,1.510915,11.86548
88705953260206,2.9409056,1.8193241,11.569682
88705973125057,4.803851,-1.05282,12.72408
88705992983617,7.4671974,-0.25536743,13.645866
88706012842177,14.521209,5.793111,13.00373
88706032700737,6.2954736,6.9697857,10.296214
88706052559169,1.7413176,2.5057764,7.8263173
88706072408928,4.4062905,0.69745046,7.96185
88706092267232,2.5529883,-2.9774032,8.402939
88706112125536,1.9722404,-8.071296,6.98153
88706131983840,-0.88908416,-7.0794826,6.5251927
88706151842272,-5.3345428,-2.0450256,4.7866035
88706171699145,-4.4365654,0.3213302,3.016663
88706191557449,-0.037462022,0.68421495,3.1525607
88706211415625,2.6502998,0.45722246,3.5830822
88706231273929,2.105821,2.6590784,3.4833086
88706251132233,1.0705575,3.208619,3.864878
88706270989617,0.46836752,2.1873994,4.5829935
88706290847921,0.58413845,2.3216603,7.5938983
88706310706097,1.4632494,6.891735,17.896448
88706330564401,-2.780884,14.830507,28.63677
88706350422577,-4.2444043,12.808713,17.98135
88706370279294,5.7444725,-2.201109,4.503025
88706390137598,9.586617,-7.1207895,3.8527722
88706409995774,10.244668,1.3624275,14.460193
88706429854079,8.293499,-0.015291029,18.316961
88706449712384,1.0799918,1.8444625,11.428812
88706469560015,1.0258051,-1.8798616,3.8825736
88706489417936,2.9904454,-2.2094574,3.4041114
88706509275985,2.5686352,1.2559594,7.2063675
88706529134034,4.8000655,-0.91884613,12.81495
88706548991955,9.075136,-6.7671633,15.659386
88706568841202,0.44108686,-4.9840736,13.103325
88706588698995,-3.0639355,-3.1850755,9.690586
88706608556788,-2.298082,-2.8341062,8.2838
88706628414581,-2.908377,-0.20433539,7.26383
88706648272374,0.7776611,2.0119388,8.929604
88706668123517,2.4562852,2.681227,8.311437
88706687981182,0.054878715,2.2608244,9.812014
88706707838847,-1.7377205,1.6870105,9.939235
88706727696512,-2.3421085,1.2675194,8.159915
88706747554177,0.24509397,1.6966211,8.039806
88706767415180,2.6312656,6.766935,8.490974
88706787272973,1.1842755,4.1572504,10.501768
88706807130638,0.7149609,1.3887448,11.688833
88706826988285,2.5235906,4.4796467,11.463074
88706846846077,4.536432,5.575976,10.682739
88706866705557,3.0217342,3.810734,10.764113
88706886563349,2.5110314,1.9651097,12.088265
88706906421141,2.7085135,1.4410708,13.678369
88706926277662,6.7225122,0.052258544,12.47654
88706946135454,6.0185914,-1.770917,11.377926
88706965989004,1.2700454,-3.0401793,13.049113
88706985846668,0.9792716,-5.5238314,16.670467
88707005704332,15.256488,-13.301811,16.140032
88707025561996,13.058566,-4.035562,9.933024
88707045419660,1.9741386,-0.61734605,7.623102
88707065284230,-3.172137,-3.9371755,8.964262
88707085141894,-3.930905,-3.4024987,9.111015
88707104999686,-2.971993,0.8791164,9.649757
88707124857350,-1.5891321,3.953043,7.7928123
88707144715142,-3.6019745,1.9480616,5.690533
88707164569277,-2.8354049,-0.17578867,3.0965931
88707184426813,0.18255831,-0.16361137,-0.033546995
88707204284477,2.6062903,-0.24093077,-0.875109
88707224142013,3.1203606,-1.3525465,0.78872037
88707243999678,3.2019382,-0.20857511,3.0341303
88707263862067,2.215074,2.5753648,9.486893
88707283719729,8.648171,2.2048607,19.939428
88707303577393,12.344573,1.7636544,20.639507
88707323435057,17.258076,0.84769535,13.307492
88707343292721,-8.968155,-6.1065097,17.603897
88707363153980,-18.050516,-10.234721,13.216447
88707383011772,3.276042,-9.769632,0.26795512
88707402869565,4.5533223,-8.714303,-0.12921177
88707422727358,0.1661348,-0.48724547,9.764164
88707442585151,-4.8084416,0.27142555,17.376518
88707462445276,-2.093656,0.5527168,15.600933
88707482303069,-0.90809613,2.8448713,12.860152
88707502160990,-0.6367552,2.3410907,11.06403
88707522018783,5.2378364,-0.21419892,8.237052
88707541876576,2.1442866,0.6218144,8.779727
88707561739049,1.189062,1.4040534,9.480224
88707581597098,3.8312423,-0.5325528,8.862279
88707601455019,3.4066408,-1.1477419,8.731144
88707621313068,2.2477162,-1.0811512,7.22855
88707641171117,3.1176891,-0.69843054,6.7216797
88707661032628,4.248055,0.2311795,7.3365803
88707680890677,3.1454597,0.22563483,8.4576645
88707700748726,2.6066394,1.3098943,8.942933
88707720606775,5.334567,0.05303852,9.093346
88707740464824,4.754787,-1.2095425,9.745953
88707760324445,1.8025445,0.9765178,9.970177
88707780182622,2.0577018,0.70948607,12.029566
88707800040799,1.6619874,-1.4413588,17.019888
88707819898956,0.43808284,-1.428179,15.460254
88707839757004,-1.2766745,-2.7664495,11.671568
88707859619037,-2.2140737,-4.4620495,11.815361
88707879477213,2.293296,-11.959008,15.956494
88707899335517,5.4956446,-8.13214,13.586072
88707919193821,0.122073986,-0.98970246,9.287264
88707939052125,-3.8419445,1.5231434,8.912233
88707958915654,-4.2363515,2.095551,8.668511
88707978774086,-2.4210672,1.801756,8.016977
88707998632518,1.244413,0.8838847,7.8794723
88708018490950,-0.27185774,-0.29223034,7.000998
88708038349254,-1.5368998,-0.3612403,6.0996456
88708058206272,-1.89823,0.95956516,4.2617908
88708078064704,0.062613025,0.12013878,1.9549614
88708097923136,0.91397655,-1.9715388,2.7212918
88708117781440,0.042461116,0.08556769,6.298486
88708137639872,0.710515,3.2874405,9.424966
88708157498176,3.2169857,1.8136824,11.044536
88708177356011,7.1330485,-3.4870133,11.360301
88708197214443,9.317551,-8.467364,10.731774
88708217072747,4.494561,-7.376805,9.482887
88708236931051,-1.8890382,-0.086629905,10.832604
88708256789483,-7.435523,5.659807,11.903358
88708276643941,-5.3887296,2.36132,12.68533
88708296502245,-2.9152231,-1.195124,14.806829
88708316360421,-0.9009169,-0.8334558,14.636288
88708336218725,0.19444232,-2.472204,11.1345415
88708356076901,0.07891488,-3.34704,8.627809
88708375938671,-0.8864468,-1.3425912,10.838404
88708395796975,-2.3016033,2.0302343,11.735539
88708415655280,-2.2092004,3.36978,9.609584
88708435513713,-0.92985237,2.2070792,7.1568885
88708455372018,-0.9411098,0.2641594,6.8113112
88708475222343,-0.3610811,-0.456099,8.045011
88708495080520,0.44766602,-1.7750106,9.886289
88708514938697,1.431029,-4.13805,11.465488
88708534796868,1.0651114,-3.966344,11.304272
88708554655044,-0.00128535,-1.0477619,10.822185
88708574502096,-0.48279655,1.3962286,11.91471
88708594360016,0.018063044,1.9879078,11.798898
88708614217936,0.29089954,1.3972987,9.435759
88708634075856,-0.10844259,0.5951646,8.956651
88708653933776,-0.71462846,0.4632365,9.066191
88708673791848,-0.29865712,0.0011924547,8.84479
88708693649896,0.21842486,-0.8982316,9.013241
88708713507816,0.06656715,-0.8349035,9.180629
88708733365736,-0.024886314,0.734892,9.032242
88708753223784,0.47652814,1.1706095,9.297139
88708773079339,1.3494632,-0.035720304,9.907675
88708792937131,1.7841885,-0.589301,10.259776
88708812795051,1.7307465,-0.16751026,9.836756
88708832652971,1.4961319,0.59700054,9.269798
88708852510891,1.1551498,0.2911478,9.141916
88708872360587,0.9025377,-0.028580634,9.269111
88708892218379,0.97221005,-0.27744082,9.711761
88708912076043,1.0258571,-0.3975718,9.952151
88708931933835,0.723723,-0.17904747,10.03321
88708951791298,0.42020878,-0.339261,10.09848
88708971642545,0.17250507,-0.6080308,9.831998
88708991500081,0.12651362,-0.82788736,9.464283
88709011357617,0.017624874,-0.81753874,9.699761
88709031215153,0.012098737,-0.74073267,10.571913
88709051072817,0.4397862,-0.62691736,11.154415
88709070923551,0.60338473,-0.42833185,10.981412
88709090780959,0.15389417,-0.49335644,10.544883
88709110638239,-0.9108544,-0.40966752,9.824782
88709130495648,-1.1460285,-0.8749437,9.574518
88709150353057,-0.7546101,-1.506419,9.819864
88709170209558,-0.05750311,-1.5798231,10.341492
88709190066839,0.75820416,-1.2735171,10.757595
88709209924120,1.294609,-0.678087,10.442871
88709229781529,1.2944291,0.050869245,10.260913
88709249638810,1.029061,0.17387518,9.720808
88709269502351,0.85291654,0.07122027,8.621957
88709289359760,1.2256062,0.03862812,8.044914
88709309217297,1.2778884,0.121830456,7.519806
88709329074706,0.7004781,0.18300904,7.2780385
88709348932115,-0.44360262,0.5100579,7.3348093
88709368784054,-1.055122,0.42242718,7.9250393
88709388641335,-1.2857846,0.2531792,9.057965
88709408498616,-1.3914201,0.29590935,9.333854
88709428355897,-0.8988524,-0.6954633,9.994294
88709448213178,-0.3442094,-1.3242526,12.239154
88709468076249,0.42813322,-1.4879158,13.561833
88709487933658,2.6991174,-1.3313597,11.561672
88709507790939,2.094066,0.22072348,9.706691
88709527648348,1.0766934,0.31000155,8.913708
88709547505629,-0.06293772,0.00679166,8.0996275
88709567367742,-0.4609587,-0.7290547,8.035438
88709587225255,-0.31184947,0.14540522,9.169799
88709607082664,-0.33232436,3.198824,10.767994
88709626940201,0.7061877,2.1900206,10.94446
88709646797610,0.6895439,-0.20144019,9.878957
88709666664077,0.5893971,-1.5555743,9.3103
88709686521742,0.5534029,-1.5942622,8.964337
88709706379279,0.45049226,-0.6474066,9.324914
88709726236944,0.4093641,0.49324858,10.109382
88709746094609,0.27832243,1.1761186,10.18818
88709765956424,0.57355237,1.2639896,9.860072
88709785814217,1.0714514,0.2820653,9.801037
88709805671882,1.339882,-0.51520854,9.670781
88709825529675,1.1605537,-0.4516348,9.650032
88709845387456,0.7050849,-0.061484877,9.6905575
88709865251087,0.44963482,0.25190255,9.7431755
88709885109007,0.4015288,0.42338353,9.652622
88709904966927,0.45108855,0.113331765,9.563345
88709924824847,0.49474296,-0.64565414,9.609768
88709944682767,0.39713025,-1.1310717,9.529349
88709964550013,0.03443949,-0.9423251,9.469036
88709984408189,-0.19646755,-0.62657833,9.591307
88710004266365,-0.06898535,0.061475012,9.764785
88710024124541,0.14524864,0.6013753,10.11468
88710043982717,0.23484232,1.0445073,10.251313
88710063850292,0.11683607,1.1439433,10.044963
88710083708724,-0.3997047,0.70554805,9.615629
88710103567156,-0.95871496,-0.07936598,9.196213
88710123425460,-0.8996783,-0.89863294,8.948457
88710143283892,-0.38505924,-0.996891,9.309142
88710163142738,0.11035208,-0.4412239,9.842251
88710183001170,0.18630162,0.21092409,9.992605
88710202859474,0.20735474,0.42937934,9.908421
88710222717906,0.24552275,0.25723037,9.732746
88710242576338,0.25079155,0.034317024,9.576923
88710262437804,0.18811898,-0.1539206,9.487249
88710282296364,0.10420172,-0.14839068,9.501836
88710302154797,0.016007077,0.08776928,9.570716
88710322013358,0.14607441,0.07717164,9.776089
88710341871916,0.4607556,-0.13389121,9.876486
88710361719194,0.5452075,-0.21279748,9.801346
88710381577626,0.41044655,-0.20061396,9.640963
88710401436058,0.23894352,-0.057963982,9.534201
88710421294362,0.18350673,0.11319214,9.559197
88710441152794,0.3177186,0.03230342,9.630796
88710461002621,0.5256741,-0.11170603,9.699854
88710480860798,0.4775729,-0.04665172,9.731341
88710500718975,0.29254574,-0.08038333,9.728605
88710520577152,0.1981175,-0.063122936,9.616281
88710540435457,0.20324337,0.01370516,9.559381
88710560293334,0.32132974,-0.10588726,9.568226
88710580151511,0.32345608,-0.045688882,9.541831
88710600009688,0.2435904,-0.08202058,9.579234
88710619867865,0.27384254,-0.19243112,9.6325865
88710639726042,0.29488394,-0.09959223,9.681507
88710659584219,0.27376127,-0.08801949,9.629703
88710679440848,0.26121533,-0.11990993,9.609202
88710699299025,0.23769791,0.01353972,9.671744
88710719157074,0.2415971,-0.09357795,9.672024
88710739015123,0.2093101,-0.14166406,9.6306
88710758873300,0.26291505,-0.13909447,9.600791
88710778727369,0.27015558,-0.123891935,9.661691
88710798585418,0.2745041,-0.13617794,9.674225
88710818443450,0.30688664,-0.15070623,9.66324
88710838301370,0.2981909,-0.1194303,9.7005205
88710858159418,0.24265438,-0.11241037,9.648329
88710878009896,0.2095143,-0.069819555,9.603209
88710897867688,0.29941908,-0.0637584,9.745536
88710917725608,0.34599912,-0.04810174,9.780869
88710937583528,0.31839183,-0.105772175,9.751903
88710957441320,0.26379722,-0.16208547,9.591223
88710977301026,0.19998607,-0.07701498,9.498202
88710997158818,0.24437414,-0.08120195,9.590643
88711017016738,0.3637174,-0.17451257,9.797543
88711036875358,0.410033,-0.12725717,9.82568
88711056733150,0.2872667,-0.057029404,9.788056
88711076585877,0.20564678,-0.117195845,9.806701
88711096443669,0.28031495,-0.21248639,9.746107
88711116301333,0.355642,-0.20025301,9.682827
88711136159125,0.3671496,-0.20752996,9.657239
88711156016789,0.27171925,-0.10485015,9.764458
88711175872381,0.30548579,-0.05047856,9.788432
88711195730045,0.28780937,-0.10682803,9.751335
88711215587709,0.2962167,-0.124773204,9.826982
88711235445373,0.3388787,-0.13305376,9.813156
88711255302910,0.2713982,-0.090096205,9.749951
88711275168243,0.19666803,-0.10514095,9.754713
88711295026036,0.26349616,-0.20864855,9.783814
88711314883697,0.2658712,-0.17361867,9.705809
88711334741489,0.26049483,-0.12380109,9.683317
88711354599281,0.20688862,-0.19420902,9.708979
88711374451781,0.1976705,-0.15767418,9.797161
88711394309445,0.28526604,-0.13592109,9.818093
88711414167110,0.26798803,-0.2083126,9.774893
88711434024647,0.28484794,-0.18791589,9.715648
88711453882312,0.2785299,-0.17420706,9.705692
88711473737251,0.23287049,-0.08527121,9.752847
88711493594788,0.27080238,-0.06927092,9.863161
88711513452453,0.3069151,-0.19925565,9.880776
88711533309990,0.3167773,-0.2235831,9.721749
88711553167527,0.25976,-0.15308112,9.6942625
88711573026696,0.28393054,-0.19974545,9.765049
88711592884233,0.22392744,-0.08580771,9.712842
88711612741898,0.20617175,-0.03506639,9.732906
88711632599563,0.29642168,-0.073548846,9.901511
88711652457100,0.4150575,-0.083350435,9.943516
88711672322011,0.38308448,-0.09207214,9.698854
88711692179932,0.1717332,-0.13959292,9.575682
88711712037725,0.19227818,-0.11285189,9.742934
88711731895518,0.39535743,-0.10821745,9.848601
88711751753311,0.42047024,-0.058887217,9.732924
88711771614316,0.24695578,0.03540583,9.727432
88711791472237,0.33078998,-0.090255894,9.780062
88711811330158,0.345391,-0.019594416,9.763232
88711831188059,0.19149391,0.014260458,9.798866
88711851045979,0.25206125,-0.08235475,9.743877
88711870910890,0.27394888,-0.0433605,9.717285
88711890769066,0.25928313,-0.06879897,9.7978525
88711910627114,0.28494278,-0.12865874,9.772755
88711930485290,0.25940627,-0.046262164,9.780449
88711950343338,0.20552038,-0.078594305,9.749412
88711970200338,0.18177603,-0.16851781,9.713505
88711990058386,0.28229412,-0.0993913,9.797235
88712009916434,0.30317244,-0.08489098,9.756297
88712029774482,0.20816498,-0.018103387,9.662806
88712049632402,0.2222439,-0.023806658,9.796717
88712069492718,0.31682196,-0.12836397,9.857799
88712089350766,0.29785052,-0.11627495,9.704631
88712109208814,0.12572122,-0.09816466,9.731813
88712129066734,0.28208473,-0.14272551,9.7817135
88712148924782,0.39972302,0.041866016,9.801336
88712168788787,0.22727996,-0.076260656,9.732089
88712188646963,0.18462357,-0.12425646,9.798866
88712208505139,0.312351,-0.102885984,9.780543
88712228363315,0.31707013,-0.047085498,9.648476
88712248221491,0.31763682,-0.06663753,9.692651
88712268087850,0.28379935,-0.009381199,9.832017
88712287946283,0.28816074,-0.066265,9.8030205
88712307804714,0.2997695,-0.1347674,9.758173
88712327663018,0.25881717,-0.09487126,9.776615
88712347521450,0.31475106,-0.14331126,9.730004
88712367374721,0.2643605,-0.03669781,9.797366
88712387233025,0.29982764,-0.091638386,9.792841
88712407091329,0.36646533,-0.11331496,9.835516
88712426949633,0.38969302,-0.026581666,9.756096
88712446807938,0.23391475,-0.08001449,9.782844
88712466653649,0.337084,-0.097400576,9.728984
88712486511698,0.42685863,-0.06882824,9.739323
88712506369619,0.32724857,-0.08418823,9.777874
88712526227668,0.28647524,-0.058974404,9.779284
88712546085717,0.32259154,-0.048301224,9.790705
88712565935738,0.32227302,-0.07518581,9.664153
88712585793659,0.29962623,-0.03918519,9.756871
88712605651580,0.3587915,-0.0681682,9.825883
88712625509629,0.35454985,-0.094275035,9.8039255
88712645367550,0.26417503,-0.0860343,9.752544
88712665219149,0.2746955,-0.06669581,9.735355
88712685076942,0.35866696,-0.0488745,9.725375
88712704934735,0.32928056,-0.06445904,9.727898
88712724792528,0.24384806,-0.15537418,9.696797
88712744650321,0.2195517,-0.13831197,9.80791
88712764511070,0.32360554,-0.1295734,9.80067
88712784368991,0.36668584,-0.09311768,9.804647
88712804226784,0.3253947,-0.052863743,9.790624
88712824084559,0.2657194,-0.06690192,9.787261
88712843942351,0.29742718,-0.08205104,9.684563
88712863799064,0.34551984,-0.10701205,9.768775
88712883656856,0.35658893,-0.16458285,9.906052
88712903514648,0.35810027,-0.14954177,9.841215
88712923372568,0.26098862,-0.013080312,9.650904
88712943230360,0.2751738,-0.083276056,9.694275
88712963084295,0.37943375,-0.10882752,9.860364
88712982941959,0.3092631,-0.078853935,9.815452
88713002799751,0.14665551,-0.1907608,9.726358
88713022657415,0.19320837,-0.16263857,9.706063
88713042515627,0.38783732,-0.14703682,9.765696
88713062363996,0.38086122,-0.073166214,9.855193
88713082221404,0.19045421,-0.068746075,9.8103075
88713102078940,0.18451981,-0.14752412,9.721834
88713121936348,0.3106035,-0.1346865,9.657052
88713141793884,0.34144244,-0.14210771,9.789065
88713161653133,0.35355517,-0.10783372,9.805224
88713181510541,0.2893011,0.07091223,9.768405
88713201367950,0.23359306,0.014625148,9.745856
88713221225487,0.23307933,-0.14406422,9.69731
88713241082896,0.2721648,-0.10529111,9.70391
88713260940301,0.24296543,-0.11624022,9.729484
88713280801543,0.21198307,-0.105672576,9.810877
88713300658951,0.28802902,-0.16004443,9.8578
88713320516487,0.26184228,-0.09989632,9.718209
88713340373895,0.20985423,-0.09741497,9.739695
88713360231432,0.23991951,-0.09971923,9.7765255
88713380091905,0.30015582,-0.15298371,9.760309
88713399949314,0.20764033,-0.08765237,9.7323
88713419806851,0.16987321,-0.12835242,9.771329
88713439664388,0.257443,-0.18684372,9.760975
88713459521797,0.30539525,-0.14431678,9.744582
88713479381100,0.25280493,-0.112986825,9.738857
88713499238637,0.28807694,-0.11997539,9.828457
88713519096046,0.28809553,-0.09832908,9.810485
88713538953583,0.2478914,-0.109619975,9.698224
88713558811120,0.2418542,-0.11645951,9.721259
88713578668589,0.2374488,-0.13880026,9.732644
88713598526126,0.25360698,-0.1231874,9.736785
88713618383663,0.31974626,-0.14268078,9.861145
88713638241200,0.28181943,-0.18750493,9.817971
88713658098737,0.19820729,-0.062714,9.68892
88713677963118,0.18314524,-0.034705807,9.655934
88713697820783,0.3074263,-0.13316213,9.709827
88713717678576,0.33380625,-0.08925414,9.766887
88713737536241,0.20129572,-0.08487976,9.793719
88713757393906,0.16329052,-0.152777,9.778289
88713777260019,0.22917612,-0.038872603,9.683198
88713797117812,0.28380206,-0.06742102,9.659404
88713816975712,0.26625,-0.0786501,9.694053
88713836833632,0.21049564,-0.027760092,9.811393
88713856691552,0.25609288,-0.03207488,9.76815
88713876553257,0.30273414,-0.077093616,9.809752
88713896411433,0.32971781,-0.10908833,9.856624
88713916269481,0.24858962,-0.09402615,9.806921
88713936127529,0.24053454,0.02227269,9.735184
88713955985705,0.3253538,-0.07709972,9.748138
88713975844893,0.29366043,-0.054012503,9.74454
88713995703069,0.20459862,-0.060474224,9.767381
88714015561117,0.21163902,-0.14809564,9.774129
88714035419293,0.30491263,-0.15751347,9.823357
88714055277469,0.29309574,-0.09954319,9.830607
88714075128325,0.2427786,-0.0186345,9.656212
88714094986245,0.22187021,-0.023211982,9.712773
88714114844293,0.30069634,-0.09536548,9.749874
88714134702341,0.34345958,-0.0977302,9.762992
88714154560261,0.393325,-0.15864934,9.903005
88714174420974,0.39484492,-0.1978447,9.816853
88714194278894,0.2939402,-0.07034205,9.781471
88714214136942,0.27168623,-0.0717041,9.685335
88714233994862,0.35910696,-0.16425402,9.798858
88714253852911,0.4030859,-0.18040316,9.831639
88714273710964,0.31927833,-0.1879452,9.795823
88714293568883,0.20317811,-0.11097029,9.702307
88714313426931,0.23531257,-0.14828846,9.769155
88714333284851,0.34987652,-0.22114138,9.725106
88714353142771,0.29399568,-0.15807286,9.785507
88714372999672,0.29007423,-0.11724912,9.86542
88714392857721,0.2944099,-0.071927615,9.718842
88714412715770,0.26922044,-0.05116992,9.766817
88714432573819,0.34904394,-0.080127366,9.770204
88714452431740,0.31251162,-0.034993052,9.80108
88714472282121,0.31296217,-0.040009156,9.72386
88714492140042,0.293383,-0.07458235,9.694941
88714511997835,0.27247086,-0.028858423,9.74548
88714531855756,0.33670932,-0.020522038,9.733873
88714551713549,0.3594491,-0.021546977,9.72605
88714571564854,0.28259978,-0.07991731,9.798475
88714591422519,0.2660646,-0.09834915,9.801953
88714611280184,0.28489596,-0.039733283,9.788154
88714631137977,0.3193529,-0.0724844,9.78335
88714650995642,0.24849552,0.037104305,9.6957445
88714670847107,0.21357222,0.046832792,9.726403
88714690704644,0.33820704,-0.09614479,9.792129
88714710562181,0.30663007,-0.10733089,9.797128
88714730419590,0.22966303,-0.030855205,9.78042
88714750277127,0.29356432,-0.0048235063,9.760383
88714770141602,0.34122303,0.06652732,9.865369
88714789999267,0.38063487,0.005157862,9.781933
88714809856932,0.27613327,-0.03125258,9.740308
88714829714577,0.24449337,-0.13463064,9.760875
88714849572241,0.2978146,-0.15219112,9.768957
88714869425851,0.29155523,-0.08225209,9.7834835
88714889283387,0.2972281,-0.071761794,9.83248
88714909141051,0.25993285,-0.028822668,9.780335
88714928998587,0.24809316,-0.012130067,9.681627
88714948856123,0.27797335,-0.11163147,9.6586075
88714968721906,0.25742555,-0.1576527,9.776664
88714988579570,0.24972525,-0.09105785,9.777117
88715008437362,0.28294557,-0.10766773,9.804715
88715028295026,0.27602828,-0.034434143,9.7946
88715048152818,0.26951098,-0.028686708,9.729426
88715068005290,0.2538277,0.025782173,9.759206
88715087863082,0.27448946,0.015979555,9.828213
88715107720746,0.28256452,-0.13574734,9.782435
88715127578410,0.21238826,-0.05529221,9.690147
88715147436074,0.2160434,0.0034838505,9.725835
88715167291617,0.25901616,-0.03764686,9.757285
88715187149281,0.26767585,0.030701896,9.789115
88715207006945,0.22896071,-0.017323084,9.792087
88715226864482,0.20423368,2.6554894E-4,9.779307
88715246722145,0.27245584,-2.2039449E-4,9.728957
88715266591262,0.23732014,-0.05585277,9.742024
88715286449055,0.23040368,-0.10188977,9.837951
88715306306974,0.32549262,-0.08693661,9.975234
88715326164766,0.3661823,0.0364501,9.949708
88715346022687,0.14009428,0.087494746,9.35735
88715365885541,0.056876354,-0.0066500288,9.645344
88715385743461,0.36036408,-0.2194168,9.795174
88715405601510,0.17445871,0.059551843,9.788574
88715425459557,0.30982083,-0.066539995,9.758148
88715445316032,0.25913292,-0.062642425,9.8161125
88715465173953,0.25960377,0.030543843,9.740712
88715485032000,0.26455206,0.03574594,9.767482
88715504889920,0.27616125,-0.076978184,9.750628
88715524747841,0.2424559,-0.11721716,9.719155
88715544605888,0.26021218,0.016653614,9.800623
88715564466703,0.36705548,-0.042906296,9.768543
88715584324752,0.28744563,0.01213966,9.763825
88715604182799,0.2961593,0.036114514,9.758012
88715624040847,0.30389684,-0.04874964,9.760902
88715643898896,0.22836387,0.035253454,9.736221
88715663755371,0.32036576,0.013127177,9.707981
88715683613289,0.35181528,-0.02120721,9.757827
88715703471338,0.36631528,0.028510012,9.766603
88715723329257,0.3558618,0.0736405,9.807569
88715743187305,0.32157665,-0.0052908896,9.841731
88715763045354,0.30334017,-0.049142316,9.682866
88715782911284,0.29766893,-0.021284923,9.644937
88715802769460,0.38508454,0.011150733,9.804185
88715822627637,0.44223154,-0.033001155,9.888244
88715842485940,0.28949568,0.112187155,9.729689
88715862348407,0.26718602,0.17082448,9.6805105
88715882206712,0.40792504,0.03916477,9.784739
88715902065143,0.3456371,0.06492095,9.782558
88715921923447,0.33381206,0.025758807,9.72656
88715941781880,0.31346002,-0.06548043,9.753818
88715961638367,0.353145,-0.026975544,9.717395
88715981496799,0.30437472,0.0805123,9.674054
88716001355104,0.28700438,0.065471314,9.822331
88716021213535,0.40947416,-0.032525927,9.874382
88716041071839,0.34315953,-0.003333211,9.7633
88716060930144,0.30131158,0.010102252,9.785797
88716080779097,0.33250916,-0.015709953,9.809511
88716100637273,0.333563,-0.024296112,9.757253
88716120495450,0.37210092,-0.028312264,9.724476
88716140353625,0.3736897,-0.0946366,9.760647
88716160211338,0.30463886,0.0069015804,9.778218
88716180069387,0.33481336,-0.05629549,9.756007
88716199927562,0.355758,-0.094829895,9.74822
88716219785610,0.29129905,0.050172035,9.710739
88716239643787,0.19694386,0.023032233,9.713688
88716259505798,0.31423432,-0.048128404,9.833627
88716279363975,0.3694855,-0.0367563,9.739571
88716299222152,0.37146387,0.0047532585,9.716112
88716319080329,0.3870556,-0.021329088,9.842688
88716338938506,0.29570773,1.2909113E-4,9.780278
88716358796555,0.2203956,0.16647579,9.734014
88716378653194,0.2902106,0.13407068,9.782815
88716398511371,0.37246144,-5.556016E-4,9.776981
88716418369548,0.29093528,-0.03499681,9.747796
88716438227725,0.22327559,0.01079374,9.7725
88716458073704,0.2625801,0.01966481,9.827947
88716477931625,0.27778357,0.116972625,9.718012
88716497789418,0.21104912,0.110540874,9.68462
88716517647339,0.25424296,0.03090564,9.779401
88716537505260,0.33079034,8.751592E-4,9.841776
88716557352775,0.26385528,0.02519944,9.732946
88716577210440,0.25324142,-0.02124116,9.697312
88716597068105,0.28047588,0.030065069,9.706524
88716616925770,0.27264142,0.08417729,9.765181
88716636783563,0.29762065,-0.051217917,9.915522
88716656641228,0.2247182,0.018247971,9.795837
88716676495845,0.17221984,0.089717425,9.736683
88716696353360,0.26863834,-0.03336459,9.725903
88716716211025,0.24382463,-0.009017989,9.710139
88716736068562,0.3029136,-0.06036254,9.772166
88716755924111,0.23501626,-0.100890815,9.800802
88716775781520,0.20123914,-0.08228566,9.772086
88716795639057,0.18643232,0.0085684005,9.715931
88716815496461,0.2629815,0.05061844,9.746619
88716835353998,0.3341234,-0.082357936,9.905577
88716855211405,0.2318443,-0.11268013,9.892372
88716875069276,0.21692175,-0.102229126,9.794733
88716894926813,0.19047038,-0.046936646,9.714614
88716914784348,0.25803587,-0.050762616,9.745339
88716934641756,0.26970425,-0.092616774,9.795458
88716954499293,0.27585816,-0.10594357,9.822175
88716974363452,0.25290567,-0.08090943,9.787305
88716994221116,0.2366647,-0.04357997,9.665848
88717014078653,0.25253126,-0.039881777,9.694957
88717033936316,0.24829173,-0.09855691,9.752655
88717053791420,0.2088348,-0.008021583,9.69594
88717073648957,0.25340736,0.0027232405,9.728029
88717093504734,0.24511896,-0.10793209,9.756491
88717113362270,0.24304149,-0.042999007,9.80051
88717133219807,0.22997597,-0.069006115,9.779862
88717153077342,0.23045973,-0.080891326,9.826732
88717172938072,0.32061905,-0.034940638,9.835441
88717192795609,0.22406691,-0.040906586,9.775969
88717212653144,0.21336165,-0.048338287,9.743906
88717232510808,0.2888864,-0.05099469,9.772142
88717252368345,0.28301436,0.019617427,9.777885
88717272226354,0.23467757,-0.08841039,9.816061
88717292084018,0.16099666,-0.08617306,9.700118
88717311941555,0.17908111,-0.07155982,9.723432
88717331799090,0.2918119,-0.10311749,9.796122
88717351655859,0.24830636,-0.054134026,9.835964
88717371513396,0.19877142,-0.037308842,9.754855
88717391370933,0.1865369,-0.06823275,9.651669
88717411228598,0.24603234,-0.062148705,9.754362
88717431086135,0.266703,-0.13734442,9.82331
88717450943672,0.23857935,-0.15282796,9.862026
88717470805487,0.24192484,-0.048005894,9.846225
88717490663280,0.269644,0.007693277,9.720624
88717510520945,0.29561278,0.026683098,9.752269
88717530378610,0.2887438,-0.13692124,9.774152
88717550236275,0.19900498,-0.11309352,9.802501
88717570093378,0.2164065,-0.07119905,9.674255
88717589951043,0.21418774,-0.03931397,9.774585
88717609808708,0.26713857,-0.061304837,9.7804
88717629666373,0.2677525,-0.051878072,9.748319
88717649524166,0.2437213,-0.12538268,9.833179
88717669381831,0.23265302,-0.12172132,9.8442335
88717689238288,0.28576759,-0.055032965,9.772589
88717709095953,0.27580643,-0.05736915,9.7499
88717728953490,0.2670669,-0.10393688,9.734261
88717748811155,0.21980016,-0.018060995,9.765383
88717768681736,0.27418488,-0.06786121,9.8088255
88717788539657,0.23471257,-0.11748168,9.746826
88717808397558,0.19048767,-0.07708957,9.7219095
88717828255478,0.21811213,-0.13343738,9.73676
88717848113399,0.23305282,-0.20417911,9.848445
88717867978340,0.3187307,-0.17575248,9.907229
88717887836516,0.28274074,-0.092955574,9.769886
88717907694693,0.23317003,-0.009951955,9.6243105
88717927552740,0.26764452,-0.08007087,9.726198
88717947410916,0.32926616,-0.17705281,9.754618
88717967269093,0.2952465,-0.13370746,9.850259
88717987103241,0.19423683,-0.1098681,9.789597
88718006960905,0.24506204,-0.08259609,9.766806
88718026818698,0.3478657,-0.11375547,9.745214
88718046676489,0.2779531,-0.103536,9.86519
88718066531246,0.23541787,-0.13614288,9.761636
88718086388911,0.15864089,-0.09815503,9.68221
88718106246574,0.2666447,-0.16797523,9.717369
88718126104238,0.3146442,-0.15374757,9.753697
88718145961903,0.286481,-0.14604491,9.827958
88718165825998,0.17299467,-0.10367231,9.820122
88718185683662,0.16104259,-0.13235971,9.794315
88718205541327,0.23476942,-0.088621706,9.655572
88718225398990,0.29972288,-0.11859076,9.7176075
88718245256655,0.27870545,-0.20581795,9.79203
88718265114320,0.20537435,-0.14197122,9.929318
88718284984124,0.15661016,-0.1299716,9.900934
88718304842044,0.1837218,-0.15078223,9.662087
88718324699965,0.22045642,-0.12872997,9.633955
88718344557884,0.20114194,-0.19576576,9.763283
88718364416123,0.17601183,-0.21865204,9.845489
88718384274044,0.16963339,-0.18886025,9.722031
88718404131963,0.15935834,-0.14576837,9.718511
88718423989884,0.21956101,-0.14960226,9.709055
88718443847805,0.26240167,-0.12447558,9.820571
88718463703246,0.21946324,-0.22858317,9.824774
88718483561039,0.18042968,-0.21411447,9.862177
88718503418960,0.22714286,-0.14232215,9.785312
88718523276747,0.2085051,-0.1278746,9.783159
88718543134539,0.23093846,-0.20028317,9.766377
88718562992460,0.20911343,-0.1776183,9.7960415
88718582847484,0.207533,-0.163229,9.756935
88718602705404,0.23479608,-0.16338252,9.7524185
88718622563197,0.22043502,-0.18672508,9.723673
88718642421116,0.16037434,-0.1489107,9.724372
88718662275147,0.18851799,-0.13989821,9.753394
88718682132940,0.16999714,-0.18103033,9.815401
88718701990731,0.23853184,-0.123216994,9.718013
88718721848395,0.17682235,-0.10815462,9.72964
88718741706188,0.13279368,-0.2480497,9.802726
88718761563979,0.14373593,-0.17387784,9.76739
88718781428392,0.11342485,-0.12322838,9.843455
88718801286313,0.11827788,-0.13045356,9.610106
88718821144232,0.122054905,0.019400816,9.620038
88718841002152,0.26822647,-0.32172224,9.93681
88718860860073,0.15087794,-0.25347584,10.031657
88718880721168,0.10039245,-0.036658302,9.821636
88718900579088,0.10746787,-0.08870697,9.602608
88718920437137,0.15888792,-0.098284535,9.643257
88718940295056,0.20338391,-0.20519985,9.807816
88718960155653,0.078771375,-0.13717546,9.780381
88718980013702,0.096924014,-0.1509558,9.806776
88718999871748,0.1351722,-0.14126676,9.728155
88719019729668,0.11338555,-0.08073988,9.650377
88719039587717,0.16386944,-0.10366613,9.778483
88719059445764,0.17895187,-0.19780153,9.902777
88719079304556,0.14335798,-0.1733254,9.810565
88719099162605,0.14113696,-0.106488615,9.636397
88719119017529,0.16717976,-0.092363395,9.740216
88719138875577,0.2363167,-0.14119187,9.766263
88719158733626,0.22489095,-0.17410843,9.785174
88719178588274,0.14644332,-0.20817767,9.833216
88719198446194,0.14016017,-0.15333274,9.779966
88719218304243,0.23167972,-0.08563967,9.741501
88719238162162,0.25608534,-0.17219523,9.774664
88719258024385,0.22564043,-0.18721442,9.854164
88719277882434,0.20198679,-0.13515937,9.791754
88719297740481,0.13629471,-0.05214206,9.775692
88719317598529,0.18187892,-0.19028924,9.787065
88719337456706,0.27268907,-0.35396358,9.748887
88719357314753,0.21941642,-0.27795517,9.7903385
88719377172756,0.15424739,-0.17820819,9.947758
88719397030933,0.20567712,-0.15444216,9.845964
88719416889110,0.21747182,-0.1013176,9.670086
88719436747284,0.12378336,-0.14210641,9.6279335
88719456605461,0.07851511,-0.14614204,9.668361
88719476470659,0.07122672,-0.21068498,9.634459
88719496328963,0.1673864,-0.29689723,9.780081
88719516187396,0.24441005,-0.26031545,9.822211
88719536045699,0.104780175,-0.11127949,9.853339
88719555904132,0.14246465,-0.16268808,9.804684
88719575762565,0.21056826,-0.1841208,9.807455
88719595603304,0.28621706,-0.19580731,9.814026
88719615461225,0.27643788,-0.14954722,9.776671
88719635319018,0.20425946,-0.053834897,9.7696
88719655176811,0.19673035,-0.12115898,9.760982
88719675029100,0.16269271,-0.25461736,9.811615
88719694886765,0.12216684,-0.2523731,9.872761
88719714744430,0.11934051,-0.09361286,9.72322
88719734602095,0.14958736,-0.101040415,9.648977
88719754459760,0.20442465,-0.24243191,9.774472
88719774317553,0.17340168,-0.26457822,9.829492
88719794183062,0.11432762,-0.3063772,9.726393
88719814040983,0.14300416,-0.18964313,9.616065
88719833898774,0.20599112,-0.22126605,9.695834
88719853756694,0.2401548,-0.24002412,9.764985
88719873614487,0.18080373,-0.2588225,9.862397
88719893473631,0.1395907,-0.33863255,9.927445
88719913331551,0.19123414,-0.25368243,9.843431
88719933189600,0.17061718,-0.26110214,9.732553
88719953047519,0.07999767,-0.21416044,9.744722
88719972905738,0.03748932,-0.203965,9.77704
88719992763787,0.1193803,-0.23856787,9.749095
88720012621834,0.15084429,-0.28362665,9.799591
88720032479754,0.08644545,-0.30057502,9.815529
88720052337803,0.07327937,-0.25558782,9.776398
88720072195850,0.09600524,-0.22668478,9.809593
88720092052648,0.11001959,-0.35519677,9.841258
88720111910569,0.14937381,-0.2561768,9.751687
88720131768616,0.06779394,-0.17909567,9.72111
88720151626536,0.051149357,-0.24642053,9.831871
88720171484585,0.10450038,-0.28091535,9.820051
88720191341492,0.08813406,-0.29234406,9.78339
88720211199413,0.07699455,-0.2552152,9.779971
88720231057206,0.05510037,-0.26192725,9.828735
88720250915124,0.107446365,-0.26060516,9.763659
88720270771630,0.10582742,-0.23893036,9.756618
88720290629423,0.0907914,-0.24097419,9.751339
88720310487214,0.08317283,-0.15267621,9.823943
88720330345006,0.026739968,-0.27706945,9.746144
88720350202927,0.03498031,-0.23654021,9.670415
88720370060718,0.057232097,-0.18978387,9.772922
88720389925647,0.06347591,-0.24059995,9.837053
88720409783568,0.037005287,-0.22859135,9.917838
88720429641489,0.02043554,-0.22247434,9.736468
88720449499538,0.060904916,-0.097448565,9.690813
88720469357459,0.10447016,-0.19934341,9.778815
88720489214924,0.10390304,-0.21341355,9.749833
88720509072845,0.06401388,-0.23688413,9.730736
88720528930894,0.00956584,-0.16521324,9.714029
88720548788815,0.03982146,-0.16850469,9.722159
88720568637488,0.10638967,-0.24714825,9.773486
88720588495281,0.083988525,-0.2801945,9.829352
88720608353074,0.079848334,-0.23423603,9.779413
88720628210867,0.06093089,-0.23675972,9.706986
88720648068788,0.08670845,-0.21362041,9.691685
88720667926581,0.14461587,-0.2646292,9.799829
88720687777980,0.09781705,-0.2946204,9.892691
88720707635773,0.09946363,-0.18572395,9.820593
88720727493438,0.07602196,-0.29396603,9.743369
88720747351103,0.09413899,-0.26290804,9.634914
88720767208768,0.13411325,-0.23057099,9.714424
88720787065677,0.08571587,-0.30583867,9.775862
88720806923342,0.07642214,-0.21023408,9.763077
88720826781007,0.08292369,-0.29379416,9.75938
88720846638650,0.06427402,-0.35634184,9.777126
88720866496314,0.13507956,-0.24231297,9.689311
88720886353979,0.15623501,-0.23084207,9.780857
88720906213289,0.14642525,-0.32161164,9.867574
88720926071081,0.11600062,-0.35266834,9.83725
88720945928746,0.116079144,-0.32965598,9.728818
88720965786409,0.18921362,-0.22881468,9.787788
88720985642684,0.1597048,-0.24399759,9.772234
88721005500349,0.12058586,-0.27009186,9.668345
88721025357884,0.12889023,-0.28267804,9.682971
88721045215548,0.12585878,-0.2945067,9.7650795
88721065073213,0.16994059,-0.30213943,9.7255745
88721084929159,0.10984565,-0.28254527,9.752105
88721104786823,0.1401774,-0.23384255,9.869746
88721124644488,0.13882655,-0.26917398,9.807104
88721144499606,0.11618469,-0.20085332,9.628794
88721164357270,0.105804496,-0.20083289,9.753032
88721184214807,0.12645973,-0.30834556,9.842115
88721204080741,0.20350455,-0.285834,9.844289
88721223938533,0.09173383,-0.24702184,9.803153
88721243796198,0.033183247,-0.2743795,9.757341
88721263653989,0.16008115,-0.19491293,9.73677
88721283516105,0.18238756,-0.2790942,9.777602
88721303373898,0.15737092,-0.23708552,9.754601
88721323231689,0.08947077,-0.16250555,9.674574
88721343089481,0.059238143,-0.22775184,9.723679
88721362947274,0.1154628,-0.2653063,9.826218
88721382805719,0.20972961,-0.34655854,9.794726
88721402663512,0.201439,-0.16402726,9.852138
88721422521433,0.11376258,-0.21747153,9.835048
88721442379226,0.13387112,-0.29327694,9.687007
88721462237147,0.15848781,-0.12237673,9.68514
88721482094940,0.11985745,-0.25598598,9.827894
88721501955243,0.15238805,-0.24757157,9.88407
88721521813036,0.1644698,-0.18277706,9.7315645
88721541670957,0.14091346,-0.16342609,9.726787
88721561528750,0.20126669,-0.20171967,9.819185
88721581390583,0.20561554,-0.2839008,9.789051
88721601248504,0.15093592,-0.110214375,9.801642
88721621106553,0.13978694,-0.14644814,9.74828
88721640964474,0.18981433,-0.20943695,9.748348
88721660822395,0.16908789,-0.10378992,9.821006
88721680680316,0.11295212,-0.25757772,9.889108
88721700536701,0.14291374,-0.12825945,9.7861185
88721720394622,0.08707635,-0.11342314,9.778144
88721740252543,0.11620581,-0.117089026,9.752942
88721760110464,0.15712018,-0.16396193,9.789978
88721779968385,0.11682807,-0.15933049,9.8117
88721799832253,0.12486633,-0.13809085,9.738123
88721819690301,0.13863096,-0.1098258,9.7238455
88721839548350,0.14826088,-0.12516375,9.768895
88721859406397,0.13315141,-0.10531765,9.813281
88721879269937,0.096700214,-0.2083334,9.766159
88721899128114,0.08223782,-0.09367844,9.739621
88721918986289,0.10424032,-0.18348451,9.922134
88721938844593,0.16483292,-0.20596948,9.844874
88721958702770,0.04746702,-0.12910613,9.667665
88721978560945,0.053635366,-0.09293417,9.758284
88721998423895,0.19435227,-0.14976116,9.884106
88722018282200,0.10973105,-0.17337444,9.798437
88722038140631,-0.015382808,-0.14174841,9.685862
88722057999063,0.08576854,-0.10839085,9.807907
88722077857496,0.22049752,-0.24445762,9.7835
88722097708930,0.12951982,-0.13297251,9.829875
88722117567362,0.01589774,-0.12239754,9.788391
88722137425667,0.07835023,-0.20781146,9.697312
88722157283970,0.14735806,-0.07908298,9.67239
88722177144962,0.14947751,-0.2154687,9.909065
88722197003267,0.19513285,-0.20633489,9.89113
88722216861698,0.071239606,-0.1985256,9.686857
88722236720002,0.019842677,-0.16153789,9.668465
88722256578307,0.1310325,-0.12513761,9.716705
88722276436610,0.2003099,-0.24192996,9.744075
88722296295402,0.16531806,-0.16674782,9.839013
88722316153707,0.13611297,-0.26873106,9.88857
88722336012012,0.16712609,-0.24109946,9.75374
88722355870317,0.13969588,-0.10643673,9.683773
88722375728622,0.12401536,-0.13736802,9.768529
88722395582355,0.15815388,-0.28351197,9.777616
88722415440660,0.15589482,-0.1658355,9.75084
88722435298837,0.09414506,-0.22180851,9.824972
88722455157014,0.12968132,-0.22422677,9.852051
88722475009163,0.15309678,-0.24836805,9.724264
88722494867212,0.15048888,-0.15850498,9.789941
88722514725261,0.14804715,-0.21283992,9.769863
88722534583438,0.12248273,-0.18708323,9.670986
88722554441487,0.1544505,-0.13036755,9.745311
88722574299536,0.19284743,-0.26882863,9.828511
88722594144017,0.18667062,-0.18729731,9.745182
88722614001810,0.14103736,-0.12665781,9.693764
88722633859603,0.12129823,-0.23114358,9.788081
88722653717396,0.1900088,-0.2328315,9.774864
88722673575317,0.17578594,-0.20115949,9.72031
88722693422424,0.15930417,-0.114120014,9.7901745
88722713279961,0.21146944,-0.15936661,9.837996
88722733137498,0.2314635,-0.30597928,9.856071
88722752995035,0.20480134,-0.2041062,9.774753
88722772852550,0.07655475,-0.21743092,9.684685
88722792709959,0.15560241,-0.13983709,9.822892
88722812575956,0.22217678,-0.17661986,9.83261
88722832433747,0.06320906,-0.11252624,9.6862135
88722852291412,0.05326729,-0.004146805,9.70414
88722872149075,0.11195071,-0.23550709,9.815908
88722892007044,0.11937514,-0.2716715,9.802987
88722911864709,0.1270119,-0.1584009,9.7161665
88722931722500,0.15193886,-0.2011939,9.798647
88722951580164,0.15762745,-0.14903134,9.826185
88722971437829,0.09347745,-0.2273437,9.692762
88722991291628,0.19214399,-0.20450346,9.745551
88723011149164,0.23549849,-0.20128882,9.906562
88723031006701,0.20836842,-0.25034803,9.7368
88723050864236,0.19239287,-0.15845829,9.662765
88723070721900,0.18466051,-0.20518461,9.755966
88723090579437,0.20780474,-0.22468293,9.813712
88723110435163,0.21908888,-0.21402588,9.811874
88723130292699,0.17914845,-0.31236175,9.800347
88723150150236,0.20868827,-0.17608574,9.739743
88723170009053,0.18517567,-0.17256126,9.667428
88723189869095,0.17333035,-0.17322856,9.796188
88723209726760,0.20061447,-0.22193758,9.8536
88723229584295,0.1350484,-0.2819575,9.727694
88723249441831,0.09966185,-0.1308317,9.750426
88723269299496,0.10870199,-0.23717022,9.754847
88723289160166,0.20259653,-0.2504125,9.704925
88723309017830,0.15255153,-0.17464782,9.753895
88723328875367,0.081166476,-0.23950398,9.79194
88723348732902,0.147928,-0.23432672,9.742732
88723368590566,0.17829081,-0.14897749,9.783988
88723388448103,0.12484744,-0.20558895,9.863182
88723408307788,0.09404093,-0.20756082,9.823851
88723428165453,0.05662542,-0.24763092,9.642364
88723448023118,0.09390581,-0.22196417,9.722441
88723467880783,0.12807688,-0.27569765,9.853053
88723487742892,0.06772929,-0.26312742,9.652979
88723507600557,0.025669752,-0.11114128,9.709733
88723527458350,0.13100305,-0.27535,9.857525
88723547316137,0.2092531,-0.3049525,9.799514
88723567173802,0.087695405,-0.09439451,9.639621
88723587031593,0.02068991,-0.11488423,9.722856
88723606874726,0.095432185,-0.29663873,9.827715
88723626732263,0.13255358,-0.34264126,9.854153
88723646589798,0.081606336,-0.18564297,9.862251
88723666447206,0.052674294,-0.124278806,9.74781
88723686304743,0.11445333,-0.18940438,9.6625185
88723706161701,0.16018908,-0.22392951,9.880957
88723726019109,0.16600114,-0.27242976,9.850734
88723745876518,0.09736429,-0.12933181,9.722967
88723765733925,0.023703158,-0.04703839,9.732942
88723785600938,0.02416514,-0.17764172,9.774507
88723805458603,0.07959469,-0.20081404,9.842237
88723825316138,0.067652695,-0.28197128,9.838472
88723845173802,0.051794432,-0.13236146,9.704881
88723865031467,0.04442683,-0.071631975,9.740452
88723884889130,0.068453036,-0.17191896,9.772721
88723904756956,0.12533005,-0.22620583,9.859199
88723924614877,0.12310533,-0.20834729,9.823551
88723944472796,0.06699405,-0.15131398,9.805208
88723964330716,0.054383315,-0.18420315,9.838046
88723984188637,0.10530487,-0.21271724,9.671627
88724004055815,0.047490906,-0.17921664,9.761804
88724023913991,0.037377242,-0.16950671,9.753832
88724043772168,0.043230854,-0.09947513,9.678246
88724063630215,0.060071737,-0.14129141,9.718486
88724083491829,0.110200085,-0.16606656,9.757626
88724103350134,0.090937264,-0.23352711,9.883153
88724123208309,0.23299079,-0.2608658,9.784299
88724143066486,0.1692361,-0.16852203,9.81523
88724162924791,0.15826117,-0.23180279,9.818521
88724182782968,0.17173742,-0.23198491,9.746697
88724202641389,0.16851869,-0.23533846,9.850963
88724222499566,0.21693534,-0.16079886,9.734153
88724242357743,0.2272099,-0.14832926,9.744993
88724262215920,0.20919679,-0.19952996,9.819371
88724282074097,0.20384467,-0.23127913,9.665189
88724301931654,0.20125422,-0.139469,9.661514
88724321789831,0.20758675,-0.11263356,9.714067
88724341648008,0.14367248,-0.21979818,9.791554
88724361506057,0.1869548,-0.19376127,9.718469
88724381364234,0.22478253,-0.15550767,9.670363
88724401222411,0.22413994,-0.19271268,9.873031
88724421078242,0.25411204,-0.23904915,9.822787
88724440936419,0.17724352,-0.19359054,9.76081
88724460794596,0.14361233,-0.11464927,9.838397
88724480652773,0.1411936,-0.18252593,9.780134
88724500507510,0.22176391,-0.15187536,9.733599
88724520365687,0.20325558,-0.10416462,9.719543
88724540223736,0.08670125,-0.13109806,9.729767
88724560081913,0.13154452,-0.1262648,9.639379
88724579939962,0.17114523,-0.13389882,9.675179
88724599792696,0.1936855,-0.3716352,9.811139
88724619650745,0.1446307,-0.45376915,9.842036
88724639508794,0.1282317,-0.39103433,9.717288
88724659366843,0.1290305,-0.34383625,9.768462
88724679224764,0.2301685,-0.3798844,9.686918
88724699082813,0.15376118,-0.4612185,9.925098
88724718931938,0.19503894,-0.476129,9.870055
88724738789731,0.15985945,-0.38102186,9.720787
88724758647652,0.12637307,-0.27491263,9.816578
88724778505445,0.24354863,-0.35304716,9.684264
88724798362470,0.13524304,-0.4163462,9.816524
88724818220263,0.21316938,-0.27341563,9.744122
88724838078045,0.097658634,-0.29743633,9.707774
88724857935837,0.053809263,-0.31079224,9.835456
88724877793630,0.050051298,-0.3860606,9.916601
88724897648111,0.06063113,-0.50945413,10.141736
88724917505903,0.21635509,-0.46670243,10.060938
88724937363696,0.10342992,-0.44961557,9.936352
88724957221487,0.16028263,-0.40963647,9.986387
88724977079279,0.21871512,-0.41890237,9.867938
88724996937072,0.13313325,-0.45690775,9.965087
88725016796881,0.24513635,-0.42627984,9.92647
88725036654801,0.24862362,-0.48893857,9.9458275
88725056512594,0.30622408,-0.39641044,9.971849
88725076370385,0.32538846,-0.47716463,9.903537
88725096225821,0.34004304,-0.52100915,9.919637
88725116083614,0.38086912,-0.40877867,9.82125
88725135941405,0.27686107,-0.54950297,9.857642
88725155796337,0.25960255,-0.675107,9.9833355
88725175654130,0.34031934,-0.6974375,9.929874
88725195506472,-0.00248931,-0.8613804,9.979291
88725215364008,0.025159564,-0.88116294,10.150564
88725235221545,-0.10923699,-1.0369393,10.238845
88725255078952,-0.2574833,-1.2003341,10.22681
88725274936488,-0.24548371,-1.1523125,10.054011
88725294794025,-0.1330008,-1.075468,10.2868805
88725314652377,-0.47333276,-0.9259524,11.313364
88725334509786,-0.76545924,-1.6343055,11.902778
88725354367323,-0.5848074,-2.0787163,11.689561
88725374224729,0.19507478,-1.8768951,11.080056
88725394082265,0.41960633,-1.1307793,10.629244
88725413940788,1.2560966,-0.03343358,10.27154
88725433798324,0.29977503,-0.06788283,9.995904
88725453655732,-1.523252,-0.41395423,9.341363
88725473513140,-0.33417705,1.6100675,8.816162
88725493370676,0.08534441,1.9285536,9.18207
88725513235120,-1.7097234,0.33928013,10.409172
88725533092784,-2.1704392,-1.5099926,12.41242
88725552950320,-0.7757837,-1.542813,11.788145
88725572807856,1.0971813,-1.3489254,9.248211
88725592665520,-0.60759366,-1.2212044,8.526074
88725612513176,-1.6186699,-0.6380249,9.140578
88725632370584,-1.6587282,-0.45201954,8.706641
88725652228120,-2.4341881,0.3838356,8.176431
88725672085528,-2.2876835,1.4352491,8.266141
88725691942936,-2.0929894,1.3421941,8.452761
88725711805897,-2.057157,1.7111869,8.578864
88725731663433,-2.011991,2.6318479,8.925303
88725751520969,-3.4665568,-0.4173281,9.490205
88725771378634,-3.2579489,-0.71518326,9.386443
88725791236171,-3.3234556,-1.1004493,9.344103
88725811106086,-3.1170933,1.6363602,9.9717455
88725830964006,-3.6451402,2.220624,10.441431
88725850821926,-3.428329,2.8065877,11.884312
88725870679718,-2.5703595,1.1669456,14.847167
88725890537638,0.7005499,-1.3405236,19.70596
88725910401284,3.6750028,-1.8662784,12.88844
88725930259332,4.212337,2.9211667,1.2000548
88725950117380,0.4064522,6.635354,-0.6627763
88725969975428,-2.007135,5.6928453,7.185966
88725989833476,8.762725,-0.46659923,13.4988365
88726009698082,14.049827,2.5210268,11.87934
88726029556258,5.2355947,-0.62193394,10.16033
88726049414434,2.9092078,-2.8776312,9.8403425
88726069272610,3.922436,-1.0009013,10.442668
88726089130786,4.2815375,-0.44038352,9.519705
88726108986573,5.1069365,-0.653433,9.545751
88726128844749,5.0000563,-1.1235504,9.722244
88726148702797,2.9541845,-1.0113146,8.381267
88726168560973,0.69874007,1.7662703,7.9544864
88726188419149,-2.3198016,3.2284372,7.742547
88726208282805,-2.8348598,1.6617453,9.748666
88726228141109,-0.9367376,0.1192408,8.7317505
88726247999413,2.0402527,-0.65319055,6.05215
88726267857717,2.1337907,-0.8633959,6.4842286
88726287715893,-2.4602184,-1.3238757,6.9650865
88726307581816,-3.2527883,-0.7745083,8.666363
88726327440120,-2.1427116,-1.356722,9.553434
88726347298552,-3.4307754,-2.0428646,9.461794
88726367156984,-2.4498813,-1.9566181,10.904008
88726387015416,-2.9713862,-2.9051359,11.496848
88726406871439,2.4341838,-3.5001423,11.891168
88726426729872,5.1379766,-3.6472456,12.689063
88726446588305,7.8154917,-3.6100783,14.27967
88726466446738,5.823428,0.9438924,14.101079
88726486305043,5.6748543,2.5802188,10.730207
88726506150296,9.472126,0.64448273,10.301649
88726526008473,14.2425785,3.3443043,14.258722
88726545866650,11.402093,13.136675,17.42453
88726565724699,0.88579965,7.469357,13.653984
88726585582876,2.2695825,3.1025596,10.000455
88726605434347,5.1143246,0.06536272,9.050714
88726625292396,5.277768,-0.030384505,7.3303776
88726645150445,2.939276,0.087886,6.8331904
88726665008366,2.639228,-1.4502714,8.301839
88726684866415,3.5280285,-4.1808925,5.497563
88726704716752,2.6482322,-5.1000066,1.3340756
88726724574673,-0.6472174,-2.8358407,-0.5049033
88726744432466,-3.0233526,0.44329455,-0.16236512
88726764290259,-1.6044213,2.2685242,1.2409532
88726784148180,-2.1263459,0.98711133,2.1375225
88726803967999,2.6563013,-3.7042093,4.643259
88726823825024,3.6141195,-3.4485862,10.073107
88726843682159,-5.773081,6.7379584,25.777538
88726863539311,-21.025806,6.4598703,25.084904
88726883396463,-20.566593,2.8175976,9.884657
88726903255315,10.4710655,-0.064778,1.4336288
88726923112467,23.376883,-3.707404,8.82725
88726942969491,11.048378,8.214333,16.558525
88726962826643,4.219267,12.585728,11.60605
88726982683795,1.8494021,3.829022,5.6756725
88727002550399,3.9530082,7.1139097,7.7568016
88727022407679,8.521797,3.8827393,9.585686
88727042264831,10.232318,-1.6494808,11.336642
88727062122111,8.503037,-3.1686726,9.943967
88727081979391,7.3282433,-5.4457493,9.146461
88727101840121,0.85853744,-1.1490313,9.298202
88727121697529,-5.802895,3.1178265,9.238291
88727141554809,1.2223577,-3.0328817,9.9363
88727161412089,0.34227842,-2.7563202,9.579131
88727181269369,-1.4378036,2.5003707,9.085489
88727201107966,-1.2998985,1.7550427,7.931746
88727220964734,-3.385273,0.38408005,8.282848
88727240821374,-2.4114864,-1.19593,8.782113
88727260678014,-3.002802,-1.1674777,8.50752
88727280534782,-5.0566907,2.4809296,9.547848
88727300394128,-3.0404599,2.920114,11.311819
88727320250768,-2.632534,2.778067,10.650022
88727340107408,-3.1436868,3.5725782,10.346988
88727359964048,-2.1183243,4.4373755,10.614704
88727379820688,-2.5676432,4.293193,10.657701
88727399689035,-1.1855845,2.3612628,10.531577
88727419545931,2.149246,3.227423,10.7489395
88727439402699,3.238925,4.0034018,12.172116
88727459259596,2.841445,1.7510008,14.562303
88727479116493,2.3822653,0.83996505,16.378685
88727498986640,4.620247,5.1754365,18.126774
88727518843793,8.554032,15.287484,14.602086
88727538700818,1.6884254,10.612862,8.007927
88727558557966,2.6937459,0.7656067,8.0926485
88727578414990,3.5429285,-2.0775175,8.618468
88727598272142,2.418968,-0.3228192,9.022854
88727618140149,1.3303505,-2.3418574,9.188458
88727637997557,-0.16263887,-4.80254,7.7311816
88727657854837,-0.67121726,-5.024358,5.3229885
88727677712245,0.9682265,-2.929532,3.6410446
88727697569525,0.5561604,-0.85789645,2.1655369
88727717439975,-0.41453603,2.6399765,2.435659
88727737297511,-0.75077087,3.3448446,3.8135915
88727757155047,-2.5859761,2.5518136,4.9135866
88727777012583,-4.295052,3.4518766,5.749336
88727796870247,-5.683243,7.01139,9.47893
88727816744185,-3.9667113,10.274856,17.929564
88727836602233,-0.21621768,5.9343576,25.049467
88727856460153,2.6208894,-3.0350108,17.473425
88727876318073,-1.5842394,2.0827873,3.8291771
88727896176121,-0.9937944,6.1468034,-0.9963682
88727916055325,2.8817072,2.5555253,6.6508803
88727935913885,9.768265,-2.5352051,15.474649
88727955772445,7.750768,-4.00182,24.331339
88727975631006,1.8654507,-1.0550449,11.138039
88727995489695,5.2775555,-1.4249723,1.7567844
88728015355738,2.9374332,-2.0117626,4.555476
88728035214682,4.1818495,-2.6179824,8.608883
88728055073498,6.8959885,-2.360003,12.909974
88728074932314,5.18728,-3.3714006,12.268488
88728094791258,2.1369536,-2.480436,10.302494
88728114649623,0.40501347,-0.6103519,9.46081
88728134508567,0.19536103,0.16745597,8.930525
88728154367511,-0.5401548,2.46539,9.316409
88728174226455,-0.54352677,2.5346775,9.956813
88728194085271,1.3042743,0.08387484,9.040582
88728213942740,0.09304749,0.20833413,7.0000367
88728233801684,-1.6255047,0.33393648,7.7629404
88728253660756,-2.7467573,-0.36091572,9.430241
88728273519700,-2.1898549,-2.1742582,8.855391
88728293378772,-0.46306235,-2.4695349,6.767205
88728313245329,-1.1946764,3.7379835,7.044487
88728333104657,0.18919575,4.296744,9.041567
88728352963857,1.2679156,-0.3356508,9.537905
88728372823185,-0.13045964,-0.10592834,10.557744
88728392682385,-1.2088735,2.5038512,10.444334
88728412517184,-1.5956823,1.8335608,9.7897835
88728432375744,-2.4958756,0.084132,10.306594
88728452234304,-3.3372247,-0.14542815,10.378456
88728472092864,-3.1510851,0.5451097,9.675672
88728491951424,-2.060111,1.0863711,9.385807
88728511799268,-1.1856855,1.2768971,11.220007
88728531657572,-0.42601955,0.9993318,13.669654
88728551516004,-0.2773804,0.019601801,14.688466
88728571374308,1.6250826,-2.7536967,13.091161
88728591232741,3.351758,-2.1379635,10.9060545
88728611086748,4.362394,-2.0692499,10.105458
88728630945181,6.250146,-0.43850535,11.173807
88728650803486,8.530985,1.735044,11.632699
88728670661919,2.0931113,0.46776742,9.622526
88728690520224,0.6899382,-1.2152107,9.027882
88728710380679,1.0637457,-1.6868396,9.38438
88728730239112,1.1855382,-1.1975693,9.541779
88728750097545,1.6848803,-0.99312836,8.921286
88728769955978,1.6310813,-1.2333751,9.1718855
88728789814400,2.0452268,-2.8157084,7.241775
88728809661891,1.2600363,-1.5090033,5.7728777
88728829519939,0.4689077,2.8457081,6.4472327
88728849377987,2.1076295,2.8404164,7.741722
88728869236035,2.6803017,0.570292,8.570563
88728889094083,1.1062157,0.6737879,8.906335
88728908942805,0.24800469,0.79117966,9.76645
88728928800597,-1.0882859,-0.034199964,11.725832
88728948658389,-3.7552378,0.011055536,12.954119
88728968516053,-1.7610759,0.16046529,10.498005
88728988373845,2.8048718,-0.53747344,7.7413006
88729008228681,3.2587972,0.05982473,6.304526
88729028086345,3.4046957,1.5773025,6.8997774
88729047944009,4.2626505,2.767652,8.58812
88729067801673,2.2877455,3.5559201,9.869425
88729087659337,1.87203,1.0569843,10.338263
88729107509908,1.4368304,-1.4933641,10.381167
88729127367316,-1.655184,-0.48621055,11.756161
88729147224852,-1.6509662,0.33763728,12.437173
88729167082388,-1.071664,1.0281314,10.967183
88729186939592,-1.0089658,2.0633883,9.714966
88729206793817,-0.8267425,1.7325511,9.461005
88729226651226,-0.34869555,0.3140436,9.597781
88729246508632,0.93508923,-1.4777083,9.137492
88729266365912,1.5670152,-1.4845839,9.444813
88729286223320,0.047530614,0.56943935,9.920652
88729306083007,-1.1343294,1.5996525,9.83331
88729325940415,-0.63024896,0.9994307,9.472602
88729345797824,0.034082267,0.0067466926,9.546415
88729365655233,0.55323184,-0.85669976,9.796628
88729385512642,0.31259888,-0.4614807,9.741611
88729405368507,-0.22336459,0.3095733,9.7384405
88729425225788,-0.237899,0.2841578,9.681786
88729445083197,-0.13694057,0.18227495,9.603278
88729464940606,-0.23816475,0.42054534,9.741761
88729484798015,-0.26361582,0.46153548,9.906378
88729504667622,0.053765,0.05852859,9.755361
88729524525287,0.28239915,-0.29890293,9.56171
88729544382952,0.1769016,-0.35326982,9.535103
88729564240617,0.02700764,-0.21270607,9.633314
88729584098282,-0.04054138,0.057872586,9.712822
88729603956505,-0.0324463,0.19654413,9.681949
88729623814170,0.12364647,0.038465504,9.635263
88729643671835,0.20233656,-0.08340996,9.635022
88729663529500,0.23668,-0.10534714,9.664401
88729683387165,0.26671463,-0.076752685,9.699451
88729703243622,0.20708407,-0.06432562,9.721427
88729723101287,0.22724873,0.08184217,9.69766
88729742958952,0.30063602,0.18213007,9.601242
88729762816617,0.36598206,0.19847423,9.605394
88729782674282,0.34992957,0.06748719,9.649745
88729802534637,0.29676157,0.082221515,9.663155
88729822392430,0.3807114,0.06961742,9.650106
88729842250093,0.46773177,0.25653067,9.600262
88729862107757,0.4075462,0.4246767,9.610791
88729881965421,0.37211594,0.40464097,9.674103
88729901823213,0.3748056,0.33773798,9.705015
88729921690512,0.27997187,0.33875453,9.682236
88729941548432,0.2693018,0.27314776,9.767433
88729961406480,0.24931945,0.20313604,9.712631
88729981264400,0.2714889,0.16918823,9.7095375
88730001122448,0.27221435,0.17699441,9.680165
88730020989230,0.17255719,0.20241755,9.594237
88730040847406,0.15232062,0.26960742,9.677804
88730060705582,0.14602195,0.27940556,9.683445
88730080563630,0.14207774,0.23270017,9.623729
88730100421806,0.1307439,0.16958617,9.698352
88730120278006,0.08481484,0.11099839,9.731536
88730140136183,0.04677893,0.10923126,9.6358185
88730159994230,0.041793223,0.20789377,9.665096
88730179852278,-0.015401671,0.19880058,9.681102
88730199710326,-0.045887567,0.14290133,9.638991
88730219571123,-0.028335815,0.15978663,9.639084
88730239429299,-0.027582426,0.18307088,9.605198
88730259287347,-0.06989754,0.19791155,9.622663
88730279145523,0.1061916,0.1848624,9.682729
88730299003572,0.13240525,0.19744179,9.693864
88730318869819,0.17593457,0.21312077,9.617984
88730338728252,0.15475535,0.24538594,9.642209
88730358586557,0.11134961,0.2299003,9.6310425
88730378444862,0.10296786,0.2515517,9.659281
88730398303167,0.13475834,0.28454775,9.659466
88730418158060,0.12301692,0.25908327,9.676724
88730438016493,0.079481855,0.1674266,9.661763
88730457874798,0.08557257,0.1570211,9.664845
88730477733103,0.15999186,0.19493021,9.617853
88730497591536,0.17452317,0.24720103,9.611136
88730517439265,0.14443856,0.2611096,9.633794
88730537297442,0.12304173,0.25145325,9.637894
88730557155619,0.08869417,0.14552641,9.565914
88730577013796,0.043707937,0.16445452,9.610769
88730596871973,-0.039368656,0.2280439,9.755104
88730616721238,-0.085037895,0.27812752,9.848787
88730636579159,-0.06876451,0.2963603,9.846545
88730656437208,-0.040674105,0.21136808,9.822344
88730676295257,-0.0339594,0.19127904,9.646367
88730696153306,-0.07396005,0.22238262,9.670365
88730716004341,-0.124645315,0.1631857,9.652568
88730735862134,-0.1084884,0.20927349,9.694339
88730755719906,-0.04003353,0.21393512,9.7813635
88730775577699,-0.13418551,0.2182396,9.782822
88730795435492,-0.12721623,0.043743905,9.693616
88730815295649,-0.13855699,0.029336464,9.747405
88730835153442,-0.17405851,0.16734688,9.836819
88730855011231,-0.07272724,0.27836582,9.7374115
88730874869151,-0.04767228,0.20641218,9.671141
88730894726943,-0.0438902,0.06753456,9.676615
88730914581011,-0.017398069,-0.065203846,9.64266
88730934438803,0.025560861,-0.13776748,9.726576
88730954296467,0.0076811877,-0.019498479,9.835822
88730974154259,0.04129238,0.09539589,9.758295
88730994012051,0.1307161,0.13936362,9.752823
88731013868868,0.21293056,0.15097488,9.746925
88731033726532,0.19755155,0.16142929,9.7450905
88731053584196,0.19587609,0.15977815,10.026278
88731073441860,0.21278496,0.18002962,9.9609
88731093299524,0.25956148,0.24431516,9.800125
88731113154049,0.28124794,0.21873747,9.751996
88731133011713,0.21111093,0.091970265,9.740008
88731152869377,0.13099651,0.12579787,9.878497
88731172726913,0.09337497,0.22248526,9.88614
88731192584577,0.071009815,0.17065541,9.764157
88731212445308,0.025938705,0.14405073,9.700318
88731232302973,-0.003030062,0.11307627,9.737992
88731252154027,0.0015087913,0.06649984,9.736611
88731272011691,-0.0738418,0.07495747,9.667873
88731291869355,-0.075440794,0.1142952,9.724053
88731311731145,-0.05186331,0.15576398,9.780655
88731331588809,-0.04271297,0.13961565,9.853183
88731351446473,-0.097356774,0.18955873,9.861717
88731371304137,-0.0540685,0.13580027,9.752445
88731391161801,-0.08368388,0.13185629,9.676491
88731411021483,-0.09545683,0.122203015,9.725104
88731430879147,-0.115936935,0.1569577,9.7950735
88731450736811,-0.11372233,0.20546862,9.800093
88731470594475,-0.015001083,0.25076115,9.8042
88731490452139,0.02078911,0.14711222,9.705082
88731510313416,-0.010426582,0.080578625,9.755139
88731530171080,0.07036463,0.1531627,9.813657
88731550028872,0.06053025,0.15627778,9.838408
88731569886664,0.029928695,0.15872659,9.819697
88731589744328,0.029903902,0.14778163,9.735563
88731609598408,0.06459224,0.09058109,9.65839
88731629456200,0.01744508,0.07993736,9.715926
88731649313864,-0.027796496,0.122781165,9.77784
88731669171657,-0.03400691,0.094324246,9.802856
88731689029322,0.050617985,0.09409588,9.818103
88731708887740,0.047756646,0.18727323,9.807474
88731728745532,-0.014248982,0.20735542,9.769725
88731748603324,-0.034463476,0.10033985,9.693327
88731768460988,0.005270436,0.13769002,9.758442
88731788318780,-0.023632696,0.16225277,9.815207
88731808186105,4.515707E-5,0.17911567,9.829873
88731828044025,0.032302894,0.18554026,9.8394375
88731847902073,0.055724747,0.12858482,9.77334
88731867760121,0.04711368,0.12789482,9.71871
88731887618041,0.040977065,0.15464503,9.763727
88731907483367,0.006663404,0.2006482,9.767014
88731927341671,-0.0034193334,0.22775902,9.801821
88731947199847,0.040006172,0.21850775,9.805694
88731967058151,0.040342525,0.21175553,9.749931
88731986916327,0.037703957,0.22794223,9.692005
88732006776539,-0.014022192,0.22872917,9.656805
88732026634843,-0.052678056,0.257939,9.751463
88732046493147,-0.09417632,0.31957173,9.804679
88732066351451,-0.08144811,0.24814162,9.78842
88732086209755,-0.019500965,0.19227245,9.747103
88732106058709,0.064813,0.21043512,9.750598
88732125916758,0.1329407,0.2593509,9.744394
88732145774935,0.14722253,0.2700377,9.701649
88732165632984,0.104478434,0.1249259,9.816147
88732185491029,0.09689736,-0.031227704,9.713222
88732205346505,0.21734488,-0.012197472,9.608854
88732225204553,0.24719478,0.06889041,9.737565
88732245062473,0.258801,0.13271561,9.897443
88732264920521,0.2973431,0.14586532,9.895085
88732284778442,0.33745235,0.20133388,9.890202
88732304638379,0.21304296,0.08082711,9.830037
88732324496428,0.10304867,0.032497223,9.7590065
88732344354349,0.09529513,0.052116115,9.82889
88732364212398,0.17506534,0.06723935,9.843017
88732384070319,0.21349879,0.09227653,9.821702
88732403931602,0.15891582,0.0496317,9.771147
88732423789779,0.13023391,0.019136403,9.8082075
88732443647828,0.1543412,0.0053742784,9.758275
88732463505877,0.18996319,-0.0038361212,9.672555
88732483364054,0.20775014,-0.021313606,9.709394
88732503217347,0.10810412,-0.0441009,9.76211
88732523075396,-0.0141351,-0.05721065,9.761502
88732542933317,0.0671814,-0.052666705,9.71163
88732562791366,0.20061608,0.021873845,9.740802
88732582649287,0.2142222,0.09217604,9.734887
88732602507336,0.18218097,0.08518261,9.723527
88732622359599,0.13870995,-0.022879334,9.764718
88732642217520,0.17952628,-0.031253424,9.729983
88732662075441,0.21359871,0.005702483,9.753019
88732681933234,0.16060048,0.017994821,9.689927
88732701791155,0.15659823,-0.0061423616,9.684768
88732721643170,0.23444141,-0.013147875,9.78057
88732741500941,0.3066488,0.05369957,9.926589
88732761358606,0.27609313,0.14352421,9.934752
88732781216271,0.2929461,0.10137366,9.879836
88732801074064,0.21963315,0.0151090715,9.733236
88732820935233,0.22556467,0.0034916317,9.725173
88732840793022,0.26484603,0.026682884,9.793045
88732860650814,0.25000715,0.10193672,9.757105
88732880508606,0.16033249,0.010364892,9.716063
88732900366398,0.12602238,-0.12188704,9.674039
88732920223952,0.19649626,-0.061549965,9.725951
88732940081744,0.25166094,-0.0032998566,9.748209
88732959939536,0.26393452,-0.0027158246,9.763663
88732979797456,0.24606565,-0.045866232,9.745309
88732999655248,0.27800235,-0.043452896,9.778903
88733019508151,0.18971047,0.017375872,9.756785
88733039365815,0.1287506,0.027284546,9.7334
88733059223607,0.12757777,-0.01521102,9.816086
88733079081271,0.21445121,0.015071343,9.821302
88733098939063,0.19959266,0.027722402,9.746933
88733118775642,0.13588125,0.025760438,9.741194
88733138632922,0.21243933,0.05067445,9.791233
88733158490330,0.19253786,0.06578041,9.764585
88733178347610,0.18032888,0.07447543,9.818733
88733198205018,0.1713067,0.02620399,9.804661
88733218060843,0.1587498,0.05305867,9.744951
88733237918124,0.16069263,0.03492513,9.727844
88733257775277,0.17151773,0.0387542,9.764246
88733277632555,0.14821826,0.05561755,9.780274
88733297489707,0.14821969,0.04877204,9.771857
88733317353306,0.17761499,0.07836199,9.814207
88733337210586,0.113509834,0.13355967,9.76533
88733357067738,0.07480502,-0.050310828,9.72012
88733376925019,0.11774591,-0.092101835,9.729419
88733396782300,0.0904137,0.030565875,9.789462
88733416642481,0.07748343,0.06315551,9.782818
88733436499762,0.095952615,0.04496477,9.80269
88733456357171,0.108609065,0.070684634,9.800615
88733476214452,0.074174844,0.110583104,9.753391
88733496071861,0.13491134,0.072924174,9.789765
88733515933902,0.18979366,0.07610925,9.765921
88733535791311,0.16360475,0.09045801,9.75086
88733555648720,0.1438729,0.08484931,9.760024
88733575506129,0.17404361,0.13205923,9.76625
88733595363538,0.11371988,0.15210365,9.746275
88733615225231,0.10841958,0.06054941,9.806523
88733635082768,0.16767113,0.08357168,9.756654
88733654940305,0.19324706,0.13449848,9.747749
88733674797714,0.17138699,0.113082565,9.780213
88733694655251,0.19082797,0.09090185,9.723369
88733714511648,0.20146222,0.07645114,9.708628
88733734369057,0.22792119,0.074175574,9.7754755
88733754226466,0.2566336,0.15363818,9.840869
88733774084003,0.21628445,0.19142768,9.764595
88733793941412,0.15532722,0.12972268,9.755816
88733813810853,0.11712988,0.071921855,9.702038
88733833668497,0.1460695,0.053251907,9.746666
88733853526289,0.14955087,0.043635808,9.806357
88733873383953,0.18204807,0.06619765,9.757416
88733893241617,0.21088071,0.05468066,9.729637
88733913100051,0.23001814,0.057603005,9.757011
88733932957715,0.20801303,0.07158361,9.711093
88733952815507,0.15046498,0.03175301,9.726902
88733972673299,0.1831487,0.036197223,9.7912855
88733992531091,0.1943418,0.084294714,9.743617
88734012398166,0.14985979,0.090825096,9.750139
88734032256214,0.15445869,0.014111391,9.761291
88734052114262,0.20072256,0.08858092,9.767266
88734071972182,0.16835721,0.03940527,9.767859
88734091830230,0.2623645,0.0064111343,9.800993
88734111686854,0.27143055,0.027551377,9.82147
88734131544902,0.19479284,0.07033852,9.820322
88734151402822,0.21014388,0.03010717,9.79924
88734171260870,0.26661977,0.0037245583,9.74478
88734191118918,0.22276847,0.04602586,9.740162
88734210981705,0.19202982,0.04951081,9.783946
88734230839754,0.18859765,0.040981647,9.791985
88734250697929,0.15798531,0.020378642,9.748875
88734270555977,0.24075204,-0.019698747,9.798414
88734290424600,0.21626912,0.0076694633,9.726246
88734310282905,0.15663497,-0.010164136,9.698877
88734330141336,0.18601844,-0.06570593,9.733222
88734349999640,0.22013082,-0.0045068986,9.760969
88734369857945,0.19522811,0.03830968,9.803158
88734389716378,0.13924861,0.021272125,9.819766
88734409580679,0.14378959,-0.064300545,9.764898
88734429439240,0.22079253,-0.07759683,9.714124
88734449297801,0.2522864,0.0141561655,9.801119
88734469156234,0.18264921,0.024242,9.775339
88734489014795,0.1888014,-0.019557724,9.73491
88734508870430,0.21583244,-0.0064533968,9.736886
88734528728991,0.17365775,0.059573695,9.695968
88734548587552,0.10677805,0.0687152,9.783856
88734568446113,0.12587172,0.019144986,9.819467
88734588293434,0.19897243,0.025717223,9.725148
88734608151739,0.22785501,0.00738359,9.791261
88734628010172,0.19777623,0.033312675,9.80144
