UPTIMENANO,Ax,Ay,Az
351804820659984,-1.096919,9.5633135,-1.6070582
351804840516880,-1.094524,9.572892999999999,-1.590293
351804860373777,-1.0585986,9.5561285,-1.5735278999999998
351804880230672,-1.0466236,9.5633135,-1.5615528
351804900087440,-1.0514137,9.544153,-1.5543678
351804919944337,-1.0633887,9.553733,-1.5974781999999998
351804939789999,-1.0849438999999999,9.584868,-1.583108
351804959646639,-1.0801538,9.577683,-1.5495777
351804979503408,-1.0226734,9.630374,-1.5543678
351804999360047,-1.0298585,9.726174,-1.5352076000000001
351805019207016,-1.0729688,9.798025,-1.5615528
351805039063529,-1.0585986,9.7740755,-1.6262183000000001
351805058920040,-1.0705738,9.637559,-1.6262183000000001
351805078776424,-1.0154883,9.381292,-1.6166383
351805098632937,-1.0394385,9.417216999999999,-1.5208374
351805118486673,-1.1184741000000002,9.532178,-1.5040723
351805138342929,-1.0825489,9.498648,-1.5711329
351805158199314,-1.0873389,9.551338000000001,-1.6334034
351805178055697,-1.1424243,9.635164,-1.6118482
351805197912081,-1.0442286,9.70941,-1.5639478
351805217768338,-1.0154883,9.750125,-1.5232325
351805237623857,-1.1328443000000001,9.695039999999999,-1.4729371
351805257480242,-1.1400293,9.611214,-1.5663428
351805277336499,-1.1352394,9.651928999999999,-1.6310083999999998
351805297192752,-1.0801538,9.620794,-1.6381934999999999
351805317042130,-1.0298585,9.594449000000001,-1.6286133999999999
351805336898259,-1.0849438999999999,9.608819,-1.5783178999999998
351805356754386,-1.0490186000000001,9.560919,-1.590293
351805376610514,-1.0801538,9.582474000000001,-1.5687379
351805396466643,-1.1951148999999999,9.604028999999999,-1.5423926000000001
351805416322770,-1.1639795,9.565708,-1.587898
351805436169292,-1.0777588,9.551338000000001,-1.5639478
351805456025165,-1.099314,9.582474000000001,-1.4849122
351805475881036,-1.1400293,9.594449000000001,-1.5160475
351805495736909,-1.1208692,9.596844,-1.5567628
351805515592782,-1.1280543,9.623189,-1.5926881000000002
351805535452055,-1.1232642,9.616004,-1.575923
351805555307928,-1.1352394,9.642349000000001,-1.5974781999999998
351805575163929,-1.1472143999999997,9.6758795,-1.5783178999999998
351805595019925,-1.1280543,9.707015,-1.5280225
351805614874456,-1.099314,9.64714,-1.5208374
351805634730329,-1.1088941,9.613608000000001,-1.5495777
351805654586200,-1.094524,9.568104,-1.5807129
351805674442072,-1.0514137,9.481883,-1.5543678
351805694297817,-1.0681788,9.489068,-1.5615528
351805714153688,-1.1448194,9.498648,-1.5807129
351805734014900,-1.1400293,9.527389,-1.6429833999999999
351805753870901,-1.1831397,9.594449000000001,-1.5639478
351805773726772,-1.1975098,9.618399,-1.5280225
351805793582772,-1.1663746000000002,9.659114,-1.5471827
351805813438645,-1.1328443000000001,9.678274,-1.5352076000000001
351805833298961,-1.1496094,9.637559,-1.5088624
351805853154961,-1.1400293,9.618399,-1.5447876
351805873010962,-1.1280543,9.642349000000001,-1.5471827
351805892864326,-1.1112891000000003,9.644744000000001,-1.5639478
351805912731237,-1.1041040000000002,9.582474000000001,-1.583108
351805932587366,-1.096919,9.536968,-1.6118482
351805952443623,-1.1112891000000003,9.539363,-1.5950831
351805972299877,-1.1041040000000002,9.5561285,-1.5735278999999998
351805992156134,-1.1041040000000002,9.536968,-1.5687379
351806012012389,-1.1088941,9.568104,-1.5495777
351806031868224,-1.1160791,9.623189,-1.5591576999999999
351806051724609,-1.089734,9.654325,-1.5615528
351806071580864,-1.0873389,9.673484,-1.5376027
351806091437120,-1.0801538,9.687855,-1.5352076000000001
351806111293377,-1.0657837,9.683064,-1.585503
351806131156295,-1.0729688,9.656719,-1.6118482
351806151012679,-1.099314,9.620794,-1.6022681
351806170869064,-1.0801538,9.580078,-1.6022681
351806190725577,-1.0370435,9.551338000000001,-1.5807129
351806210581962,-1.0442286,9.553733,-1.5663428
351806230438347,-1.0370435,9.534574000000001,-1.6094532
351806250300312,-1.0394385,9.541758999999999,-1.6549585999999998
351806270156952,-1.0633887,9.544153,-1.6334034
351806290013465,-1.0777588,9.592053,-1.590293
351806309870104,-1.0562036,9.620794,-1.5735278999999998
351806329726532,-1.0538087,9.654325,-1.583108
351806349583173,-1.0609937,9.685459,-1.5711329
351806369439812,-1.0681788,9.6758795,-1.5974781999999998
351806389296324,-1.0394385,9.649534,-1.6597486000000001
351806409152965,-1.096919,9.592053,-1.6118482
351806429019367,-1.1041040000000002,9.510622999999999,-1.6286133999999999
351806448876263,-1.0609937,9.513017999999999,-1.6597486000000001
351806468733160,-1.0466236,9.553733,-1.6166383
351806488589927,-1.0777588,9.608819,-1.5735278999999998
351806508446824,-1.099314,9.587264,-1.6094532
351806528303721,-1.0777588,9.587264,-1.6573536
351806548158414,-1.0849438999999999,9.616004,-1.6549585999999998
351806568015179,-1.0873389,9.654325,-1.6334034
351806587872076,-1.089734,9.663903999999999,-1.6286133999999999
351806607728843,-1.0777588,9.651928999999999,-1.6022681
351806627585192,-1.0849438999999999,9.637559,-1.5998731000000002
351806647441961,-1.0729688,9.611214,-1.6429833999999999
351806667298728,-1.0562036,9.584868,-1.6813037
351806687155624,-1.0562036,9.513017999999999,-1.6429833999999999
351806707012393,-1.0514137,9.505833,-1.6118482
351806726875359,-1.0633887,9.527389,-1.5998731000000002
351806746732383,-1.0729688,9.515413,-1.6310083999999998
351806766589280,-1.0633887,9.5561285,-1.6357985000000002
351806786446303,-1.0705738,9.635164,-1.6046631000000002
351806806303199,-1.0562036,9.68067,-1.6142433
351806826160224,-1.0298585,9.687855,-1.6094532
351806846016205,-1.0394385,9.690249,-1.5950831
351806865873101,-1.0418334999999999,9.654325,-1.6310083999999998
351806885730126,-1.0442286,9.618399,-1.7292042
351806905587149,-1.0370435,9.594449000000001,-1.6573536
351806925438739,-1.0705738,9.608819,-1.5615528
351806945295636,-1.0226734,9.601633999999999,-1.6190332
351806965152531,-1.0130934,9.592053,-1.6549585999999998
351806985009427,-1.0346485,9.553733,-1.6214283
351807004866324,-1.0250684,9.534574000000001,-1.6310083999999998
351807024711604,-1.0298585,9.577683,-1.6357985000000002
351807044568244,-1.0322535,9.604028999999999,-1.6525636000000001
351807064424885,-1.0777588,9.599238,-1.6357985000000002
351807084281524,-1.0801538,9.618399,-1.6214283
351807104138164,-1.0394385,9.6615095,-1.6525636000000001
351807123994677,-1.0130934,9.651928999999999,-1.6262183000000001
351807143848043,-1.0298585,9.64714,-1.6046631000000002
351807163704555,-1.0466236,9.673484,-1.6286133999999999
351807183561068,-1.0154883,9.632769,-1.6573536
351807203417579,-1.0418334999999999,9.565708,-1.6381934999999999
351807223269544,-1.0609937,9.565708,-1.6070582
351807243125929,-1.0059083,9.572892999999999,-1.6190332
351807262982314,-1.0011181999999998,9.546548,-1.6214283
351807282838699,-1.1041040000000002,9.517808,-1.6597486000000001
351807302695084,-1.089734,9.541758999999999,-1.6908839
351807322551592,-1.0226734,9.565708,-1.6813037
351807342400558,-1.0274634,9.613608000000001,-1.5807129
351807362256815,-1.0825489,9.64714,-1.5615528
351807382113070,-1.0849438999999999,9.639954,-1.6046631000000002
351807401969326,-1.0633887,9.651928999999999,-1.6190332
351807421825583,-1.0274634,9.64714,-1.587898
351807441681096,-1.0370435,9.632769,-1.6334034
351807461537352,-1.0538087,9.630374,-1.6501685000000001
351807481393481,-1.0801538,9.644744000000001,-1.6381934999999999
351807501249738,-1.0514137,9.64714,-1.6238233
351807521099995,-1.0418334999999999,9.630374,-1.6094532
351807540956124,-1.0466236,9.596844,-1.6070582
351807560812253,-1.0633887,9.558523,-1.6286133999999999
351807580668382,-1.0657837,9.577683,-1.6094532
351807600524511,-1.0274634,9.558523,-1.6334034
351807620380512,-1.0011181999999998,9.560919,-1.6334034
351807640236813,-1.0226734,9.582474000000001,-1.587898
351807660092814,-1.0442286,9.630374,-1.5447876
351807679948815,-1.0226734,9.623189,-1.5974781999999998
351807699804816,-1.0418334999999999,9.671089,-1.5950831
351807719660817,-1.0130934,9.733359,-1.590293
351807739521458,-0.99393314,9.711803999999999,-1.6741188000000002
351807759377446,-1.0130934,9.539363,-1.6813037
351807779233575,-1.0442286,9.522598,-1.5687379
351807799089702,-1.0418334999999999,9.611214,-1.4897022
351807818948095,-0.9867481,9.5561285,-1.5807129
351807838804224,-1.0418334999999999,9.544153,-1.6573536
351807858660351,-1.1041040000000002,9.592053,-1.6501685000000001
351807878516479,-1.0059083,9.606423,-1.6214283
351807898372608,-0.98195803,9.601633999999999,-1.5950831
351807918228735,-1.094524,9.608819,-1.5184423999999999
351807938082425,-1.0729688,9.592053,-1.575923
351807957938554,-1.0059083,9.580078,-1.6765138
351807977794553,-1.0562036,9.594449000000001,-1.6621436
351807997646471,-1.0370435,9.592053,-1.6381934999999999
351808017502472,-1.0202783000000002,9.592053,-1.6453785
351808037356531,-1.0442286,9.630374,-1.583108
351808057212532,-1.0609937,9.644744000000001,-1.5687379
351808077068533,-1.0538087,9.599238,-1.6286133999999999
351808096924529,-1.0585986,9.618399,-1.6070582
351808116780657,-1.0538087,9.623189,-1.585503
351808136636658,-1.0226734,9.630374,-1.5974781999999998
351808156499973,-1.0370435,9.618399,-1.5735278999999998
351808176356101,-1.0370435,9.577683,-1.6286133999999999
351808196212230,-1.0418334999999999,9.584868,-1.6645386000000002
351808216068357,-1.0849438999999999,9.577683,-1.6357985000000002
351808235928770,-1.0729688,9.575289,-1.575923
351808255785027,-1.0298585,9.606423,-1.5567628
351808275641282,-1.0154883,9.620794,-1.575923
351808295497538,-1.0178833,9.604028999999999,-1.6238233
351808315353795,-1.0202783000000002,9.568104,-1.6022681
351808335212700,-1.0322535,9.546548,-1.5687379
351808355069084,-1.0035132,9.5633135,-1.5399976
351808374925469,-0.98435307,9.606423,-1.5471827
351808394781724,-1.0154883,9.601633999999999,-1.5399976
351808414638108,-1.0370435,9.625584,-1.5998731000000002
351808434494493,-1.0538087,9.671089,-1.5471827
351808454347938,-1.0035132,9.656719,-1.5280225
351808474204194,-0.9963281999999999,9.644744000000001,-1.5567628
351808494060579,-1.0346485,9.64714,-1.6046631000000002
351808513916962,-1.0777588,9.613608000000001,-1.6262183000000001
351808533775572,-1.1232642,9.611214,-1.6046631000000002
351808553631957,-1.1112891000000003,9.580078,-1.590293
351808573488340,-1.0322535,9.560919,-1.6238233
351808593344725,-1.0274634,9.544153,-1.6166383
351808613201110,-1.0849438999999999,9.5633135,-1.6022681
351808633058439,-1.101709,9.594449000000001,-1.6238233
351808652914824,-1.0729688,9.604028999999999,-1.587898
351808672771209,-1.0777588,9.623189,-1.5591576999999999
351808692627594,-1.0921290000000001,9.635164,-1.5807129
351808712484101,-1.0705738,9.635164,-1.6262183000000001
351808732340486,-1.0633887,9.651928999999999,-1.6070582
351808752203410,-1.0657837,9.671089,-1.5998731000000002
351808772059922,-1.0633887,9.64714,-1.6190332
351808791916563,-1.0657837,9.620794,-1.6310083999999998
351808811773074,-1.0538087,9.635164,-1.6094532
351808831629680,-1.0178833,9.632769,-1.5998731000000002
351808851486321,-1.0035132,9.589659,-1.5950831
351808871342832,-1.0178833,9.572892999999999,-1.590293
351808891199472,-1.0130934,9.539363,-1.6118482
351808911055985,-0.99393314,9.544153,-1.6405883999999997
351808930912624,-1.0442286,9.5561285,-1.5639478
351808950755044,-1.0370435,9.5633135,-1.5352076000000001
351808970611301,-1.0106983,9.608819,-1.5447876
351808990467556,-1.0059083,9.6615095,-1.5687379
351809010323812,-1.0035132,9.697434,-1.6094532
351809030180197,-1.0418334999999999,9.702225,-1.6046631000000002
351809050034625,-1.0394385,9.683064,-1.575923
351809069890881,-1.0298585,9.671089,-1.5687379
351809089747138,-0.9867481,9.620794,-1.5950831
351809109603393,-1.0106983,9.611214,-1.6190332
351809129450720,-1.0394385,9.580078,-1.6214283
351809149306721,-1.0394385,9.553733,-1.6381934999999999
351809169162720,-1.0370435,9.539363,-1.6070582
351809189018720,-1.0538087,9.560919,-1.5543678
351809208874721,-1.0250684,9.529783,-1.5639478
351809228730720,-1.0322535,9.5489435,-1.5950831
351809248585404,-1.0562036,9.592053,-1.5735278999999998
351809268441405,-1.0514137,9.618399,-1.5735278999999998
351809288297276,-1.0609937,9.618399,-1.5998731000000002
351809308153276,-1.0538087,9.663903999999999,-1.5950831
351809328009277,-1.0346485,9.702225,-1.6070582
351809347866860,-1.0178833,9.6758795,-1.6262183000000001
351809367722861,-1.0202783000000002,9.6686945,-1.6190332
351809387578862,-1.0250684,9.644744000000001,-1.6166383
351809407434863,-1.0011181999999998,9.601633999999999,-1.6094532
351809427291823,-1.0226734,9.604028999999999,-1.6046631000000002
351809447147952,-1.0274634,9.541758999999999,-1.6190332
351809467003951,-1.0106983,9.508227999999999,-1.6166383
351809486859951,-1.0418334999999999,9.532178,-1.5807129
351809506715952,-1.0394385,9.5489435,-1.583108
351809526572079,-1.0514137,9.596844,-1.5974781999999998
351809546425361,-1.0609937,9.592053,-1.590293
351809566281234,-1.0059083,9.613608000000001,-1.587898
351809586137233,-0.97956306,9.654325,-1.5687379
351809605993233,-1.0322535,9.68067,-1.5399976
351809625849106,-1.0202783000000002,9.64714,-1.5783178999999998
351809645706326,-0.9987232,9.6758795,-1.585503
351809665562199,-1.0250684,9.687855,-1.5471827
351809685418072,-0.98914313,9.683064,-1.5926881000000002
351809705273945,-1.0106983,9.663903999999999,-1.6070582
351809725098596,-1.0298585,9.611214,-1.5950831
351809744953957,-1.0466236,9.604028999999999,-1.5926881000000002
351809764809316,-1.0418334999999999,9.601633999999999,-1.6046631000000002
351809784664676,-0.9867481,9.5561285,-1.6166383
351809804519909,-0.9987232,9.5489435,-1.5998731000000002
351809824375268,-1.0442286,9.608819,-1.6046631000000002
351809844242904,-1.0226734,9.580078,-1.5783178999999998
351809864098393,-1.0083033000000001,9.589659,-1.5735278999999998
351809883954008,-0.99393314,9.604028999999999,-1.5376027
351809903809496,-0.977168,9.594449000000001,-1.5807129
351809923665113,-0.99393314,9.568104,-1.5974781999999998
351809943531212,-1.0154883,9.587264,-1.583108
351809963386956,-1.0035132,9.611214,-1.5543678
351809983242573,-0.9963281999999999,9.606423,-1.5807129
351810003098316,-1.0178833,9.604028999999999,-1.583108
351810022954060,-1.0370435,9.620794,-1.575923
351810042809677,-1.0178833,9.649534,-1.5926881000000002
351810062669260,-1.0154883,9.6686945,-1.585503
351810082525004,-1.0298585,9.663903999999999,-1.5447876
351810102380621,-1.0178833,9.695039999999999,-1.5663428
351810122234148,-1.0011181999999998,9.632769,-1.6070582
351810142099396,-1.0274634,9.594449000000001,-1.590293
351810161955269,-1.0442286,9.589659,-1.5471827
351810181811140,-0.98435307,9.606423,-1.5423926000000001
351810201667140,-0.94603276,9.618399,-1.5495777
351810221523013,-1.0083033000000001,9.613608000000001,-1.5423926000000001
351810241391902,-1.0370435,9.604028999999999,-1.5974781999999998
351810261248030,-1.0250684,9.620794,-1.5663428
351810281104287,-1.0274634,9.618399,-1.4897022
351810300960414,-1.0418334999999999,9.580078,-1.5519726999999999
351810320816670,-1.0178833,9.604028999999999,-1.6525636000000001
351810340672799,-1.0226734,9.594449000000001,-1.6166383
351810360532815,-1.0729688,9.616004,-1.590293
351810380389199,-1.0705738,9.616004,-1.5591576999999999
351810400245584,-0.99393314,9.630374,-1.5735278999999998
351810420101967,-1.0370435,9.678274,-1.5639478
351810439968922,-1.089734,9.630374,-1.6190332
351810459825563,-1.0370435,9.568104,-1.6477735
351810479682204,-1.0394385,9.604028999999999,-1.5735278999999998
351810499538845,-1.0178833,9.627979,-1.5352076000000001
351810519395486,-1.0083033000000001,9.575289,-1.5974781999999998
351810539249723,-1.0705738,9.536968,-1.6262183000000001
351810559106364,-1.0801538,9.589659,-1.583108
351810578962877,-1.0083033000000001,9.618399,-1.5783178999999998
351810598819518,-0.98435307,9.596844,-1.5687379
351810618676031,-1.0298585,9.625584,-1.5663428
351810638532672,-1.0442286,9.627979,-1.5974781999999998
351810658399029,-1.0298585,9.580078,-1.6501685000000001
351810678255798,-1.0585986,9.587264,-1.5974781999999998
351810698112567,-1.0274634,9.596844,-1.5423926000000001
351810717969464,-0.99393314,9.613608000000001,-1.5639478
351810737831987,-1.0011181999999998,9.587264,-1.6549585999999998
351810757689012,-1.0538087,9.599238,-1.6669337
351810777545893,-1.0585986,9.587264,-1.6334034
351810797402789,-1.0250684,9.623189,-1.585503
351810817259814,-1.0202783000000002,9.644744000000001,-1.5471827
351810837116709,-1.0418334999999999,9.659114,-1.5423926000000001
351810856974867,-1.0106983,9.651928999999999,-1.6286133999999999
351810876831892,-1.0059083,9.635164,-1.6334034
351810896688915,-1.0226734,9.627979,-1.6094532
351810916545939,-1.0154883,9.589659,-1.5950831
351810936402964,-1.0250684,9.580078,-1.6046631000000002
351810956248217,-1.0538087,9.577683,-1.6238233
351810976105114,-1.0705738,9.575289,-1.6597486000000001
351810995962011,-1.0609937,9.551338000000001,-1.6980689999999998
351811015818780,-1.0394385,9.596844,-1.6453785
351811035671995,-1.0083033000000001,9.635164,-1.5974781999999998
351811055528892,-1.0490186000000001,9.616004,-1.5974781999999998
351811075385655,-1.0777588,9.608819,-1.6142433
351811095242551,-1.0633887,9.630374,-1.6046631000000002
351811115099448,-1.0226734,9.596844,-1.6238233
351811134956215,-1.0202783000000002,9.594449000000001,-1.6501685000000001
351811154809643,-1.0370435,9.599238,-1.6381934999999999
351811174666412,-1.0059083,9.589659,-1.6453785
351811194523307,-1.0130934,9.613608000000001,-1.6453785
351811214380075,-1.0466236,9.608819,-1.6357985000000002
351811234236844,-1.0514137,9.584868,-1.6262183000000001
351811254092240,-1.0274634,9.604028999999999,-1.6429833999999999
351811273949137,-1.0178833,9.604028999999999,-1.6094532
351811293805906,-1.0178833,9.584868,-1.6286133999999999
351811313662803,-1.0035132,9.575289,-1.6262183000000001
351811333497526,-1.0011181999999998,9.572892999999999,-1.6190332
351811353353655,-1.0394385,9.584868,-1.705254
351811373209656,-0.9987232,9.606423,-1.6118482
351811393065785,-1.0633887,9.613608000000001,-1.5543678
351811412921914,-1.0705738,9.594449000000001,-1.6453785
351811432777915,-1.0274634,9.630374,-1.6597486000000001
351811452634678,-1.0130934,9.625584,-1.6357985000000002
351811472490807,-1.0178833,9.625584,-1.6645386000000002
351811492346936,-1.0250684,9.635164,-1.6980689999999998
351811512202937,-1.0418334999999999,9.64714,-1.6860938
351811532059066,-1.0705738,9.618399,-1.6381934999999999
351811551909069,-0.9963281999999999,9.611214,-1.6597486000000001
351811571765070,-0.99393314,9.608819,-1.6334034
351811591621071,-1.0298585,9.604028999999999,-1.6477735
351811611477072,-1.0370435,9.589659,-1.6717237
351811631332945,-1.0083033000000001,9.587264,-1.6645386000000002
351811651188946,-1.0059083,9.596844,-1.6477735
351811671042357,-1.0106983,9.575289,-1.6621436
351811690898230,-1.0106983,9.5489435,-1.6980689999999998
351811710754103,-1.0226734,9.594449000000001,-1.6573536
351811730609953,-1.0059083,9.627979,-1.6094532
351811750458797,-0.98195803,9.623189,-1.6621436
351811770314414,-1.0346485,9.637559,-1.6956740000000001
351811790170157,-1.0562036,9.630374,-1.6908839
351811810025901,-1.0202783000000002,9.630374,-1.6573536
351811829881646,-1.0202783000000002,9.620794,-1.7124390999999999
351811849746148,-1.0178833,9.611214,-1.6956740000000001
351811869602020,-1.0346485,9.601633999999999,-1.6405883999999997
351811889457893,-1.0250684,9.568104,-1.7196240000000003
351811909313892,-0.99393314,9.572892999999999,-1.7411792000000001
351811929169764,-0.98195803,9.558523,-1.6621436
351811949025637,-1.0059083,9.577683,-1.6262183000000001
351811968884751,-1.0154883,9.627979,-1.6381934999999999
351811988740623,-0.98435307,9.601633999999999,-1.6669337
351812008596496,-0.9508228000000001,9.558523,-1.6884888
351812028452367,-0.9915381,9.594449000000001,-1.6669337
351812048312690,-0.977168,9.606423,-1.6310083999999998
351812068168691,-0.96040285,9.577683,-1.6405883999999997
351812088024690,-0.98914313,9.570497999999999,-1.6765138
351812107880690,-0.9915381,9.604028999999999,-1.7028589
351812127736563,-0.98435307,9.637559,-1.705254
351812147593542,-0.98914313,9.620794,-1.6669337
351812167449542,-0.96758795,9.611214,-1.6453785
351812187305415,-0.9651929,9.654325,-1.6190332
351812207161414,-0.977168,9.637559,-1.6142433
351812227017415,-0.99393314,9.611214,-1.6357985000000002
351812246873288,-0.974773,9.565708,-1.6597486000000001
351812266733221,-0.96040285,9.584868,-1.6717237
351812286589350,-1.0106983,9.604028999999999,-1.6597486000000001
351812306445479,-1.0394385,9.582474000000001,-1.6836988000000002
351812326301608,-1.0106983,9.618399,-1.6884888
351812346165367,-0.9651929,9.618399,-1.6501685000000001
351812366021624,-0.9915381,9.630374,-1.6238233
351812385878009,-1.0059083,9.606423,-1.6022681
351812405734394,-0.9963281999999999,9.613608000000001,-1.6214283
351812425590651,-0.97237796,9.627979,-1.6357985000000002
351812445458908,-0.9915381,9.611214,-1.6525636000000001
351812465315549,-1.0178833,9.620794,-1.6262183000000001
351812485172190,-1.0011181999999998,9.625584,-1.6142433
351812505028831,-0.98195803,9.592053,-1.6453785
351812524885472,-1.0130934,9.608819,-1.6501685000000001
351812544742113,-1.0490186000000001,9.611214,-1.6166383
351812564591100,-0.9963281999999999,9.584868,-1.6525636000000001
351812584447485,-0.9867481,9.601633999999999,-1.6669337
351812604303998,-1.0226734,9.565708,-1.6765138
351812624160383,-1.0154883,9.553733,-1.6765138
351812644021704,-1.0418334999999999,9.604028999999999,-1.6310083999999998
351812663878345,-1.0585986,9.608819,-1.6070582
351812683734837,-1.0130934,9.601633999999999,-1.5998731000000002
351812703591350,-1.0106983,9.572892999999999,-1.575923
351812723447991,-1.0106983,9.613608000000001,-1.590293
351812743304504,-1.0274634,9.632769,-1.5687379
351812763155311,-0.9987232,9.580078,-1.6262183000000001
351812783011696,-1.0202783000000002,9.623189,-1.6573536
351812802868204,-1.0154883,9.611214,-1.6214283
351812822724716,-0.98914313,9.611214,-1.6166383
351812842581229,-0.9963281999999999,9.663903999999999,-1.585503
351812862437832,-1.0059083,9.68067,-1.5447876
351812882294344,-0.98914313,9.687855,-1.5783178999999998
351812902150857,-0.9915381,9.656719,-1.6022681
351812922007368,-1.0298585,9.592053,-1.6238233
351812941862760,-1.0418334999999999,9.553733,-1.6836988000000002
351812961719273,-1.0226734,9.577683,-1.6741188000000002
351812981575784,-1.0059083,9.618399,-1.6334034
351813001432168,-1.0130934,9.642349000000001,-1.6525636000000001
351813021288681,-1.0154883,9.608819,-1.6549585999999998
351813041145192,-0.9915381,9.589659,-1.6765138
351813060995207,-0.9699829,9.625584,-1.6453785
351813080851592,-0.977168,9.632769,-1.5950831
351813100707975,-0.9963281999999999,9.630374,-1.6022681
351813120564359,-0.96040285,9.635164,-1.6238233
351813140420872,-0.9244776,9.613608000000001,-1.6166383
351813160276110,-0.91010743,9.534574000000001,-1.6669337
351813180132494,-0.9627979,9.536968,-1.6669337
351813199988751,-1.0130934,9.577683,-1.5711329
351813219845136,-0.9915381,9.599238,-1.5591576999999999
351813239696827,-0.9436377,9.596844,-1.5974781999999998
351813259553084,-0.97237796,9.630374,-1.6238233
351813279409341,-0.9651929,9.651928999999999,-1.6238233
351813299265470,-0.98435307,9.673484,-1.6310083999999998
351813319121727,-1.0059083,9.635164,-1.590293
351813338977984,-0.98914313,9.570497999999999,-1.5663428
351813358827853,-0.9651929,9.580078,-1.5711329
351813378683854,-0.977168,9.613608000000001,-1.5926881000000002
351813398539855,-0.9699829,9.580078,-1.6429833999999999
351813418395856,-1.0011181999999998,9.5633135,-1.6262183000000001
351813438251857,-1.0178833,9.637559,-1.587898
351813458110758,-0.9412427,9.644744000000001,-1.6286133999999999
351813477966759,-0.977168,9.618399,-1.6405883999999997
351813497822760,-1.0418334999999999,9.580078,-1.5639478
351813517678889,-0.9627979,9.613608000000001,-1.5998731000000002
351813537530568,-0.92926764,9.6615095,-1.5998731000000002
351813557386569,-0.9651929,9.666299,-1.5615528
351813577242570,-0.9580079,9.659114,-1.585503
351813597098571,-0.9627979,9.642349000000001,-1.6142433
351813616954572,-0.97237796,9.637559,-1.6286133999999999
351813636810445,-0.974773,9.635164,-1.6022681
351813656669166,-0.97237796,9.608819,-1.5926881000000002
351813676525167,-0.93405765,9.606423,-1.6405883999999997
351813696381168,-0.9532178,9.584868,-1.6429833999999999
351813716237169,-0.96040285,9.592053,-1.6046631000000002
351813736093170,-0.9532178,9.589659,-1.5926881000000002
351813755947099,-0.9580079,9.592053,-1.5926881000000002
351813775803100,-0.98435307,9.601633999999999,-1.6094532
351813795658973,-0.9627979,9.604028999999999,-1.6190332
351813815514966,-0.9364527,9.601633999999999,-1.6429833999999999
351813835370966,-0.9627979,9.611214,-1.6310083999999998
351813855226967,-0.977168,9.627979,-1.5926881000000002
351813875080633,-0.98914313,9.611214,-1.6094532
351813894936505,-0.974773,9.608819,-1.5974781999999998
351813914792378,-0.98195803,9.618399,-1.5783178999999998
351813934648249,-0.98195803,9.589659,-1.6142433
351813954507218,-0.97956306,9.601633999999999,-1.5926881000000002
351813974363091,-1.0106983,9.625584,-1.6022681
351813994219090,-0.9963281999999999,9.613608000000001,-1.6310083999999998
351814014074962,-1.0011181999999998,9.608819,-1.6453785
351814033930835,-1.0154883,9.613608000000001,-1.6046631000000002
351814053787115,-0.99393314,9.630374,-1.5807129
351814073643115,-0.9651929,9.618399,-1.585503
351814093499116,-0.9436377,9.604028999999999,-1.5998731000000002
351814113355115,-0.9196875,9.623189,-1.5663428
351814133207569,-0.9436377,9.649534,-1.590293
351814153063570,-0.96040285,9.618399,-1.6765138
351814172919918,-0.97237796,9.604028999999999,-1.6525636000000001
351814192775918,-0.9699829,9.616004,-1.6118482
351814212631919,-0.9364527,9.625584,-1.6166383
351814232487918,-0.91729254,9.666299,-1.5950831
351814252350678,-0.86939216,9.671089,-1.5783178999999998
351814272206807,-0.87178713,9.630374,-1.585503
351814292062934,-0.9196875,9.663903999999999,-1.5783178999999998
351814311919190,-0.95561284,9.642349000000001,-1.585503
351814331775319,-0.9244776,9.5633135,-1.5974781999999998
351814351627207,-0.9316626,9.589659,-1.5926881000000002
351814371483208,-0.94603276,9.599238,-1.5974781999999998
351814391339337,-0.974773,9.570497999999999,-1.6310083999999998
351814411195338,-1.0083033000000001,9.565708,-1.6094532
351814431051467,-1.0083033000000001,9.618399,-1.585503
351814450907468,-0.96758795,9.639954,-1.5807129
351814470766595,-0.96758795,9.611214,-1.6094532
351814490622724,-1.0154883,9.630374,-1.6142433
351814510478853,-1.0035132,9.618399,-1.6334034
351814530334982,-0.96040285,9.608819,-1.6405883999999997
351814550197059,-0.9627979,9.637559,-1.6453785
351814570053316,-0.977168,9.623189,-1.6118482
351814589909573,-0.9627979,9.620794,-1.6525636000000001
351814609765830,-0.99393314,9.651928999999999,-1.6022681
351814629622087,-1.0035132,9.611214,-1.6262183000000001
351814649478344,-0.9963281999999999,9.587264,-1.6717237
351814669337983,-1.0011181999999998,9.592053,-1.6118482
351814689194240,-0.9867481,9.606423,-1.583108
351814709050625,-0.9484278,9.620794,-1.5926881000000002
351814728906882,-0.9484278,9.616004,-1.5974781999999998
351814748763139,-0.96040285,9.623189,-1.6166383
351814768619878,-0.9532178,9.611214,-1.5998731000000002
351814788476244,-0.9580079,9.642349000000001,-1.5376027
351814808332501,-0.9364527,9.654325,-1.5471827
351814828188884,-0.9244776,9.630374,-1.5352076000000001
351814848044148,-0.97237796,9.599238,-1.5447876
351814867900533,-0.9867481,9.592053,-1.6381934999999999
351814887756788,-0.97956306,9.608819,-1.6070582
351814907613172,-0.98195803,9.580078,-1.5663428
351814927469429,-0.96758795,9.608819,-1.5519726999999999
351814947325812,-0.9580079,9.659114,-1.5591576999999999
351814967174675,-0.9436377,9.697434,-1.5663428
351814987030932,-0.9508228000000001,9.659114,-1.5783178999999998
351815006887059,-0.96758795,9.644744000000001,-1.5591576999999999
351815026743315,-0.97956306,9.625584,-1.5376027
351815046599444,-0.98914313,9.620794,-1.5423926000000001
351815066455474,-0.9963281999999999,9.623189,-1.5399976
351815086311730,-0.9627979,9.608819,-1.5663428
351815106167987,-0.9508228000000001,9.604028999999999,-1.5926881000000002
351815126024242,-1.0106983,9.5633135,-1.6046631000000002
351815145875739,-1.0418334999999999,9.560919,-1.6286133999999999
351815165731868,-1.0609937,9.596844,-1.5926881000000002
351815185587867,-1.0538087,9.642349000000001,-1.5471827
351815205443995,-1.0154883,9.659114,-1.5711329
351815225300124,-0.98914313,9.637559,-1.6046631000000002
351815245156123,-0.977168,9.6615095,-1.6190332
351815265011826,-0.9627979,9.671089,-1.5735278999999998
351815284867955,-0.9580079,9.620794,-1.5543678
351815304724084,-0.98195803,9.587264,-1.5304176
351815324580213,-0.97956306,9.584868,-1.5423926000000001
351815344436214,-0.97956306,9.568104,-1.5950831
351815364291957,-0.977168,9.568104,-1.5926881000000002
351815384148086,-0.97237796,9.5633135,-1.590293
351815404004215,-0.9580079,9.5633135,-1.590293
351815423860216,-0.9412427,9.577683,-1.575923
351815443716127,-0.974773,9.592053,-1.5447876
351815463572128,-0.97956306,9.611214,-1.5711329
351815483428129,-0.9508228000000001,9.649534,-1.5639478
351815503284258,-0.9412427,9.697434,-1.5352076000000001
351815523140259,-0.9388476999999998,9.685459,-1.575923
351815542996388,-0.9364527,9.618399,-1.5950831
351815562851859,-0.9963281999999999,9.687855,-1.5280225
351815582707860,-0.95561284,9.639954,-1.590293
351815602563989,-0.9364527,9.582474000000001,-1.6525636000000001
351815622419990,-0.9867481,9.560919,-1.6118482
351815642276119,-0.9651929,9.577683,-1.6142433
351815662126310,-0.9436377,9.625584,-1.5950831
351815681982183,-1.0178833,9.651928999999999,-1.5376027
351815701838056,-1.0849438999999999,9.656719,-1.5495777
351815721694034,-1.0514137,9.616004,-1.6118482
351815741549907,-1.0011181999999998,9.587264,-1.6262183000000001
351815761405780,-1.0274634,9.627979,-1.5735278999999998
351815781256733,-1.0466236,9.644744000000001,-1.5615528
351815801112475,-0.9915381,9.683064,-1.583108
351815820968220,-0.98195803,9.683064,-1.5519726999999999
351815840823963,-0.9699829,9.599238,-1.5783178999999998
351815860681086,-0.90771246,9.544153,-1.6142433
351815880536831,-0.92926764,9.594449000000001,-1.5399976
351815900392702,-0.9508228000000001,9.630374,-1.5208374
351815920248446,-0.96040285,9.620794,-1.5447876
351815940104319,-1.0178833,9.651928999999999,-1.5591576999999999
351815959966560,-0.97237796,9.6686945,-1.5783178999999998
351815979822432,-0.91250247,9.673484,-1.6118482
351815999678305,-0.95561284,9.659114,-1.5567628
351816019534178,-0.99393314,9.589659,-1.5280225
351816039390051,-0.9412427,9.539363,-1.5495777
351816059245924,-0.9364527,9.5633135,-1.5399976
351816079103815,-0.96040285,9.613608000000001,-1.5447876
351816098959810,-0.95561284,9.620794,-1.5615528
351816118815683,-0.9508228000000001,9.64714,-1.5615528
351816138671554,-0.96758795,9.654325,-1.5399976
351816158531299,-0.94603276,9.604028999999999,-1.5998731000000002
351816178387428,-0.9532178,9.582474000000001,-1.575923
351816198243427,-0.9963281999999999,9.627979,-1.5256275
351816218099555,-0.974773,9.64714,-1.5543678
351816237955684,-0.9388476999999998,9.644744000000001,-1.6214283
351816257811333,-0.96040285,9.697434,-1.5735278999999998
351816277667461,-0.97237796,9.697434,-1.5998731000000002
351816297523590,-0.9388476999999998,9.6758795,-1.6765138
351816317379717,-0.99393314,9.6615095,-1.7076490000000002
351816337235973,-0.92926764,9.608819,-1.5783178999999998
351816357092102,-0.9316626,9.594449000000001,-1.5040723
351816376948472,-0.9316626,9.608819,-1.5950831
351816396804728,-0.96040285,9.608819,-1.6022681
351816416660857,-0.9532178,9.584868,-1.5974781999999998
351816436516984,-0.94603276,9.601633999999999,-1.6046631000000002
351816456376641,-0.92926764,9.618399,-1.6214283
351816476232898,-0.95561284,9.596844,-1.6190332
351816496089153,-0.9651929,9.596844,-1.6094532
351816515945409,-0.96758795,9.632769,-1.590293
351816535801794,-0.98195803,9.625584,-1.583108
351816555653825,-0.96758795,9.582474000000001,-1.6190332
351816575509953,-0.9580079,9.627979,-1.6118482
351816595366210,-0.96040285,9.654325,-1.585503
351816615222337,-0.9627979,9.632769,-1.6046631000000002
351816635078465,-1.0059083,9.64714,-1.5998731000000002
351816654934722,-0.9963281999999999,9.642349000000001,-1.575923
351816674796664,-0.9532178,9.611214,-1.6070582
351816694653048,-0.98195803,9.618399,-1.5950831
351816714509305,-0.98435307,9.623189,-1.583108
351816734365560,-0.96758795,9.618399,-1.5615528
351816754222036,-0.9867481,9.599238,-1.5543678
351816774078421,-0.95561284,9.613608000000001,-1.5735278999999998
351816793934676,-0.9436377,9.604028999999999,-1.5639478
351816813790932,-0.9508228000000001,9.572892999999999,-1.5639478
351816833647317,-0.98435307,9.596844,-1.575923
351816853503572,-0.9867481,9.608819,-1.5567628
351816873365363,-0.98435307,9.599238,-1.6262183000000001
351816893221876,-0.9987232,9.659114,-1.6166383
351816913078259,-0.98914313,9.671089,-1.6046631000000002
351816932934643,-0.9484278,9.666299,-1.6094532
351816952791028,-0.9987232,9.6758795,-1.5519726999999999
351816972646096,-1.0011181999999998,9.683064,-1.6046631000000002
351816992502480,-0.9532178,9.635164,-1.6669337
351817012358865,-0.98195803,9.616004,-1.6262183000000001
351817032215248,-0.9987232,9.608819,-1.583108
351817052064489,-0.9484278,9.587264,-1.6070582
351817071920874,-0.9412427,9.604028999999999,-1.585503
351817091777129,-0.977168,9.596844,-1.5328126
351817111633385,-0.9580079,9.584868,-1.585503
351817131489770,-0.94603276,9.606423,-1.5711329
351817151346025,-0.9867481,9.625584,-1.5280225
351817171198723,-0.9532178,9.635164,-1.5974781999999998
351817191054980,-0.9532178,9.639954,-1.6046631000000002
351817210911235,-0.9915381,9.692644,-1.583108
351817230767491,-0.9915381,9.692644,-1.583108
351817250623748,-0.99393314,9.6758795,-1.6190332
351817270467755,-1.0130934,9.678274,-1.590293
351817290323755,-0.9699829,9.663903999999999,-1.587898
351817310179756,-0.9580079,9.635164,-1.5735278999999998
351817330035755,-0.99393314,9.589659,-1.5543678
351817349889455,-0.9627979,9.539363,-1.5639478
351817369745328,-0.92208254,9.513017999999999,-1.5807129
351817389601199,-0.9268726,9.558523,-1.5807129
351817409457071,-0.94603276,9.560919,-1.6310083999999998
351817429312944,-0.9915381,9.5489435,-1.5184423999999999
351817449168815,-0.9867481,9.587264,-1.5495777
351817469023000,-0.9436377,9.671089,-1.585503
351817488878745,-0.94603276,9.6686945,-1.5663428
351817508734488,-0.94603276,9.685459,-1.5639478
351817528590232,-0.9651929,9.707015,-1.5519726999999999
351817548446105,-0.97956306,9.6686945,-1.5519726999999999
351817568302714,-0.974773,9.663903999999999,-1.5543678
351817588158586,-1.0011181999999998,9.639954,-1.5543678
351817608014459,-0.97956306,9.625584,-1.6142433
351817627870202,-0.95561284,9.589659,-1.585503
351817647724715,-0.977168,9.553733,-1.5615528
351817667580460,-0.9987232,9.594449000000001,-1.5256275
351817687436203,-1.0035132,9.568104,-1.5591576999999999
351817707291947,-1.0178833,9.580078,-1.5519726999999999
351817727147820,-1.0298585,9.580078,-1.5399976
351817747003563,-0.98435307,9.589659,-1.5591576999999999
351817766856241,-0.977168,9.639954,-1.5399976
351817786711986,-1.0035132,9.663903999999999,-1.5112573999999999
351817806567729,-1.0011181999999998,9.632769,-1.5136524
351817826423473,-1.0035132,9.673484,-1.5136524
351817846279218,-0.98435307,9.707015,-1.5256275
351817866131005,-0.95561284,9.659114,-1.5447876
351817885986621,-0.96758795,9.630374,-1.5567628
351817905842238,-0.97237796,9.649534,-1.5280225
351817925697853,-0.9484278,9.64714,-1.5208374
351817945553469,-0.9532178,9.606423,-1.5328126
351817965409086,-0.96040285,9.580078,-1.5471827
351817985265835,-0.9532178,9.584868,-1.5471827
351818005121323,-0.9580079,9.5561285,-1.5208374
351818024976940,-0.9580079,9.565708,-1.5232325
351818044832555,-0.95561284,9.572892999999999,-1.5519726999999999
351818064692218,-0.95561284,9.613608000000001,-1.5040723
351818084547835,-0.96040285,9.678274,-1.4753321000000001
351818104403450,-0.9699829,9.690249,-1.4897022
351818124259194,-0.9699829,9.685459,-1.5256275
351818144114811,-0.95561284,9.673484,-1.5471827
351818163975948,-0.9244776,9.635164,-1.5783178999999998
351818183833792,-0.9627979,9.613608000000001,-1.5567628
351818203689537,-1.0130934,9.642349000000001,-1.5160475
351818223545152,-0.9963281999999999,9.654325,-1.4944923
351818243400896,-0.9627979,9.644744000000001,-1.5256275
351818263256641,-0.977168,9.616004,-1.5016773
351818283113920,-0.9412427,9.635164,-1.5136524
351818302969664,-0.91010743,9.608819,-1.5519726999999999
351818322825537,-0.9388476999999998,9.570497999999999,-1.5591576999999999
351818342681280,-1.0059083,9.630374,-1.4920973
351818362545423,-1.0083033000000001,9.656719,-1.4801221000000002
351818382401424,-0.98195803,9.637559,-1.5352076000000001
351818402257295,-1.0178833,9.651928999999999,-1.5471827
351818422113295,-1.0106983,9.613608000000001,-1.5543678
351818441969296,-0.9867481,9.625584,-1.5543678
351818461833265,-0.98914313,9.654325,-1.4968873
351818481689521,-0.9699829,9.687855,-1.4681469999999999
351818501545778,-0.98195803,9.671089,-1.5328126
351818521402033,-1.0394385,9.6615095,-1.5471827
351818541258161,-1.0825489,9.589659,-1.5447876
351818561114418,-1.0418334999999999,9.527389,-1.4897022
351818580974062,-0.9627979,9.572892999999999,-1.4250367
351818600830446,-0.9316626,9.625584,-1.4897022
351818620686831,-0.98914313,9.637559,-1.5639478
351818640543086,-1.0370435,9.627979,-1.5567628
351818660400378,-1.0226734,9.656719,-1.5471827
351818680256635,-0.9987232,9.671089,-1.4801221000000002
351818700113018,-0.977168,9.64714,-1.465752
351818719969402,-0.9651929,9.580078,-1.5184423999999999
351818739825787,-0.9484278,9.565708,-1.5399976
351818759679604,-0.91250247,9.5561285,-1.5423926000000001
351818779535988,-0.9053174,9.577683,-1.5232325
351818799392245,-0.95561284,9.606423,-1.4609618999999998
351818819248628,-0.9699829,9.613608000000001,-1.4801221000000002
351818839105012,-0.9580079,9.642349000000001,-1.5328126
351818858961269,-0.9532178,9.659114,-1.5208374
351818878810783,-0.94603276,9.64714,-1.4992822000000001
351818898666911,-0.94603276,9.666299,-1.4729371
351818918523040,-0.9651929,9.654325,-1.4968873
351818938379167,-0.977168,9.630374,-1.5304176
351818958235185,-1.0298585,9.642349000000001,-1.5639478
351818978091314,-1.0250684,9.616004,-1.6046631000000002
351818997947569,-0.9388476999999998,9.604028999999999,-1.6118482
351819017803697,-0.9580079,9.654325,-1.5735278999999998
351819037659826,-1.0106983,9.654325,-1.5591576999999999
351819057516081,-0.96758795,9.651928999999999,-1.6118482
351819077363444,-0.9053174,9.644744000000001,-1.5064673000000002
351819097219445,-0.9029224,9.632769,-1.4609618999999998
351819117075572,-0.8813671999999999,9.635164,-1.5232325
351819136931572,-0.8933423,9.594449000000001,-1.5423926000000001
351819156787573,-0.9268726,9.599238,-1.5304176
351819176642426,-0.9316626,9.606423,-1.583108
351819196498554,-0.9053174,9.630374,-1.5280225
351819216354555,-0.9268726,9.606423,-1.5423926000000001
351819236210554,-0.90771246,9.604028999999999,-1.5735278999999998
351819256059861,-0.8861573,9.644744000000001,-1.5519726999999999
351819275915734,-0.9053174,9.671089,-1.5567628
351819295771605,-0.92208254,9.673484,-1.5567628
351819315627477,-0.90771246,9.630374,-1.5807129
351819335483350,-0.8861573,9.623189,-1.587898
351819355339221,-0.91010743,9.6686945,-1.5376027
351819375188626,-0.90771246,9.649534,-1.5399976
351819395044243,-0.89573735,9.623189,-1.5639478
351819414899986,-0.8981324,9.616004,-1.5376027
351819434755602,-0.852627,9.611214,-1.5591576999999999
351819454611347,-0.852627,9.604028999999999,-1.6549585999999998
351819474465800,-0.9053174,9.608819,-1.5926881000000002
351819494321416,-0.90052736,9.651928999999999,-1.5280225
351819514176905,-0.8047266,9.627979,-1.5567628
351819534032520,-0.87178713,9.635164,-1.5543678
351819553890275,-0.96040285,9.599238,-1.5639478
351819573745892,-0.9388476999999998,9.611214,-1.6094532
351819593601379,-0.8861573,9.639954,-1.5950831
351819613456995,-0.86939216,9.690249,-1.5663428
351819633312612,-0.8909473,9.687855,-1.587898
351819653168227,-0.8981324,9.64714,-1.5807129
351819673025952,-0.9268726,9.6686945,-1.5687379
351819692881569,-0.91729254,9.649534,-1.587898
351819712737184,-0.87897223,9.627979,-1.6118482
351819732592800,-0.90771246,9.642349000000001,-1.5591576999999999
351819752448417,-0.96040285,9.580078,-1.5495777
351819772306281,-0.94603276,9.553733,-1.5783178999999998
351819792161897,-0.91250247,9.618399,-1.6022681
351819812017642,-0.89573735,9.625584,-1.5663428
351819831873257,-0.8861573,9.618399,-1.5543678
351819851727776,-0.9316626,9.651928999999999,-1.5352076000000001
351819871583393,-0.97956306,9.687855,-1.5352076000000001
351819891438882,-0.974773,9.673484,-1.5471827
351819911294499,-0.9364527,9.678274,-1.5232325
351819931150116,-0.88376224,9.687855,-1.5615528
351819951005728,-0.86939216,9.678274,-1.5783178999999998
351819970873699,-0.9364527,9.632769,-1.6022681
351819990729572,-0.9651929,9.630374,-1.6118482
351820010585443,-0.91729254,9.596844,-1.5735278999999998
351820030441315,-0.90771246,9.584868,-1.587898
351820050297188,-0.95561284,9.589659,-1.5567628
351820070157210,-0.9412427,9.5633135,-1.5639478
351820090013210,-0.8646021,9.565708,-1.5950831
351820109869211,-0.8933423,9.599238,-1.5950831
351820129725082,-0.90771246,9.618399,-1.587898
351820149581082,-0.9196875,9.625584,-1.5711329
351820169437083,-0.92926764,9.649534,-1.5783178999999998
351820189285570,-0.9244776,9.685459,-1.5783178999999998
351820209141571,-0.8981324,9.651928999999999,-1.5807129
351820228997572,-0.8813671999999999,9.659114,-1.5998731000000002
351820248853445,-0.86939216,9.659114,-1.5783178999999998
351820268708982,-0.8669971,9.608819,-1.6022681
351820288564983,-0.90771246,9.620794,-1.5974781999999998
351820308420984,-0.92208254,9.627979,-1.6094532
351820328276985,-0.86939216,9.575289,-1.6357985000000002
351820348132986,-0.86939216,9.616004,-1.5735278999999998
351820367995441,-0.92926764,9.671089,-1.5256275
351820387851570,-0.91250247,9.651928999999999,-1.6070582
351820407707699,-0.92926764,9.627979,-1.585503
351820427563956,-0.97956306,9.601633999999999,-1.5495777
351820447420085,-0.93405765,9.601633999999999,-1.5974781999999998
351820467276214,-0.91729254,9.623189,-1.5950831
351820487136305,-0.9508228000000001,9.656719,-1.5232325
351820506992562,-0.96758795,9.690249,-1.5687379
351820526848819,-0.97956306,9.656719,-1.5998731000000002
351820546705076,-0.97956306,9.642349000000001,-1.575923
351820566557965,-0.9651929,9.654325,-1.5519726999999999
351820586414222,-0.9268726,9.620794,-1.5735278999999998
351820606270479,-0.9316626,9.616004,-1.5687379
351820626126736,-0.9963281999999999,9.611214,-1.5423926000000001
351820645982993,-0.96040285,9.580078,-1.575923
351820665839229,-0.9364527,9.570497999999999,-1.5735278999999998
351820685694358,-0.93405765,9.594449000000001,-1.5591576999999999
351820705550615,-0.9412427,9.599238,-1.5495777
351820725406744,-0.9580079,9.594449000000001,-1.5591576999999999
351820745262873,-0.98195803,9.608819,-1.5376027
351820765119130,-0.9364527,9.637559,-1.5256275
351820784973523,-0.9364527,9.635164,-1.5136524
351820804829651,-0.9316626,9.651928999999999,-1.5399976
351820824685780,-0.91729254,9.642349000000001,-1.585503
351820844541907,-0.91250247,9.644744000000001,-1.5950831
351820864394012,-0.96758795,9.663903999999999,-1.5495777
351820884250141,-0.96758795,9.644744000000001,-1.5376027
351820904106140,-0.92926764,9.611214,-1.5447876
351820923962268,-0.9268726,9.601633999999999,-1.5495777
351820943818269,-0.9053174,9.604028999999999,-1.5495777
351820963674268,-0.91010743,9.577683,-1.575923
351820983525514,-0.94603276,9.592053,-1.5423926000000001
351821003381387,-0.9316626,9.594449000000001,-1.5184423999999999
351821023237388,-0.91010743,9.592053,-1.5711329
351821043093261,-0.96040285,9.666299,-1.5208374
351821062949262,-0.9627979,9.707015,-1.5471827
351821082796115,-0.9268726,9.685459,-1.6166383
351821102651731,-0.90771246,9.673484,-1.5926881000000002
351821122507476,-0.9268726,9.649534,-1.5136524
351821142363219,-0.9053174,9.663903999999999,-1.5519726999999999
351821162223754,-0.8909473,9.6615095,-1.6118482
351821182079627,-0.92208254,9.721385,-1.5543678
351821201935498,-0.9388476999999998,9.6615095,-1.6094532
351821221791242,-0.92208254,9.553733,-1.6405883999999997
351821241647115,-0.98195803,9.5633135,-1.5711329
351821261502858,-0.9627979,9.587264,-1.5543678
351821281356365,-0.87178713,9.568104,-1.5783178999999998
351821301212238,-0.9532178,9.635164,-1.5567628
351821321067981,-1.0154883,9.683064,-1.5663428
351821340923725,-0.9580079,9.6686945,-1.6453785
351821360779470,-0.9699829,9.659114,-1.5926881000000002
351821380631339,-1.0011181999999998,9.692644,-1.5160475
351821400487084,-0.9244776,9.604028999999999,-1.5783178999999998
351821420342701,-0.9244776,9.558523,-1.585503
351821440198446,-0.9532178,9.541758999999999,-1.5064673000000002
351821460055215,-0.91010743,9.575289,-1.5663428
351821479910832,-0.9053174,9.611214,-1.5567628
351821499766447,-0.9699829,9.599238,-1.5256275
351821519622063,-0.95561284,9.644744000000001,-1.5471827
351821539477808,-0.8933423,9.654325,-1.5352076000000001
351821559333423,-0.89573735,9.6758795,-1.5543678
351821579193196,-0.91729254,9.656719,-1.5687379
351821599048941,-0.95561284,9.625584,-1.6262183000000001
351821618904684,-0.97956306,9.606423,-1.6166383
351821638760556,-0.9867481,9.608819,-1.5974781999999998
351821658616301,-0.9244776,9.575289,-1.6142433
351821678474292,-0.8933423,9.572892999999999,-1.6717237
351821698330036,-0.9388476999999998,9.606423,-1.6477735
351821718185909,-0.9029224,9.594449000000001,-1.6286133999999999
351821738041780,-0.92208254,9.6686945,-1.6070582
351821757897652,-0.9412427,9.644744000000001,-1.6070582
351821777753397,-0.9412427,9.608819,-1.6501685000000001
351821797606511,-0.9532178,9.611214,-1.6118482
