UPTIMENANO,Ax,Ay,Az
351796719180947,-0.66730917,-0.27547872,10.078966
351796739037587,-0.7231146,-0.27925998,9.842689
351796758894356,-0.43545696,-0.5515382,9.8469
351796778750995,-0.0078044254,-0.462563,10.088625
351796798606049,0.21312551,-0.40780818,10.080213
351796818462690,0.14496192,-1.1942873,9.632422
351796838319329,0.30357397,-2.8363485,9.591695
351796858176097,-0.19022547,-1.0033022,9.251595
351796878032738,0.045655295,0.7965694,8.887961
351796897882001,-0.46733403,0.42588392,9.6636095
351796917738513,-0.7897032,-0.98364604,10.899175
351796937595026,-0.6676155,-1.4570271,10.898478
351796957451665,0.30157408,-0.41251722,9.638004
351796977308177,1.0069866,0.40409443,9.411632
351796997164818,1.492638,0.17987488,9.757317
351797017015727,-1.3285577,0.1001908,9.884611
351797036872239,-0.7517614,-0.9311129,9.843402
351797056728624,-0.08868005,-1.2983725,9.708911
351797076585135,0.01024737,-0.2706004,9.33406
351797096436288,0.87588966,0.86748713,8.531636
351797116292673,0.39838085,0.19613086,9.044136
351797136148928,-0.41301268,-0.8993562,9.836169
351797156005312,-0.68708146,-1.3168517,10.0598345
351797175861697,0.59806734,0.15207496,10.03014
351797195718226,-0.07452262,0.6560149,9.895697
351797215574482,-1.4372282,0.034786176,10.1885605
351797235430739,-0.5115401,-0.61940694,10.722699
351797255286994,-0.200393,-0.93705887,11.012972
351797275143250,-0.6589127,-0.4016535,10.10503
351797294999507,-0.43871865,-0.26283908,10.48254
351797314858925,-0.67721844,-2.2859952,11.215645
351797334715181,-1.3648708,-2.657695,11.300317
351797354571566,-0.7551509,-1.287749,10.231788
351797374427821,1.545871,0.7628358,8.687264
351797394278747,3.4689507,-1.1933613,10.970469
351797414134876,2.073869,2.3001683,11.001403
351797433991003,0.046405975,1.8323493,6.9087152
351797453847131,2.1187136,2.1257608,5.662996
351797473703388,1.1445305,2.822941,4.9907293
351797493559529,3.8676,1.6609272,5.2998915
351797513415657,5.4593873,-0.5104969,5.995425
351797533271914,2.9347205,-3.6936386,8.15615
351797553128041,-1.4865533,-2.070905,9.312152
351797572984297,0.47395253,0.875782,5.6497297
351797592840426,2.855457,1.311061,3.1331236
351797612696297,4.0226426,-1.7959605,1.7948246
351797632552425,4.6523304,-5.403784,2.575787
351797652408554,3.3630536,-6.826684,5.594927
351797672264681,-0.05061925,-6.737132,11.9915695
351797692127593,-2.2540467,-5.235026,19.096497
351797711983850,-1.9305366,-6.2385654,18.970716
351797731840105,2.6800623,-5.6871014,14.92164
351797751696361,5.459749,-6.5876164,13.085551
351797771552618,4.9892216,-6.407547,14.452438
351797791408873,-8.64765,-4.728063,5.6603518
351797811265635,-11.817632,-0.0987285,-4.287859
351797831121892,9.285533,1.3827883,15.241242
351797850978147,9.723566,-1.6637132,14.358301
351797870834403,0.7968265,-0.90930635,12.896429
351797890690660,-0.2921304,1.019865,10.260898
351797910548823,4.8701043,0.39187106,5.7722673
351797930405079,1.041124,-0.40214238,5.1625905
351797950261336,-0.8023231,1.62218,4.636313
351797970117591,-0.8232445,2.3964324,4.5402694
351797989982191,5.3774204,-0.41460922,5.6317368
351798009838704,7.8086214,-0.25589386,8.878903
351798029695087,4.109034,-2.3402464,10.499786
351798049551599,0.51850134,-1.0289966,12.370694
351798069408112,4.2355986,-0.934749,13.264432
351798089264623,2.5476787,-0.26291886,13.460095
351798109120684,0.9304994,-1.9093033,13.85461
351798128977197,4.488308,-4.84626,16.233692
351798148833580,2.9124844,-7.0951824,16.696115
351798168690092,2.1587882,-8.563319,14.856166
351798188546605,3.731054,-9.691024,14.524565
351798208407687,-3.2923155,-7.9110274,12.789816
351798228264199,-7.446495,-2.8430104,7.913707
351798248120840,-6.419122,-1.4048105,6.205955
351798267977479,-5.445967,-1.1843106,7.102098
351798287843871,-2.8967168,-2.420032,6.7434173
351798307700640,-0.6724597,-4.479428,8.021601
351798327557535,-1.0600873,-4.014143,9.516509
351798347414431,-4.8378634,-4.2622514,10.331858
351798367271328,0.22809333,-6.4991536,12.998828
351798387128095,8.287639,-4.118423,12.19096
351798406986015,3.9582868,-0.69910896,12.661434
351798426842912,-0.26861423,3.113028,9.094335
351798446699807,-1.7960672,1.6591631,5.5327234
351798466556703,4.588213,1.6417972,10.777137
351798486413600,4.1058316,4.9577646,14.306229
351798506265959,3.630346,4.7213073,13.40807
351798526122727,3.1128726,1.7198043,10.015016
351798545979496,0.58552426,2.725156,9.076797
351798565836391,1.26555,1.1630187,13.362207
351798585696665,-0.41764793,-2.763767,13.864443
351798605553434,-0.49388418,0.50338,10.18805
351798625410329,-0.46737123,3.5476117,10.118845
351798645267225,2.118086,2.6229432,4.4407954
351798665123994,2.8557773,-0.6061648,1.4461291
351798684980889,0.22652961,-0.727216,3.8016603
351798704842381,-2.281826,0.07968161,6.04811
351798724699278,-2.0197208,0.5731317,6.8344035
351798744556173,0.45780218,-1.0173982,7.73715
351798764413197,1.4867114,-2.3962479,10.763623
351798784270094,-1.6938138,-4.000571,12.764981
351798804125075,-0.69946045,-1.9230384,10.557039
351798823981971,2.5162418,-1.3662727,11.481592
351798843838868,0.97080886,0.718447,8.8493185
351798863695891,0.17687683,1.3665242,8.479571
351798883552787,0.43148953,1.5992527,8.908226
351798903409812,1.1646177,2.9719684,6.583552
351798923259254,2.479798,3.0503538,9.784128
351798943116022,0.26095158,3.5825508,9.199255
351798962972919,0.6549133,4.2862315,11.284611
351798982829686,1.5516082,1.7052591,14.329828
351799002673532,-0.07489259,-1.2942058,7.296222
351799022530173,2.9158366,5.114645,9.088497
351799042386684,0.28918007,0.0961217,9.263595
351799062243324,0.091298066,0.79958576,10.823284
351799082099837,1.7033125,2.4287238,10.019824
351799101954428,1.4984342,0.8309,9.393122
351799121810940,1.3985078,0.9540164,15.676003
351799141667453,0.53120464,-2.7947853,15.043318
351799161523836,-0.940476,-3.3082976,10.757494
351799181380348,-0.85999644,-1.5063637,11.257796
351799201236861,-0.14469472,-1.9150249,13.057944
351799221091196,-0.24218586,-1.6287714,12.60118
351799240947708,-0.26401475,-2.019801,11.910194
351799260804093,1.7340493,-1.1582069,10.610602
351799280660476,0.6701393,4.232683,10.249551
351799300520031,-1.90177,1.2410514,10.855378
351799320376544,1.3715667,-0.16341877,6.029786
351799340233055,0.60003257,0.92506707,4.356333
351799360089567,0.7242905,0.5059137,9.377704
351799379946080,-0.43900576,-0.9017813,11.45833
351799399797561,-1.5099008,-1.3200293,10.869823
351799419653945,-1.4293418,-0.48076928,9.367866
351799439510330,-0.96768445,0.078717,6.916677
351799459366585,-0.46276364,-0.42513213,6.4741
351799479222969,-0.16965307,-1.8091322,9.378602
351799499079354,2.5184271,-1.7128779,12.64634
351799518935067,7.3679304,0.8396784,12.373364
351799538791323,3.1492083,-0.37065187,12.0206
351799558647708,-0.6591168,-1.8937339,9.523173
351799578503963,0.15563704,-2.0612519,8.721841
351799598359707,1.3431853,-1.5957757,9.381324
351799618215964,1.4177681,-0.7706611,9.940971
351799638072219,1.4605647,1.0003691,10.364878
351799657928603,1.5377845,5.0236154,11.757087
351799677784860,1.1856521,10.067875,12.985224
351799697644749,-1.4669925,5.07636,10.720413
351799717501005,-1.9467262,0.5970297,8.605988
351799737357390,-0.685469,1.4380883,9.930405
351799757213645,0.25167227,0.328153,10.377716
351799777069901,0.8319297,-0.9998141,10.423263
351799796926286,1.033591,-1.6574566,10.409305
351799816785820,0.49291754,-1.770617,10.214506
351799836642076,-0.022691477,-1.0968243,10.289366
351799856498333,-0.08779034,-0.39374304,10.18022
351799876354716,0.05552437,-0.061119035,10.174689
351799896220139,0.14992067,0.042423673,10.454744
351799916076652,0.089353696,-0.0589432,10.462378
351799935933163,0.041207027,-0.18507618,10.249296
351799955789675,0.2270392,-0.38101402,10.2718725
351799975646188,0.20086266,-0.21200642,10.330291
351799995502699,-0.037030652,-0.07512644,10.224515
351800015297710,-0.010106314,-0.12042866,10.323598
351800035153071,0.32012174,-0.22685361,10.466563
351800055008430,0.3547808,-0.075777076,10.502708
351800074863662,0.26381338,0.09719449,10.516575
351800094719023,0.19660388,0.17443584,10.449755
351800114586981,-0.060743373,-0.0679011,10.1697645
351800134442597,-0.18478683,-0.15415587,10.325276
351800154298086,0.06467113,-0.2395787,10.410735
351800174153573,0.366342,-0.18216872,10.376689
351800194024956,0.3195651,-0.017046932,10.350373
351800213880701,0.36629513,0.08812336,10.382688
351800233736572,0.37439936,0.047434274,10.392224
351800253592444,0.3448541,-0.11118695,10.401471
351800273448189,0.26555955,-0.15406944,10.445194
351800293304060,0.1704242,-0.035421122,10.439989
351800313172727,0.19713217,0.09299347,10.389769
351800333028856,0.24591465,0.042455405,10.377126
351800352884985,0.25763732,-0.03306754,10.367638
351800372741111,0.30644584,0.08471684,10.31381
351800392597240,0.33181962,-0.10306424,10.379245
351800412471080,0.3280652,0.09045015,10.412745
351800432327592,0.15608276,0.028548801,10.399523
351800452184105,0.13515225,-0.17274724,10.36936
351800472040616,0.26188913,-0.26026836,10.403884
351800491901023,0.23590556,-0.21179499,10.350614
351800511757664,0.23449782,-0.12512034,10.331014
351800531614175,0.24556409,-0.09729502,10.34066
351800551470687,0.21919078,-0.17514922,10.37108
351800571327200,0.21738394,-0.27667317,10.381937
351800591183841,0.19720145,-0.3068009,10.389021
351800611040810,0.16265436,-0.24126999,10.413829
351800630897195,0.2004592,-0.2030354,10.39831
351800650753708,0.21845943,-0.16729797,10.401578
351800670610221,0.18664296,-0.1615686,10.368497
351800690466734,0.24350673,-0.18269786,10.375863
351800710338673,0.25121266,-0.15908167,10.40514
351800730195442,0.18278833,-0.03859212,10.4262705
351800750052339,0.18064578,-0.0057171546,10.450669
351800769909099,0.22814655,-0.02659631,10.453791
351800789765867,0.24437556,-0.06295045,10.383543
351800809622764,0.24957772,-0.075699344,10.374926
351800829486504,0.24939242,-0.08444595,10.389603
351800849343528,0.23732449,-0.08807917,10.412154
351800869200425,0.18940432,-0.061465904,10.427149
351800889057448,0.18712844,-0.043071125,10.453427
351800908916203,0.21390176,-0.053682666,10.410165
351800928773356,0.26298848,-0.093725145,10.385114
351800948630379,0.24213064,-0.07109349,10.347996
351800968487532,0.17532514,-0.02117147,10.376783
351800988344685,0.27033952,-0.06738585,10.430541
351801008199092,0.32206362,-0.1641379,10.453346
351801028056116,0.2671624,-0.18099351,10.382661
351801047913269,0.2141635,-0.20072106,10.333375
351801067770420,0.19041964,-0.17262082,10.39265
351801087627444,0.19698402,-0.119719364,10.413228
351801107484597,0.17623901,-0.053296503,10.425395
351801127344582,0.1868865,-0.05094483,10.404955
351801147201862,0.22890437,-0.08119054,10.37675
351801167059015,0.22625658,-0.11248692,10.391323
351801186916294,0.17605694,-0.1456022,10.423766
351801206770185,0.115698375,-0.114317566,10.424958
351801226627338,0.14488976,-0.0919312,10.439738
351801246484619,0.21809986,-0.08233986,10.396654
351801266341772,0.16558683,-0.0804579,10.358966
351801286198925,0.14922194,-0.096011326,10.376425
351801306057486,0.17481232,-0.12559019,10.3648615
351801325914767,0.22290793,-0.13179977,10.3646555
351801345772176,0.23181532,-0.13729948,10.382563
351801365629585,0.18291606,-0.13864212,10.367073
351801385486866,0.16519433,-0.1484959,10.397207
351801405344275,0.13930355,-0.16040346,10.447755
351801425203286,0.124281324,-0.17608085,10.39211
351801445060695,0.1245257,-0.15415406,10.372774
351801464918232,0.16680026,-0.15819818,10.396312
351801484775641,0.18553998,-0.19919066,10.438469
351801504634688,0.16986455,-0.19890669,10.445713
351801524492353,0.16237062,-0.17954715,10.395482
351801544350146,0.1767968,-0.20610148,10.331138
351801564207811,0.23625295,-0.21742237,10.381054
351801584065476,0.13297914,-0.22132212,10.417454
351801603923141,0.110612355,-0.14672184,10.324956
351801623739500,0.19862057,-0.15561923,10.28453
351801643595885,0.1896797,-0.1797089,10.343726
351801663452120,0.19096066,-0.18752214,10.299196
351801683308505,0.18439756,-0.1755496,10.2849245
351801703164890,0.17680134,-0.1201565,10.253696
351801723026773,0.1826722,-0.16754903,10.317353
351801742883158,0.18250923,-0.16823734,10.285497
351801762739543,0.19510828,-0.098282814,10.22504
351801782596050,0.20509818,-0.0881469,10.1458
351801802448583,0.16715601,-0.1497202,10.203686
351801822304968,0.1260272,-0.16470893,10.232119
351801842158651,0.09629047,-0.12185928,10.174073
351801862014907,0.12474048,-0.096563675,10.212852
351801881871292,0.16866465,-0.14203653,10.169731
351801901727547,0.18262222,-0.14638498,10.155427
351801921584004,0.15067194,-0.08590975,10.110519
351801941440261,0.13749132,-0.0836321,10.167438
351801961296518,0.1282986,-0.15000466,10.157484
351801981152900,0.14601627,-0.15235499,10.117709
351802001009157,0.13803644,-0.14347307,10.122586
351802020872318,0.16025454,-0.17490928,10.089504
351802040728702,0.19335017,-0.20855874,10.064913
351802060585215,0.16022217,-0.2144858,10.010479
351802080441726,0.068752035,-0.17701797,10.059174
351802100302554,0.10405178,-0.2128594,10.061144
351802120159067,0.1634759,-0.23630403,9.995354
351802140015706,0.15302514,-0.15097225,9.999397
351802159872218,0.16147809,-0.10275914,10.055981
351802179728731,0.19870697,-0.14195226,10.013099
351802199585242,0.19336961,-0.114520065,9.9829445
351802219443449,0.19085492,-0.09173968,10.013185
351802239299962,0.23163374,-0.09271846,10.024902
351802259156475,0.24774049,-0.07702732,9.975536
351802279012988,0.23335344,-0.048401147,9.976107
351802298869501,0.223501,-0.06377518,10.0164585
351802318732038,0.20397861,-0.09185902,10.058563
351802338588679,0.18230148,-0.12583598,10.140967
351802358445448,0.21926835,-0.07962412,9.920685
351802378302217,0.26038226,-0.022743354,9.722112
351802398161394,0.21334442,-0.01538984,9.7253685
351802418018163,0.23363063,-0.06241058,9.781066
351802437875060,0.22424999,-0.06004271,9.707181
351802457731829,0.17166622,0.019423543,9.682399
351802477588726,0.16591378,-0.0015263573,9.754038
351802497445623,0.2063117,-0.12577291,9.848339
351802517299386,0.18862116,-0.14451128,9.879952
351802537156155,0.14747597,-0.018309813,9.92012
351802557012924,0.16614227,0.025851926,9.924445
351802576869693,0.10542292,-0.04444816,9.960024
351802596726462,0.1278338,-0.08789473,9.879858
351802616580621,0.2662525,-0.12484477,9.845416
351802636437390,0.22736686,-0.10419466,9.839526
351802656294159,0.22271466,-0.07338179,9.804926
351802676150780,0.20060919,-0.13306022,9.801374
351802696007549,0.21878399,-0.10440728,9.795865
351802715864318,0.18765633,-0.08493065,9.751773
351802735724501,0.17027631,-0.08889584,9.724824
351802755581270,0.18706039,-0.10272776,9.770739
351802775438167,0.1887397,-0.106330894,9.782534
351802795294930,0.19793952,-0.10711961,9.79106
351802815154289,0.17006294,-0.08829501,9.815787
351802835011186,0.20485546,-0.09601957,9.798756
351802854868081,0.20908616,-0.080651104,9.809437
351802874724849,0.19627745,-0.06576242,9.815912
351802894581746,0.19992848,-0.09286731,9.838709
351802914434132,0.18528289,-0.13422972,9.84577
351802934290901,0.18511479,-0.11435173,9.846562
351802954147670,0.20660587,-0.094197616,9.852263
351802974004436,0.21008997,-0.06322142,9.830218
351802993861204,0.18665121,-0.07089503,9.779799
351803013717973,0.19926931,-0.08785719,9.705319
351803033562989,0.21342139,-0.09174519,9.713596
351803053419629,0.20562325,-0.044789437,9.74454
351803073276142,0.26565537,-0.045434594,9.709945
351803093132781,0.2379947,-0.047004115,9.711378
351803112989308,0.18599567,-0.03866282,9.723865
351803132845949,0.16298634,-0.077482276,9.768672
351803152702460,0.16073754,-0.07923724,9.781486
351803172558972,0.12477105,-0.06429066,9.827469
351803192415613,0.15792942,-0.1107719,9.87803
351803212268610,0.20338002,-0.14376433,9.86384
351803232124995,0.18854243,-0.094102606,9.818482
351803251981380,0.18179637,-0.06730606,9.829162
351803271837765,0.20629995,-0.10046551,9.839218
351803291694278,0.23550922,-0.10956754,9.804776
351803311550663,0.18737689,-0.044639923,9.7967615
351803331405638,0.19640532,-0.049549922,9.792227
351803351262151,0.19490351,-0.12183242,9.795399
351803371118536,0.15682353,-0.13634561,9.7884245
351803390974921,0.1431683,-0.09651805,9.763654
351803410827246,0.13273506,-0.06894128,9.781326
351803430683503,0.16193476,-0.07421906,9.774343
351803450539760,0.20071335,-0.068546325,9.755601
351803470396017,0.22166798,-0.0733649,9.769649
351803490252274,0.21807584,-0.07201867,9.791394
351803510108531,0.18176964,-0.054672338,9.845785
351803529958420,0.16484688,-0.030750684,9.862084
351803549814549,0.17304467,-0.055712096,9.839661
351803569670550,0.1933641,-0.08078116,9.818718
351803589526679,0.22730757,-0.0821132,9.808053
351803609382808,0.21216688,-0.07493979,9.785323
351803629240533,0.18614374,-0.056814812,9.755633
351803649096641,0.18898906,0.0043111844,9.748169
351803668952770,0.19102395,-0.011796295,9.757765
351803688808899,0.23630802,-0.0446271,9.731903
351803708669356,0.21442093,-0.05653431,9.735088
351803728525613,0.20710552,-0.06295425,9.779671
351803748381870,0.22127828,-0.0677482,9.799705
351803768237993,0.15569168,-0.045744915,9.76805
351803788094250,0.15072939,-0.011327743,9.749161
351803807950505,0.19480194,-0.060373183,9.801339
351803827805957,0.24402143,-0.118981935,9.84734
351803847662086,0.1845049,-0.1159398,9.825018
351803867515730,0.16070035,-0.07722593,9.8152685
351803887371858,0.20712717,-0.1063921,9.827687
351803907228115,0.24303396,-0.12336138,9.784442
351803927093423,0.2347492,-0.076003276,9.729853
351803946949807,0.20672752,-0.062139522,9.727247
351803966806192,0.23071948,-0.08848075,9.778875
351803986662575,0.20972484,-0.09286082,9.797097
351804006519112,0.16813478,-0.06310536,9.77375
351804026375497,0.20760763,-0.081813626,9.793981
351804046231880,0.17326568,-0.11465804,9.812068
351804066088264,0.15041839,-0.07516246,9.799541
351804085944649,0.14454912,-0.035607222,9.795967
351804105801032,0.11443696,-0.02772641,9.817971
351804125662695,0.15307932,-0.039965596,9.818699
351804145519208,0.16381942,-0.035882324,9.822836
351804165375719,0.21398045,-6.176862E-4,9.811899
351804185232104,0.24013491,-0.018468477,9.79874
351804205088617,0.18490285,-0.051256314,9.788365
351804224949754,0.1889091,-0.037070166,9.757035
351804244806395,0.19424002,0.0028354765,9.7767
351804264662908,0.1910918,-0.014553709,9.79534
351804284519421,0.17953111,-0.050418634,9.802704
351804304381156,0.16772525,-0.03522954,9.767792
351804324237925,0.15616281,-0.009498222,9.7347555
351804344094694,0.1927313,-0.012527156,9.747032
351804363951335,0.26103416,-0.023060529,9.748434
351804383808104,0.19924891,-0.017390884,9.785759
351804403664745,0.18245946,-0.02203131,9.820143
351804423528779,0.25650492,-0.02473784,9.862441
351804443385676,0.27943847,0.0029016014,9.857017
351804463242699,0.14097156,-0.076219134,9.83105
351804483099595,0.20099325,-0.099662,9.836089
351804502956620,0.27583677,-0.11452761,9.790968
351804522811040,0.21774654,-0.07271907,9.74738
351804542667936,0.21262763,-0.05160056,9.7127495
351804562524961,0.18190683,-0.062483978,9.720255
351804582381856,0.15978977,-0.08087438,9.716541
351804602238880,0.16814898,-0.06681652,9.705622
351804622095777,0.17234203,-0.079478495,9.735724
351804641948942,0.2099355,-0.061323017,9.792873
351804661805838,0.2144772,-0.044751424,9.828781
351804681662607,0.18938376,-0.040103078,9.853609
351804701519502,0.18125138,-0.048338894,9.843936
351804721376107,0.17569724,-0.056978516,9.869178
351804741233004,0.19049722,-0.041661795,9.87811
351804761089899,0.1793668,-0.074453734,9.857103
351804780946667,0.19452804,-0.10027279,9.855293
351804800803564,0.21747945,-0.06796863,9.801941
351804820659984,0.20726578,-0.038439263,9.756968
351804840516880,0.19131398,-0.045508206,9.763638
351804860373777,0.18475159,-0.08114434,9.740406
351804880230672,0.17465207,-0.097501874,9.744271
351804900087440,0.16853292,-0.09186399,9.724997
351804919944337,0.20679802,-0.07350209,9.742093
351804939789999,0.17855324,-0.07425113,9.7732115
351804959646639,0.14334671,-0.08945768,9.760708
351804979503408,0.14603165,-0.15292042,9.806189
351804999360047,0.10736088,-0.16545467,9.8983345
351805019207016,0.12095221,-0.13090329,9.977938
351805039063529,0.18903461,-0.13952263,9.962057
351805058920040,0.20731571,-0.110158555,9.829453
351805078776424,0.23676148,-0.13579793,9.569687
351805098632937,0.13576017,-0.119975515,9.593986
351805118486673,0.09981399,-0.057463694,9.714029
351805138342929,0.17857908,-0.08255788,9.686381
351805158199314,0.23257113,-0.08131307,9.747701
351805178055697,0.19557437,-0.038048804,9.83361
351805197912081,0.13766924,-0.15763026,9.887628
351805217768338,0.09298521,-0.1924161,9.918201
351805237623857,0.0456653,-0.07041779,9.871152
351805257480242,0.14948569,-0.050083075,9.803248
351805277336499,0.20794997,-0.058252506,9.852008
351805297192752,0.22191246,-0.108711906,9.815754
351805317042130,0.2171551,-0.16755556,9.782187
351805336898259,0.16514248,-0.11388587,9.795782
351805356754386,0.18490714,-0.14558916,9.7460375
351805376610514,0.15793145,-0.12048577,9.767908
351805396466643,0.12937921,-0.008374056,9.799378
351805416322770,0.17726566,-0.04033353,9.764528
351805436169292,0.15580438,-0.12171542,9.736348
351805456025165,0.07332118,-0.101671994,9.758153
351805475881036,0.09991764,-0.07385695,9.779371
351805495736909,0.13926971,-0.09501318,9.785237
351805515592782,0.17105235,-0.09265111,9.8171835
351805535452055,0.15541868,-0.09578331,9.807114
351805555307928,0.173131,-0.0880107,9.837576
351805575163929,0.14952789,-0.079220444,9.8692045
351805595019925,0.081325755,-0.1110119,9.890124
351805614874456,0.07999101,-0.13207896,9.826744
351805634730329,0.11481807,-0.12376812,9.799173
351805654586200,0.14174086,-0.14802362,9.7572155
351805674442072,0.1267746,-0.17411995,9.663398
351805694297817,0.13541105,-0.15976046,9.673573
351805714153688,0.16858865,-0.088634536,9.69522
351805734014900,0.22490297,-0.10675581,9.731814
351805753870901,0.1439745,-0.056958836,9.79159
351805773726772,0.10501644,-0.03699765,9.811732
351805793582772,0.11053032,-0.074481346,9.850632
351805813438645,0.090322666,-0.10703263,9.863548
351805833298961,0.06914496,-0.08159064,9.821882
351805853154961,0.104580104,-0.09562202,9.807118
351805873010962,0.10105946,-0.11010999,9.82949
351805892864326,0.113869645,-0.1269198,9.832237
351805912731237,0.14145346,-0.13210016,9.773004
351805932587366,0.1755149,-0.1407882,9.731618
351805952443623,0.1615828,-0.12357357,9.733308
351805972299877,0.1327432,-0.12681873,9.745814
351805992156134,0.13134682,-0.12405537,9.726309
351806012012389,0.10858832,-0.117988504,9.754677
351806031868224,0.10552536,-0.11840247,9.811076
351806051724609,0.09668485,-0.14713162,9.838747
351806071580864,0.06202514,-0.14365675,9.85385
351806091437120,0.05238144,-0.15054542,9.86675
351806111293377,0.09753358,-0.17736982,9.867649
351806131156295,0.12829778,-0.1709243,9.846616
351806151012679,0.12925144,-0.12982522,9.813351
351806170869064,0.13155194,-0.14501633,9.771056
351806190725577,0.105269805,-0.17844202,9.734436
351806210581962,0.092951626,-0.16791126,9.735544
351806230438347,0.13556515,-0.18474945,9.722211
351806250300312,0.17827025,-0.19510141,9.736253
351806270156952,0.1628014,-0.16445719,9.738384
351806290013465,0.116957664,-0.1430316,9.780795
351806309870104,0.08915654,-0.15779541,9.804001
351806329726532,0.099858865,-0.15707721,9.838094
351806349583173,0.08423592,-0.15068838,9.867749
351806369439812,0.10530265,-0.14674924,9.863212
351806389296324,0.16071303,-0.18737417,9.843158
351806409152965,0.13632819,-0.115928866,9.786559
351806429019367,0.16697872,-0.103883155,9.7100315
351806448876263,0.18600522,-0.15255748,9.711853
351806468733160,0.13441718,-0.15953812,9.743676
351806488589927,0.07855806,-0.120280236,9.79522
351806508446824,0.12219216,-0.10838312,9.782014
351806528303721,0.16171853,-0.14267188,9.786599
351806548158414,0.15630026,-0.13721636,9.815309
351806568015179,0.12975785,-0.13155882,9.849983
351806587872076,0.12417343,-0.12859924,9.858955
351806607728843,0.09566772,-0.12969501,9.84188
351806627585192,0.09839014,-0.11868821,9.8283
351806647441961,0.14071347,-0.14039254,9.807476
351806667298728,0.18433838,-0.15624724,9.785379
351806687155624,0.15897715,-0.1425408,9.709113
351806707012393,0.1293472,-0.13866124,9.696825
351806726875359,0.11825444,-0.12241883,9.717639
351806746732383,0.15054359,-0.11970015,9.711724
351806766589280,0.14574121,-0.13332373,9.751267
351806786446303,0.102380805,-0.12276388,9.825064
351806806303199,0.098715134,-0.1425563,9.86948
351806826160224,0.086484656,-0.16722895,9.87269
351806846016205,0.074192055,-0.15229999,9.874055
351806865873101,0.11478339,-0.15577097,9.844498
351806885730126,0.21562876,-0.17478527,9.824312
351806905587149,0.1514355,-0.15888041,9.789155
351806925438739,0.066847555,-0.10416393,9.792787
351806945295636,0.11269213,-0.16359304,9.78872
351806965152531,0.14976953,-0.17782573,9.783594
351806985009427,0.12691885,-0.14627357,9.743502
351807004866324,0.13740961,-0.15619923,9.725007
351807024711604,0.13767833,-0.15443946,9.768606
351807044568244,0.15036887,-0.15655953,9.797282
351807064424885,0.14424697,-0.1082501,9.795419
351807084281524,0.12860522,-0.099132665,9.81239
351807104138164,0.14859623,-0.14405926,9.85461
351807123994677,0.120658495,-0.16475047,9.838139
351807143848043,0.106766716,-0.14047396,9.832178
351807163704555,0.12758756,-0.12912762,9.8636265
351807183561068,0.15890251,-0.15960066,9.824333
351807203417579,0.15620953,-0.11943324,9.75875
351807223269544,0.13868205,-0.09028667,9.756214
351807243125929,0.14586219,-0.14660813,9.758618
351807262982314,0.15208346,-0.14876059,9.732553
351807282838699,0.20090166,-0.046737038,9.722136
351807302695084,0.2268876,-0.066023484,9.748637
351807322551592,0.21220596,-0.12980154,9.762863
351807342400558,0.10562103,-0.124052346,9.795368
351807362256815,0.083819754,-0.07190837,9.831859
351807382113070,0.126677,-0.069594696,9.831574
351807401969326,0.1385517,-0.09229217,9.842972
351807421825583,0.10727138,-0.12576303,9.8294
351807441681096,0.15693471,-0.11655393,9.823212
351807461537352,0.18661799,-0.07652907,9.825324
351807481393481,0.17128174,-0.052605852,9.840701
351807501249738,0.15830338,-0.08193178,9.837571
351807521099995,0.1470401,-0.08990309,9.817848
351807540956124,0.14924015,-0.08112396,9.785122
351807560812253,0.17514218,-0.05899954,9.75266
351807580668382,0.15332147,-0.05968137,9.768888
351807600524511,0.18183199,-0.094452344,9.749208
351807620380512,0.18292215,-0.12087453,9.748504
351807640236813,0.13368174,-0.10381725,9.765368
351807660092814,0.083014816,-0.08990636,9.80846
351807679948815,0.13728593,-0.10846355,9.806781
351807699804816,0.12697951,-0.09543034,9.85568
351807719660817,0.114846975,-0.1317547,9.912775
351807739521458,0.20182057,-0.14502722,9.9019165
351807759377446,0.23270264,-0.10458966,9.735888
351807779233575,0.122196116,-0.075793535,9.706211
351807799089702,0.032023996,-0.091771126,9.781136
351807818948095,0.13591972,-0.13425694,9.73424
351807838804224,0.20965867,-0.07444589,9.740308
351807858660351,0.19084933,-0.017495546,9.793511
351807878516479,0.16991141,-0.11522436,9.791941
351807898372608,0.146267,-0.13975199,9.780541
351807918228735,0.060921285,-0.033776306,9.789188
351807938082425,0.120734565,-0.048606455,9.778821
351807957938554,0.22721499,-0.10692228,9.7743225
351807977794553,0.20801926,-0.055828735,9.792107
351807997646471,0.18777892,-0.0729544,9.78397
351808017502472,0.19685675,-0.08875107,9.783104
351808037356531,0.12755093,-0.07654252,9.814205
351808057212532,0.1094606,-0.06337173,9.82811
351808077068533,0.17537236,-0.058348224,9.791533
351808096924529,0.15235147,-0.05667639,9.807673
351808116780657,0.13116652,-0.06447657,9.808606
351808136636658,0.14605641,-0.09472968,9.8138485
351808156499973,0.12756072,-0.07670414,9.800148
351808176356101,0.18970059,-0.055209227,9.768359
351808196212230,0.22266074,-0.044682883,9.781321
351808216068357,0.18772022,0.0021978454,9.774954
351808235928770,0.13379183,-0.020359844,9.762308
351808255785027,0.12332828,-0.07103706,9.785053
351808275641282,0.14446388,-0.080186315,9.8003645
351808295497538,0.19257331,-0.05961206,9.791302
351808315353795,0.17532624,-0.05781342,9.75309
351808335212700,0.14645901,-0.048616122,9.728271
351808355069084,0.13007031,-0.08444314,9.737123
351808374925469,0.13915159,-0.10676679,9.77831
351808394781724,0.12897328,-0.06974373,9.776129
351808414638108,0.17140535,-0.030089792,9.811047
351808434494493,0.112917915,-0.044288907,9.849851
351808454347938,0.1207274,-0.090390675,9.827072
351808474204194,0.1521911,-0.07901394,9.81875
351808494060579,0.17558403,-0.023989104,9.832667
351808513916962,0.17442861,0.0375217,9.807946
351808533775572,0.1320045,0.06880357,9.807648
351808553631957,0.1282292,0.05687663,9.773547
351808573488340,0.1973936,0.025209049,9.750586
351808593344725,0.1951964,0.020338682,9.7325
351808613201110,0.14951964,0.055662148,9.755814
351808633058439,0.15583259,0.07565472,9.791528
351808652914824,0.14227462,0.030665899,9.792287
351808672771209,0.114912614,0.015196344,9.807389
351808692627594,0.123681396,0.036676772,9.82401
351808712484101,0.16777338,0.061965,9.828282
351808732340486,0.15730007,0.0413135,9.841073
351808752203410,0.14830148,0.037730794,9.85911
351808772059922,0.16523871,0.053303808,9.838153
351808791916563,0.17358276,0.06765993,9.814331
351808811773074,0.16344933,0.04336019,9.823883
351808831629680,0.17960866,0.011461022,9.815983
351808851486321,0.18704315,0.0056242077,9.771277
351808871342832,0.17371477,0.016393278,9.755765
351808891199472,0.19432789,0.033923525,9.725478
351808911055985,0.22836213,0.037363958,9.732253
351808930912624,0.13703081,0.024082897,9.738409
351808950755044,0.12001618,-8.7916723E-4,9.740373
351808970611301,0.1429113,-0.022670666,9.783471
351808990467556,0.1600496,-0.021618342,9.838267
351809010323812,0.1895926,-0.0050933873,9.879354
351809030180197,0.16063154,0.019510118,9.887736
351809050034625,0.139819,0.0019236007,9.8643875
351809069890881,0.14049327,-0.009246932,9.850466
351809089747138,0.19041014,-0.01627461,9.800057
351809109603393,0.19436452,0.013292798,9.796951
351809129450720,0.18217543,0.040611435,9.769982
351809149306721,0.19696768,0.05508189,9.746596
351809169162720,0.17565571,0.033634424,9.727567
351809189018720,0.12020723,0.014056746,9.742848
351809208874721,0.14617985,0.0013879255,9.710413
351809228730720,0.16610707,0.019289998,9.734691
351809248585404,0.13158286,0.020059945,9.77657
351809268441405,0.13265216,0.0114536295,9.801904
351809288297276,0.14864299,0.031760365,9.806928
351809308153276,0.14491409,0.014257372,9.85011
351809328009277,0.162664,-0.0023700516,9.887359
351809347866860,0.1896074,-0.0016183445,9.862422
351809367722861,0.18273745,-0.0019252794,9.8545685
351809387578862,0.17988785,0.0050985017,9.831226
351809407434863,0.1891139,-0.011348119,9.785095
351809427291823,0.17373408,0.0041470015,9.789178
351809447147952,0.18786417,0.02618135,9.73068
351809467003951,0.1973827,0.015681567,9.695476
351809486859951,0.14900474,0.020825453,9.717194
351809506715952,0.1510545,0.017049193,9.733749
351809526572079,0.15361848,0.02708069,9.784299
351809546425361,0.14343102,0.031260844,9.779606
351809566281234,0.1671609,-0.020975554,9.7942
351809586137233,0.16148181,-0.057883922,9.828379
351809605993233,0.10869691,-0.029767886,9.855952
351809625849106,0.14976995,-0.014578029,9.827345
351809645706326,0.16606735,-0.03311985,9.854198
351809665562199,0.11893283,-0.031656593,9.863261
351809685418072,0.1766104,-0.038974177,9.861241
351809705273945,0.17926367,-0.010204176,9.846976
351809725098596,0.16293187,0.009290978,9.795595
351809744953957,0.15282302,0.023634603,9.790072
351809764809316,0.16686109,0.026524654,9.78893
351809784664676,0.208581,-0.011628411,9.739774
351809804519909,0.18872589,-0.0077803,9.731584
351809824375268,0.16523014,0.02807274,9.796259
351809844242904,0.15539669,0.0021632249,9.761695
351809864098393,0.157803,-0.01412184,9.768783
351809883954008,0.13295445,-0.045799628,9.775979
351809903809496,0.17902794,-0.03746876,9.771056
351809923665113,0.18670838,-0.010371878,9.749538
351809943531212,0.16284087,-0.0011989034,9.768653
351809963386956,0.1428358,-0.02898375,9.786589
351809983242573,0.1694649,-0.02144058,9.7849655
351810003098316,0.16132697,-0.0030569432,9.78538
351810022954060,0.14495118,0.004531553,9.802941
351810042809677,0.16659245,-0.009256699,9.831502
351810062669260,0.15950367,-0.022046246,9.848999
351810082525004,0.11755078,-0.026524004,9.839894
351810102380621,0.13955986,-0.0329587,9.872324
351810122234148,0.1884985,-0.024502663,9.815242
351810142099396,0.16595368,-0.0010559049,9.778069
351810161955269,0.120411254,-0.0031014231,9.768891
351810181811140,0.14173879,-0.062861666,9.777897
351810201667140,0.16049491,-0.10122606,9.786407
351810221523013,0.12954101,-0.046522394,9.787654
351810241391902,0.16762151,-0.0013087019,9.789619
351810261248030,0.14134583,-0.02733709,9.800161
351810281104287,0.07027514,-0.052924853,9.786764
351810300960414,0.12399209,-0.015170759,9.759935
351810320816670,0.22291282,-0.007868358,9.795646
351810340672799,0.18874279,-0.013918727,9.781464
351810360532815,0.14425988,0.019686028,9.8044195
351810380389199,0.1161173,0.0034111312,9.799546
351810400245584,0.15280603,-0.06646664,9.80715
351810420101967,0.09839267,-0.046490062,9.857919
351810439968922,0.14091201,0.025756039,9.825089
351810459825563,0.19047295,-0.0071630594,9.762321
351810479682204,0.11515808,-0.030438894,9.786706
351810499538845,0.08226755,-0.06493276,9.802039
351810519395486,0.15016152,-0.04921302,9.758577
351810539249723,0.16378802,0.023549985,9.732272
351810559106364,0.114108734,0.013029095,9.778617
351810578962877,0.12709811,-0.060900584,9.798037
351810598819518,0.12734017,-0.083023824,9.772729
351810618676031,0.10867324,-0.04473993,9.805718
351810638532672,0.13384761,-0.022991564,9.814373
351810658399029,0.19348055,-0.015145769,9.773634
351810678255798,0.13427188,-0.0032025247,9.776
351810698112567,0.08982969,-0.049189683,9.773618
351810717969464,0.11813087,-0.0777395,9.789551
351810737831987,0.20553622,-0.04224939,9.778176
351810757689012,0.20033823,0.009287422,9.797671
351810777545893,0.16738905,0.006817415,9.78142
351810797402789,0.1257942,-0.044979688,9.805739
351810817259814,0.08850797,-0.06355958,9.820588
351810837116709,0.07343553,-0.047386598,9.836424
351810856974867,0.16245523,-0.049924616,9.83894
351810876831892,0.17031492,-0.050391626,9.822662
351810896688915,0.1426774,-0.040260658,9.813879
351810916545939,0.1354675,-0.044119474,9.773268
351810936402964,0.14232674,-0.030665318,9.766391
351810956248217,0.14126705,0.0010479251,9.770331
351810976105114,0.1697215,0.028298557,9.775349
351810995962011,0.21141402,0.034945473,9.756603
351811015818780,0.16414176,-0.008716617,9.790816
351811035671995,0.12528968,-0.058755517,9.817631
351811055528892,0.11397935,-0.017592669,9.803398
351811075385655,0.11829833,0.020467991,9.80216
351811095242551,0.1125415,3.995355E-4,9.820244
351811115099448,0.14864434,-0.025104163,9.785671
351811134956215,0.17262426,-0.015339252,9.787106
351811154809643,0.15369791,-0.0033294188,9.791879
351811174666412,0.17323458,-0.027657142,9.780078
351811194523307,0.16698569,-0.020854492,9.804426
351811214380075,0.14300212,0.014403651,9.802042
351811234236844,0.13440704,0.018508708,9.7775955
351811254092240,0.1372185,0.016289243,9.7966
351811273949137,0.114875816,-0.009740064,9.790328
351811293805906,0.13199298,0.004063694,9.774495
351811313662803,0.13869664,-0.0073237717,9.76312
351811333497526,0.13426124,-0.012754106,9.759387
351811353353655,0.18325341,0.06327814,9.788794
351811373209656,0.1274117,-0.02460898,9.790917
351811393065785,0.043266453,-0.003910486,9.7962475
351811412921914,0.115725145,0.05470986,9.792369
351811432777915,0.14929888,0.020658005,9.825063
351811452634678,0.13787249,-0.0032604123,9.815043
351811472490807,0.15893734,0.016239986,9.820038
351811492346936,0.18197596,0.038588833,9.835446
351811512202937,0.16189943,0.043732006,9.847209
351811532059066,0.10817967,0.04653545,9.814762
351811551909069,0.16800341,-0.0014897092,9.802788
351811571765070,0.14773853,-0.017297423,9.796082
351811591621071,0.13983613,0.020850843,9.79761
351811611477072,0.15656959,0.042293943,9.788023
351811631332945,0.16687143,0.015223786,9.781358
351811651188946,0.15371662,0.0024633463,9.787891
351811671042357,0.16435783,0.018035458,9.769497
351811690898230,0.19580877,0.04220439,9.749214
351811710754103,0.15241408,0.02185094,9.788894
351811730609953,0.10682379,-0.023995683,9.8126545
351811750458797,0.16397823,-0.013728553,9.813545
351811770314414,0.16064408,0.04510925,9.838725
351811790170157,0.1449542,0.053373277,9.833357
351811810025901,0.13447823,0.006429016,9.824144
351811829881646,0.18200184,0.03587554,9.823376
351811849746148,0.16863368,0.020313991,9.811114
351811869602020,0.11358839,-2.7561648E-4,9.794922
351811889457893,0.19307734,0.025786016,9.773358
351811909313892,0.22686821,0.008899063,9.777951
351811929169764,0.1599056,-0.028967764,9.750177
351811949025637,0.11569462,-0.023797605,9.765989
351811968884751,0.115086734,-0.018670352,9.818315
351811988740623,0.15524778,-0.031340834,9.793566
351812008596496,0.19269606,-0.046490923,9.750957
351812028452367,0.15152007,-0.021472065,9.787332
351812048312690,0.12407885,-0.049099743,9.791866
351812068168691,0.14256315,-0.05562944,9.763326
351812088024690,0.1616459,-0.028989606,9.76507
351812107880690,0.18035337,-0.031596597,9.802382
351812127736563,0.18068536,-0.042792756,9.834883
351812147593542,0.13949451,-0.057388354,9.812952
351812167449542,0.12707448,-0.07543507,9.797811
351812187305415,0.09685293,-0.08985185,9.83572
351812207161414,0.097075835,-0.079092935,9.819751
351812227017415,0.11978911,-0.056826476,9.799061
351812246873288,0.1521974,-0.06727343,9.756025
351812266733221,0.1631005,-0.08253283,9.775139
351812286589350,0.14214711,-0.036722638,9.797556
351812306445479,0.16498862,-0.0029934887,9.783243
351812326301608,0.16832678,-0.035343036,9.816136
351812346165367,0.13658945,-0.08446449,9.805226
351812366021624,0.10563828,-0.062950805,9.815749
351812385878009,0.08600896,-0.048151024,9.790443
351812405734394,0.105037145,-0.056370296,9.799437
351812425590651,0.120204195,-0.08019825,9.813178
351812445458908,0.13655366,-0.05731949,9.801409
351812465315549,0.105940804,-0.035502043,9.809581
351812485172190,0.095675126,-0.05396792,9.810597
351812505028831,0.13344441,-0.06513292,9.780437
351812524885472,0.13175826,-0.036036685,9.801029
351812544742113,0.09387122,-0.0046657976,9.80207
351812564591100,0.13965632,-0.049257424,9.776064
351812584447485,0.15262969,-0.05922516,9.793718
351812604303998,0.16246875,-0.018192632,9.763842
351812624160383,0.16508777,-0.02375604,9.751304
351812644021704,0.10991828,-0.009235845,9.796469
351812663878345,0.08356952,0.0040131533,9.79927
351812683734837,0.102722116,-0.014891979,9.786037
351812703591350,0.08443952,-0.020857383,9.753859
351812723447991,0.09345703,-0.022284064,9.79606
351812743304504,0.0654012,-0.01719095,9.813373
351812763155311,0.13459814,-0.015742932,9.767373
351812783011696,0.15107626,0.008182376,9.816855
351812802868204,0.12246947,-0.003783709,9.799014
351812822724716,0.13091616,-0.016024966,9.795405
351812842581229,0.09559884,-0.03250804,9.843138
351812862437832,0.052387115,-0.04614322,9.854377
351812882294344,0.088400856,-0.04723838,9.864784
351812902150857,0.11135343,-0.029546393,9.838158
351812922007368,0.117597304,0.027893009,9.782142
351812941862760,0.16955154,0.073536195,9.754994
351812961719273,0.16770189,0.048436847,9.774972
351812981575784,0.13810498,0.015040389,9.806842
351813001432168,0.1496354,0.025876366,9.834083
351813021288681,0.15358973,0.034602616,9.801771
351813041145192,0.18411614,0.031193623,9.783688
351813060995207,0.16426337,0.0011032766,9.811883
351813080851592,0.11713012,-0.019177722,9.811998
351813100707975,0.11372284,-1.5025305E-4,9.812803
351813120564359,0.14957583,-0.019321581,9.816966
351813140420872,0.16322169,-0.049948808,9.790838
351813160276110,0.21949913,-0.021727828,9.719384
351813180132494,0.18768835,0.04457874,9.727396
351813199988751,0.07755088,0.027448507,9.75808
351813219845136,0.078110635,-5.002452E-4,9.775144
351813239696827,0.13663721,-0.018961549,9.773578
351813259553084,0.14018908,0.013137185,9.813594
351813279409341,0.14269069,0.003488504,9.834012
351813299265470,0.13651328,0.019437643,9.858319
351813319121727,0.09344813,0.021911731,9.816726
351813338977984,0.08738062,0.0063564437,9.74775
351813358827853,0.10399114,-0.0124726575,9.755359
351813378683854,0.11288557,0.0032194194,9.792868
351813398539855,0.16087186,0.030164285,9.766852
351813418395856,0.13084343,0.049712684,9.751115
351813438251857,0.08464666,0.030085372,9.819981
351813458110758,0.16045932,-0.012445361,9.825149
351813477966759,0.15224884,0.028182903,9.804899
351813497822760,0.055467926,0.04687079,9.762378
351813517678889,0.12682131,-0.0047642607,9.792444
351813537530568,0.14213577,-0.040692095,9.835959
351813557386569,0.09009535,-0.03252129,9.83861
351813577242570,0.11442966,-0.02431114,9.834452
351813597098571,0.136744,-0.0019904813,9.822881
351813616954572,0.14366214,0.014475434,9.821386
351813636810445,0.12066535,0.0026794681,9.815259
351813656669166,0.10955713,0.009845261,9.787722
351813676525167,0.17072387,0.0047121774,9.788677
351813696381168,0.16347672,0.025478037,9.76987
351813716237169,0.12730289,0.0093741175,9.771823
351813736093170,0.12159119,-0.0026159838,9.766886
351813755947099,0.11874781,9.1159786E-4,9.769741
351813775803100,0.117208995,0.030020488,9.784479
351813795658973,0.1370108,0.017074551,9.786038
351813815514966,0.17169394,0.0088047115,9.784589
351813835370966,0.1467826,0.023028886,9.794926
351813855226967,0.105893,0.011320023,9.807047
351813875080633,0.11509881,0.029717948,9.794389
351813894936505,0.11228171,0.014351329,9.788703
351813914792378,0.091660514,0.00861538,9.79594
351813934648249,0.123112835,0.03349277,9.773194
351813954507218,0.10563149,0.018634245,9.781414
351813974363091,0.09494006,0.045509875,9.809666
351813994219090,0.12771907,0.050861847,9.800788
351814014074962,0.13707356,0.06351083,9.7987795
351814033930835,0.09485233,0.05328603,9.798765
351814053787115,0.08431817,0.019660397,9.8093405
351814073643115,0.10499476,-5.4075057E-4,9.795306
351814093499116,0.12963626,-0.008879892,9.781133
351814113355115,0.11109475,-0.051533625,9.792346
351814133207569,0.11691637,-0.023868434,9.824396
351814153063570,0.18503243,0.037767533,9.808721
351814172919918,0.15758209,0.04500627,9.79219
351814192775918,0.12396947,0.017288256,9.797489
351814212631919,0.14456573,-0.010468718,9.804149
351814232487918,0.13216975,-0.04791516,9.838865
351814252350678,0.13995638,-0.0995599,9.836024
351814272206807,0.14833163,-0.08730765,9.797362
351814292062934,0.11467305,-0.0563782,9.834208
351814311919190,0.104729615,-0.018824603,9.817873
351814331775319,0.13681887,-0.02756158,9.738792
351814351627207,0.1235091,-0.057504885,9.764611
351814371483208,0.12369874,-0.043876562,9.776249
351814391339337,0.15324055,-0.0051837973,9.756089
351814411195338,0.1254699,0.023458455,9.751588
351814431051467,0.095704645,0.011376853,9.799734
351814450907468,0.09753,-0.031967513,9.815959
351814470766595,0.12891218,-0.02211472,9.792082
351814490622724,0.120350786,0.02270659,9.816624
351814510478853,0.14306411,0.016706241,9.806522
351814530334982,0.16091305,-0.022272525,9.793717
351814550197059,0.16138892,-0.022826115,9.822944
351814570053316,0.1275645,-0.013948114,9.805213
351814589909573,0.17043877,-0.019072678,9.807559
351814609765830,0.11092163,-0.003571221,9.833747
351814629622087,0.13702525,0.016178489,9.798367
351814649478344,0.18562058,0.021914832,9.781002
351814669337983,0.1260887,0.01344791,9.7771
351814689194240,0.099747404,-0.008391022,9.785358
351814709050625,0.11582141,-0.04545652,9.796957
351814728906882,0.12105194,-0.043814365,9.792977
351814748763139,0.13596588,-0.029192938,9.804199
351814768619878,0.12289002,-0.03803024,9.78913
351814788476244,0.054257825,-0.059605446,9.81073
351814808332501,0.06477294,-0.08125612,9.821706
351814828188884,0.056489334,-0.09342202,9.795086
351814848044148,0.06412066,-0.042126734,9.7709465
351814867900533,0.15527086,-0.017639017,9.779592
351814887756788,0.12688711,-0.03032663,9.790534
351814907613172,0.092069365,-0.028621722,9.756345
351814927469429,0.07542799,-0.047554046,9.780915
351814947325812,0.07665528,-0.064153194,9.830423
351814967174675,0.0775279,-0.08473553,9.86767
351814987030932,0.09434008,-0.07253244,9.832571
351815006887059,0.0770412,-0.05583981,9.817294
351815026743315,0.05770544,-0.042854816,9.796452
351815046599444,0.0624686,-0.032554414,9.793473
351815066455474,0.060507547,-0.02576621,9.796209
351815086311730,0.092448205,-0.056277912,9.782538
351815106167987,0.119885474,-0.06645994,9.780555
351815126024242,0.13783105,2.8450717E-4,9.74856
351815145875739,0.15994357,0.036420245,9.753055
351815165731868,0.11771731,0.048540384,9.7849655
351815185587867,0.06756369,0.033592395,9.822092
351815205443995,0.09265518,-0.005148445,9.838168
351815225300124,0.1311066,-0.02629591,9.819267
351815245156123,0.14784198,-0.02975605,9.843686
351815265011826,0.10389504,-0.050648335,9.844774
351815284867955,0.09255517,-0.051512327,9.791951
351815304724084,0.07026758,-0.026722087,9.757889
351815324580213,0.082671605,-0.02732252,9.757082
351815344436214,0.13663048,-0.018819777,9.748509
351815364291957,0.13461274,-0.02147112,9.7479
351815384148086,0.13357405,-0.025891114,9.7423315
351815404004215,0.13556592,-0.040043283,9.740832
351815423860216,0.12185036,-0.060079955,9.751054
351815443716127,0.08471474,-0.032632194,9.764006
351815463572128,0.10730966,-0.02705562,9.787297
351815483428129,0.09906774,-0.060957626,9.820895
351815503284258,0.06572835,-0.07980349,9.862675
351815523140259,0.10762344,-0.075712435,9.856763
351815542996388,0.1358121,-0.067470774,9.793459
351815562851859,0.052337542,-0.025251426,9.857925
351815582707860,0.12554495,-0.051841233,9.81593
351815602563989,0.19705851,-0.056022897,9.7667675
351815622419990,0.15305318,-0.008810206,9.744712
351815642276119,0.15612617,-0.03181072,9.759304
351815662126310,0.13384563,-0.061279576,9.801272
351815681982183,0.06360167,0.0015720766,9.826292
351815701838056,0.06540763,0.06848898,9.839795
351815721694034,0.13183992,0.053738527,9.805651
351815741549907,0.15770945,0.010015023,9.774327
351815761405780,0.09656475,0.023263076,9.809168
351815781256733,0.07957693,0.038263213,9.82584
351815801112475,0.10432442,-0.017564796,9.86103
351815820968220,0.07538674,-0.031404033,9.85535
351815840823963,0.11244807,-0.030092176,9.775674
351815860681086,0.16445191,-0.07872114,9.720459
351815880536831,0.0816779,-0.074842274,9.760958
351815900392702,0.05329367,-0.05982915,9.795648
351815920248446,0.074828036,-0.04513264,9.790854
351815940104319,0.075162396,0.009441198,9.829603
351815959966560,0.097512595,-0.032640126,9.844271
351815979822432,0.1342234,-0.08958194,9.847893
351815999678305,0.07676892,-0.05118618,9.829887
351816019534178,0.05340993,-0.008087079,9.76122
351816039390051,0.088033594,-0.05174811,9.709591
351816059245924,0.075897515,-0.060376305,9.731193
351816079103815,0.07070242,-0.042269226,9.783835
351816098959810,0.08609696,-0.045385715,9.792951
351816118815683,0.08303912,-0.05327573,9.818356
351816138671554,0.05880467,-0.039881475,9.823888
351816158531299,0.12505034,-0.047391895,9.781311
351816178387428,0.103567824,-0.04042178,9.757234
351816198243427,0.040605895,-0.00914629,9.798799
351816218099555,0.06796394,-0.0283057,9.819782
351816237955684,0.13896024,-0.055434544,9.823908
351816257811333,0.08122671,-0.044757694,9.870665
351816277667461,0.10328004,-0.028028443,9.875927
351816297523590,0.18606716,-0.04901849,9.862949
351816317379717,0.20913991,0.011423519,9.859253
351816337235973,0.095229074,-0.061265398,9.781165
351816357092102,0.024112066,-0.06686499,9.755953
351816376948472,0.11488147,-0.056435265,9.783931
351816396804728,0.11825982,-0.027830726,9.787967
351816416660857,0.117913626,-0.032579076,9.762956
351816436516984,0.124258004,-0.039669763,9.779788
351816456376641,0.14155965,-0.054776967,9.797097
351816476232898,0.13793795,-0.026563304,9.778249
351816496089153,0.12650011,-0.015423713,9.777787
351816515945409,0.10191066,-0.019229902,9.810442
351816535801794,0.09317565,-0.0054906653,9.803757
351816555653825,0.13679509,-0.007406106,9.765374
351816575509953,0.12690428,-0.018137243,9.808025
351816595366210,0.09765159,-0.02509091,9.830157
351816615222337,0.11828605,-0.016877206,9.81213
351816635078465,0.10156863,0.022392163,9.829951
351816654934722,0.08128535,0.0086185485,9.820613
351816674796664,0.12577873,-0.021602586,9.790321
351816694653048,0.10717455,0.0022897704,9.798501
351816714509305,0.09447405,0.0013016711,9.801634
351816734365560,0.07896802,-0.019815171,9.791918
351816754222036,0.06982026,-8.300091E-4,9.773957
351816774078421,0.09402494,-0.028498711,9.787799
351816793934676,0.089167945,-0.041293014,9.77569
351816813790932,0.091482975,-0.030101364,9.745819
351816833647317,0.091816895,0.0016945282,9.774633
351816853503572,0.07164192,-9.114058E-4,9.783733
351816873365363,0.14068072,0.01498479,9.784626
351816893221876,0.12055842,0.018414773,9.843505
351816913078259,0.110609144,0.0061955196,9.852463
351816932934643,0.1266228,-0.03226094,9.844293
351816952791028,0.05762249,0.0013560469,9.850146
351816972646096,0.10717758,0.009750166,9.865461
351816992502480,0.18415296,-0.018540438,9.822904
351817012358865,0.1411725,0.0041891565,9.800838
351817032215248,0.09876074,0.012089748,9.788931
351817052064489,0.1357483,-0.029442545,9.766191
351817071920874,0.11396762,-0.042374898,9.7786665
351817091777129,0.056574393,-0.016036931,9.767308
351817111633385,0.114175335,-0.024355669,9.761541
351817131489770,0.099676624,-0.041328426,9.779324
351817151346025,0.048543897,-0.010942662,9.795813
351817171198723,0.12190635,-0.03619794,9.812279
351817191054980,0.12829338,-0.03576633,9.818073
351817210911235,0.09617397,-0.012034477,9.870528
351817230767491,0.097248994,-0.012270434,9.870518
351817250623748,0.13472062,-0.00477193,9.859698
351817270467755,0.105368726,0.011898855,9.859673
351817290323755,0.11062751,-0.029518962,9.840741
351817310179756,0.10173375,-0.03926284,9.80909
351817330035755,0.086947605,-0.0014701319,9.765141
351817349889455,0.107444495,-0.027018862,9.713912
351817369745328,0.13050972,-0.063639134,9.686347
351817389601199,0.12540507,-0.06458933,9.731557
351817409457071,0.17493986,-0.041152693,9.743409
351817429312944,0.06259655,-5.6175544E-5,9.719424
351817449168815,0.08731337,-0.008639192,9.7612915
351817469023000,0.11098662,-0.06193129,9.844698
351817488878745,0.09233685,-0.059495118,9.839714
351817508734488,0.08449811,-0.06423788,9.855847
351817528590232,0.06978836,-0.04844988,9.877204
351817548446105,0.075377606,-0.030205775,9.840998
351817568302714,0.08015589,-0.035249375,9.83614
351817588158586,0.08416394,-0.0061777863,9.815289
351817608014459,0.14560983,-0.02682471,9.807919
351817627870202,0.12715386,-0.04338518,9.765782
351817647724715,0.11038025,-0.018061224,9.72906
351817667580460,0.068276934,-0.0013430585,9.76595
351817687436203,0.10831266,0.0065152235,9.745504
351817707291947,0.10030749,0.019372698,9.757672
351817727147820,0.088198304,0.031199299,9.757118
351817747003563,0.10951705,-0.018846495,9.7646885
351817766856241,0.08341332,-0.03181582,9.810565
351817786711986,0.051687684,-0.007252584,9.832562
351817806567729,0.059680067,-0.0071127843,9.802041
351817826423473,0.05401537,-0.0086868545,9.842332
351817846279218,0.0607276,-0.031376105,9.875119
351817866131005,0.08820865,-0.05540015,9.827878
351817885986621,0.106147036,-0.03988757,9.8026
351817905842238,0.07488476,-0.036541544,9.817684
351817925697853,0.07423642,-0.055966165,9.811787
351817945553469,0.09469533,-0.043860413,9.773977
351817965409086,0.11207975,-0.03298558,9.750918
351817985265835,0.1120219,-0.04352938,9.754878
351818005121323,0.09019212,-0.036100186,9.723212
351818024976940,0.09118397,-0.037067283,9.732989
351818044832555,0.11900052,-0.038252514,9.744047
351818064692218,0.066024065,-0.04351066,9.777047
351818084547835,0.028117895,-0.04647432,9.836921
351818104403450,0.04076742,-0.038158342,9.851795
351818124259194,0.07782133,-0.03502996,9.852373
351818144114811,0.10177966,-0.046816234,9.842293
351818163975948,0.14676541,-0.062473975,9.805951
351818183833792,0.1248919,-0.023262814,9.785491
351818203689537,0.07422802,0.017882952,9.812943
351818223545152,0.054738317,1.7020683E-4,9.819836
351818243400896,0.092237696,-0.026951527,9.8115425
351818263256641,0.07004616,-0.013007815,9.781225
351818283113920,0.087384455,-0.04820396,9.798137
351818302969664,0.13476646,-0.069429345,9.774628
351818322825537,0.14159583,-0.035320885,9.740922
351818342681280,0.058557194,0.011427385,9.796874
351818362545423,0.04436234,0.009602021,9.821283
351818382401424,0.10483235,-0.006420999,9.807785
351818402257295,0.11061106,0.023553232,9.827351
351818422113295,0.12427772,0.02402903,9.789945
351818441969296,0.12549472,-0.0010395672,9.799277
351818461833265,0.06558453,-0.007850035,9.819404
351818481689521,0.033937898,-0.034389276,9.846245
351818501545778,0.09860891,-0.01464511,9.840417
351818521402033,0.10603887,0.045606975,9.838985
351818541258161,0.108367875,0.09724523,9.772341
351818561114418,0.067438364,0.05858835,9.698855
351818580974062,0.009479828,-0.030443676,9.726099
351818600830446,0.071302705,-0.059467245,9.784193
351818620686831,0.13530041,0.0041961744,9.812674
351818640543086,0.12316564,0.05536188,9.807074
351818660400378,0.11171116,0.03845714,9.832493
351818680256635,0.047235653,0.005044326,9.834426
351818700113018,0.036133625,-0.013396426,9.806584
351818719969402,0.09723257,-0.009155599,9.747084
351818739825787,0.12269092,-0.021113776,9.734391
351818759679604,0.1327794,-0.05106924,9.721678
351818779535988,0.112070605,-0.062421836,9.739372
351818799392245,0.03953797,-0.025231363,9.763644
351818819248628,0.053374622,-0.007818813,9.774977
351818839105012,0.09768342,-0.013821425,9.809815
351818858961269,0.08460356,-0.022367617,9.824073
351818878810783,0.06474921,-0.030151064,9.808415
351818898666911,0.03368046,-0.03526666,9.823417
351818918523040,0.05484234,-0.010849516,9.817085
351818938379167,0.08614777,0.0119304415,9.799673
351818958235185,0.10249062,0.07306427,9.821691
351818978091314,0.14627998,0.079511575,9.801301
351818997947569,0.17102745,0.0035272152,9.782002
351819017803697,0.11771022,0.011372204,9.8278055
351819037659826,0.09213972,0.059532568,9.830893
351819057516081,0.14982066,0.03226771,9.832117
351819077363444,0.05986625,-0.048857514,9.803273
351819097219445,0.018033106,-0.05965866,9.784479
351819117075572,0.08659022,-0.06215104,9.793982
351819136931572,0.10372712,-0.034994043,9.7579975
351819156787573,0.080975935,-0.007896978,9.764223
351819176642426,0.12547408,0.014299567,9.7796545
351819196498554,0.07805028,-0.02937009,9.792427
351819216354555,0.086691394,-0.0011305771,9.773125
351819236210554,0.12048192,0.0023743862,9.773576
351819256059861,0.10393829,-0.029324837,9.80833
351819275915734,0.097745374,-0.014054724,9.836836
351819295771605,0.086398326,0.003225183,9.840864
351819315627477,0.11621814,0.008498307,9.800672
351819335483350,0.13289042,-0.0064877965,9.792588
351819355339221,0.06948256,-0.01208615,9.83215
351819375188626,0.07301919,-0.009131955,9.813444
351819395044243,0.10202704,-0.004776419,9.789977
351819414899986,0.07545401,-0.012824948,9.779189
351819434755602,0.1155866,-0.040571872,9.773352
351819454611347,0.20017001,0.004375346,9.780755
351819474465800,0.11969713,0.024526296,9.781139
351819494321416,0.06130526,-0.016200198,9.813334
351819514176905,0.13421027,-0.08293504,9.784897
351819534032520,0.09866006,-0.025906961,9.798065
351819553890275,0.065580145,0.061073862,9.772698
351819573745892,0.11460363,0.061246045,9.789295
351819593601379,0.12743714,0.006368142,9.810302
351819613456995,0.10429095,-0.031116067,9.85385
351819633312612,0.114475705,-0.0024364851,9.856808
351819653168227,0.10763894,0.0061834566,9.816363
351819673025952,0.08251204,0.019295532,9.838523
351819692881569,0.105772935,0.019786166,9.82165
351819712737184,0.1448336,-0.01197399,9.800384
351819732592800,0.08625082,-0.0012318378,9.8093
351819752448417,0.06886845,0.05457576,9.751602
351819772306281,0.10585407,0.049491826,9.72863
351819792161897,0.12953416,0.012072566,9.792682
351819812017642,0.098145,-0.013186672,9.792745
351819831873257,0.07315799,-0.050119206,9.782999
351819851727776,0.049679484,-0.0074004144,9.817437
351819871583393,0.04479703,0.036954436,9.857361
351819891438882,0.058769833,0.033186715,9.844578
351819911294499,0.0338711,-0.004739961,9.842003
351819931150116,0.06958047,-0.05912325,9.852191
351819951005728,0.08742719,-0.07300087,9.84393
351819970873699,0.119310014,-0.0030334755,9.80919
351819990729572,0.1294691,0.025548225,9.811032
351820010585443,0.09438989,-0.023873646,9.767669
351820030441315,0.10859063,-0.03521901,9.7571535
351820050297188,0.08179314,0.0152563555,9.761729
351820070157210,0.09054627,-0.008432171,9.735532
351820090013210,0.10080804,-0.09395888,9.735276
351820109869211,0.102189675,-0.06804716,9.77101
351820129725082,0.09216189,-0.059312373,9.790146
351820149581082,0.078450136,-0.040856,9.795832
351820169437083,0.08370556,-0.03488585,9.821401
351820189285570,0.057220083,-0.064268,9.85629
351820209141571,0.05298565,-0.08812989,9.821123
351820228997572,0.060421918,-0.112102285,9.829479
351820248853445,0.036166888,-0.11231894,9.825044
351820268708982,0.064807504,-0.1252351,9.778981
351820288564983,0.07757231,-0.087335594,9.793973
351820308420984,0.09336861,-0.08052741,9.804253
351820328276985,0.10096557,-0.13873345,9.7513275
351820348132986,0.039772365,-0.10948693,9.781912
351820367995441,0.01645994,-0.03469887,9.834611
351820387851570,0.08250614,-0.0880988,9.826519
351820407707699,0.076011516,-0.062770694,9.801308
351820427563956,0.07321297,-0.0010945587,9.774802
351820447420085,0.09335049,-0.06395472,9.777678
351820467276214,0.07955476,-0.07780677,9.796892
351820487136305,0.027062535,-0.014440972,9.822198
351820506992562,0.068253376,-0.021885194,9.86372
351820526848819,0.10682437,-0.025824562,9.83663
351820546705076,0.088686794,-0.014197766,9.818855
351820566557965,0.05908559,-0.015524314,9.825603
351820586414222,0.06582162,-0.059060924,9.792188
351820606270479,0.06478105,-0.05250422,9.787212
351820626126736,0.07312345,0.016943796,9.784757
351820645982993,0.09091064,-0.030242383,9.755749
351820665839229,0.07921257,-0.05807875,9.743597
351820685694358,0.061353065,-0.053633872,9.764743
351820705550615,0.05556763,-0.042808346,9.768702
351820725406744,0.07256577,-0.03259987,9.767079
351820745262873,0.062546544,-0.001454496,9.780282
351820765119130,0.025715223,-0.03607994,9.802297
351820784973523,0.017322497,-0.030014874,9.798126
351820804829651,0.036644667,-0.04658447,9.818138
351820824685780,0.072902456,-0.07881686,9.814205
351820844541907,0.08228235,-0.08669489,9.817523
351820864394012,0.060516775,-0.018047022,9.834862
351820884250141,0.053145435,-0.012624959,9.814203
351820904106140,0.051988017,-0.049467776,9.778559
351820923962268,0.057501674,-0.053460002,9.769622
351820943818269,0.04858899,-0.07323021,9.769875
351820963674268,0.07966887,-0.07990831,9.748391
351820983525514,0.05807756,-0.027127117,9.761011
351821003381387,0.030468384,-0.031184327,9.758341
351821023237388,0.070726044,-0.07135272,9.761872
351821043093261,0.030706665,-0.007888275,9.832175
351821062949262,0.04835386,-0.017153902,9.876451
351821082796115,0.100956686,-0.07416674,9.862305
351821102651731,0.07382962,-0.08171802,9.8450365
351821122507476,0.012678447,-0.033628814,9.811343
351821142363219,0.040543843,-0.06775299,9.829192
351821162223754,0.09094267,-0.10188076,9.83453
351821182079627,0.037954368,-0.054758992,9.887729
351821201935498,0.10337898,-0.055179264,9.838841
351821221791242,0.143993,-0.07754159,9.735956
351821241647115,0.09937401,0.0030081507,9.740625
351821261502858,0.073538885,-0.011622166,9.759771
351821281356365,0.06329132,-0.1062934,9.735729
351821301212238,0.063435264,-0.024993151,9.806319
351821321067981,0.08855763,0.025297007,9.860929
351821340923725,0.13094603,-0.062129818,9.85331
351821360779470,0.0916369,-0.027478017,9.837016
351821380631339,0.031981625,0.034308434,9.861329
351821400487084,0.068818666,-0.060590193,9.776232
351821420342701,0.08331668,-0.063018635,9.732572
351821440198446,0.029541466,-0.0013841437,9.7068205
351821460055215,0.05711493,-0.067484096,9.744746
351821479910832,0.04011942,-0.06807472,9.778155
351821499766447,0.04157914,0.00508258,9.767908
351821519622063,0.04482106,-0.017635617,9.8145685
351821539477808,0.0046547004,-0.06760602,9.816126
351821559333423,0.016416747,-0.074362054,9.84049
351821579193196,0.03957687,-0.060340483,9.825954
351821599048941,0.11268252,-0.05195837,9.807867
351821618904684,0.11826056,-0.024486315,9.789884
351821638760556,0.10461856,-0.00699713,9.789995
351821658616301,0.09773341,-0.06951938,9.753574
351821678474292,0.13882811,-0.1177803,9.757042
351821698330036,0.1291101,-0.05883544,9.790804
351821718185909,0.10096765,-0.084869206,9.7726
351821738041780,0.07481156,-0.058574762,9.84416
351821757897652,0.08165032,-0.031948846,9.822523
351821777753397,0.12912503,-0.04059529,9.793879
351821797606511,0.092172004,-0.018290887,9.791491
351821817462255,0.11309534,-0.051878016,9.795469
351821837318000,0.08906871,-0.030811526,9.768479
351821857173743,0.10142899,-0.07169103,9.746574
351821877032779,0.10203849,-0.083901435,9.7838955
351821896888524,0.060394306,-0.017434614,9.791271
351821916744267,0.10254337,-0.049431283,9.7895775
351821936600011,0.09342512,-0.0025224292,9.80966
351821956455756,0.025815248,0.031042017,9.803013
351821976320051,0.010959752,-0.022632854,9.8322
351821996176052,0.042803857,-0.031471092,9.854229
351822016031925,-0.008981875,0.015745798,9.838927
351822035887926,0.01590282,0.011561311,9.847885
351822055743927,0.06852841,-0.025398662,9.808023
351822075599800,0.035114184,-0.06451174,9.782044
351822095461977,0.06489395,0.006442779,9.8586
351822115318099,0.07770509,-0.044414256,9.779476
351822135174228,0.08530242,-0.010141929,9.766322
351822155030355,0.071448654,0.013268171,9.783228
351822174885541,0.12621653,-0.03969424,9.7562475
351822194741670,0.086144686,-0.026031477,9.761875
351822214597797,0.09145654,-0.011747222,9.762222
351822234453925,0.094652936,-0.038301636,9.789179
351822254310054,0.037757214,-0.024768153,9.81799
351822274164780,0.043812018,-0.025481775,9.84497
351822294020908,0.05220746,-0.04086612,9.771238
351822313877037,0.04956971,-0.040026516,9.846393
351822333734378,-0.017244328,-0.02549047,9.830409
351822353590507,0.0034927542,-0.039337732,9.759418
351822373446636,0.009088521,-0.007296981,9.756419
351822393299607,-8.324797E-4,-0.04318012,9.817404
351822413155608,-0.0083905645,-0.049396433,9.794269
351822433011737,0.0019464538,-0.0075518503,9.784359
351822452867866,0.032702845,0.024300002,9.847327
351822472728541,0.045713652,-0.01674382,9.807986
351822492584670,0.05044773,-0.042948797,9.79315
351822512440927,0.04160699,-0.05809249,9.794652
351822532297184,0.016646812,-0.13192677,9.774048
351822552153313,0.01203415,-0.11466863,9.779596
351822572009570,0.026393581,-0.041965466,9.810413
351822591864273,0.034767356,-0.05628647,9.829875
351822611720530,0.015435191,-0.09131458,9.80593
351822631576659,0.030083539,-0.08856814,9.8281765
351822651432916,0.022138486,-0.10733526,9.825153
351822671289045,0.07030706,-0.08934745,9.816484
351822691147332,0.07915887,-0.044618506,9.796368
351822711003461,0.10299165,-0.050527927,9.815956
351822730859718,0.09477719,-0.08436943,9.850295
351822750715847,0.090576366,-0.083803535,9.827465
351822770566221,0.09547651,-0.02093092,9.854512
351822790422350,0.044102356,-0.01856001,9.834631
351822810278477,0.055332407,-0.034380663,9.757611
351822830134477,0.07877111,-0.056608245,9.756066
351822849990606,0.111051485,-0.1094992,9.74989
351822869846733,0.064296044,-0.12217738,9.744588
351822889697333,0.02274128,-0.052131,9.741547
351822909553334,0.058273222,-0.060166195,9.756241
351822929409333,0.08796006,-0.104912184,9.804715
351822949265333,0.04797569,-0.032504756,9.822927
351822969121206,0.06444272,0.003044865,9.80994
351822988973542,0.089480095,-0.057942484,9.847976
351823008829414,0.07341163,-0.09367447,9.849683
351823028685287,0.057414766,-0.10333965,9.861683
351823048541158,0.067928486,-0.07359426,9.782709
351823068389929,0.10406451,-0.03534999,9.7930765
351823088245674,0.10103791,-0.04008633,9.800056
351823108101417,0.057404365,-0.09153669,9.775022
351823127957033,0.028781768,-0.08435619,9.754709
351823147812778,0.0616595,-0.067652725,9.794708
351823167668521,0.04418343,-0.063151516,9.815338
351823187519956,0.03178922,-0.06275321,9.849645
351823207375573,0.0785508,-0.043557893,9.802435
351823227231188,0.09547814,-0.041042086,9.813385
351823247086804,0.042882908,-0.038783457,9.7858715
351823266942421,0.019114926,-0.050421137,9.7494
351823286797254,0.004358122,-0.040297724,9.795103
351823306652743,0.046318248,-0.050980587,9.772113
351823326508360,0.0803655,-0.07357389,9.747698
351823346363849,0.08543735,-0.050430205,9.743456
351823366218498,0.05500965,-0.03834143,9.690541
351823386073859,0.029658297,-0.068308204,9.671172
351823405929348,0.04386018,-0.059275497,9.661708
351823425784837,0.103763275,-0.060319748,9.627565
351823445640326,0.13984495,-0.07078137,9.659604
351823465495815,0.09428351,-0.06398909,9.686814
351823485357576,0.07144379,-0.08788131,9.675193
351823505213193,0.06464585,-0.08260323,9.6688175
351823525068810,0.058671303,-0.0029035,9.663793
351823544924427,0.09070389,-0.05452453,9.651683
351823564780044,0.060418982,-0.08918662,9.626492
351823584640161,0.05141042,-0.08319736,9.578078
351823604495778,0.08479817,-0.07117496,9.557831
351823624351523,0.13289957,-0.024769789,9.579147
351823644207268,0.07935972,0.0037638755,9.589678
351823664063013,0.049457617,-0.031194171,9.589023
351823683918630,0.086904004,-0.056426544,9.567795
351823703776923,0.10444264,-0.059847165,9.571454
351823723632647,0.090975404,-0.07845295,9.606588
351823743488392,0.067834094,-0.06380336,9.540293
351823763344265,0.06699487,-0.021534795,9.5044155
351823783156103,0.07144637,-0.0041723284,9.534039
351823803011080,0.085111886,-0.035697173,9.525677
351823822866055,0.08741467,-0.065045945,9.496983
351823842720903,0.04391488,-0.028875526,9.467112
351823862575880,0.053660117,-0.05020836,9.459885
351823882441955,0.05179809,-0.07016002,9.501067
351823902297059,0.0699097,-0.08033833,9.502275
351823922152164,0.10937596,-0.055851504,9.453312
351823942007267,0.09250299,-0.04982814,9.358797
351823961862371,0.053162,-0.08687709,9.271293
351823981717348,-0.0029098426,-0.060127154,9.310511
351824001577340,-0.051555637,-0.011348383,9.338632
351824021432444,0.005966536,-0.0967558,9.341754
351824041287549,0.018735187,-0.10769276,9.357036
351824061142652,0.029118797,-0.053924277,9.41951
351824081012269,0.0070627374,-0.08279932,9.409332
351824100867630,0.0059211478,-0.06740619,9.312831
351824120722989,0.031454623,-0.040003918,9.263915
351824140578477,0.026767854,-0.05803825,9.3004055
351824160433838,-0.0035867998,-0.08609628,9.255208
351824180300231,0.015830848,-0.10253379,9.232087
351824200155847,0.022267291,-0.059980698,9.240669
351824220011464,-0.0036167002,-0.065016314,9.268268
351824239867079,0.004433572,-0.09801028,9.245736
351824259722695,0.0043669106,-0.061300304,9.256113
351824279578312,0.0109818,-0.031418208,9.279297
351824299446641,8.048456E-5,-0.046548378,9.245991
351824319302514,-0.03289732,-0.10134189,9.19143
351824339158515,-0.061143767,-0.085049905,9.270778
351824359014512,-0.024197761,-0.026671056,9.327751
351824378874975,-0.009808829,-0.08465545,9.280935
351824398730976,0.03252796,-0.014457822,9.19086
351824418586975,0.04796866,-0.011482613,9.211115
351824438442975,-0.002017766,-0.073686786,9.312096
351824458299104,-0.02025766,-0.10330245,9.23419
351824478165032,0.0076285657,-0.10128228,9.13554
351824498021288,0.02410534,-0.10890583,9.213357
351824517877545,0.018507265,-0.079162486,9.310032
351824537733800,0.0016726878,-0.027835762,9.240632
351824557590056,-0.0023082779,-0.05497491,9.189911
351824577446313,-0.00391176,-0.10218864,9.2552805
351824597303616,-0.015175607,-0.08155494,9.331683
351824617159871,0.016829116,-0.045844104,9.305436
351824637016256,1.2902073E-4,-0.1044952,9.182548
351824656872639,-0.029712738,-0.1130172,9.1565075
351824676726317,-0.07247398,-0.07845238,9.229435
351824696582574,-0.06290084,-0.016070554,9.236857
351824716438829,-0.05423187,-0.0242737,9.208539
351824736295213,-0.07260162,-0.020311717,9.183587
351824756151470,-0.06376551,0.011357849,9.214026
351824776005369,-0.07603699,0.027996778,9.2118025
351824795859609,-0.06888148,0.062784016,9.268264
351824815715866,-0.07690904,0.057617616,9.259593
351824835572121,-0.09989508,-0.0054188566,9.20381
351824855428377,-0.041887008,-0.0706753,9.176363
351824875284762,-0.021487942,-0.09551702,9.2295885
351824895139573,-0.056026924,-0.02239194,9.266998
351824914995957,-0.08572903,0.018478375,9.254738
351824934852214,-0.08856768,-0.03951715,9.161052
351824954708469,-0.08484486,-0.06654677,9.126547
351824974567384,-0.118600085,-0.020837452,9.191748
351824994423769,-0.077887125,-0.018034456,9.29514
351825014280154,-0.034872115,-0.05191609,9.2762375
351825034136535,-0.03911681,-0.10915911,9.20684
351825053992792,-0.11222074,-0.14463255,9.222716
351825073849175,-0.048126373,-0.12634617,9.212751
351825093702641,0.022077315,-0.19341756,9.292281
351825113559026,-0.0026992024,-0.23917353,9.318735
351825133415537,0.0450281,-0.1877371,9.170523
351825153271921,0.013400836,-0.1566584,9.191478
351825173128306,-0.06663296,-0.24233848,9.336598
351825192987112,0.0729629,-0.1933727,9.182073
351825212843752,0.06535724,0.0040208874,9.1467495
351825232700265,-0.37592283,-0.03802813,9.24518
351825252556776,-0.0432757,-0.043858767,9.297147
351825272406089,0.27417615,-0.041683104,9.208506
351825292262602,-0.11036147,-0.15351728,9.198063
351825312118985,-0.15644126,-0.034314197,9.199921
351825331975498,0.02406405,0.11178724,9.171326
351825351832011,-0.0723734,0.06277403,9.169098
351825371688524,-0.20553306,0.074695796,9.215107
351825391515823,-0.1019668,0.12648377,9.228768
351825411371312,-0.08565276,0.11967761,9.202695
351825431226795,-0.119162336,0.09164652,9.235903
351825451082283,-0.1022115,0.040512893,9.227413
351825470937772,-0.087751694,-0.0066137817,9.199242
351825490799415,-0.14528713,-0.036095615,9.183881
351825510655031,-0.10567831,-0.10551782,9.200015
351825530510648,0.0289444,-0.06086745,9.204122
351825550366263,-0.040500376,-0.22700702,9.355931
351825570214790,-0.06612492,-0.272502,9.194622
351825590070151,-0.22647743,0.052265167,9.199829
351825609925510,-0.07287361,0.13202085,9.173041
351825629780998,-0.017651225,0.043437876,9.344564
351825649636359,0.10819547,-0.16919929,9.082394
351825669491846,-0.41382936,-0.18681116,9.168051
351825689350157,-0.0723986,-0.17389761,9.549858
351825709205646,-0.0067529557,-0.22525632,9.222574
351825729061135,-0.43507582,-0.010424957,9.149745
351825748916620,-0.40008995,0.4013088,9.442503
351825768771981,0.07575037,0.20530169,9.450419
351825788630900,0.20760514,-0.016015839,9.113356
351825808486388,0.13512418,-0.11905942,9.216678
351825828342005,0.4654725,0.009837447,9.163203
351825848197492,0.32255104,0.22144008,9.075257
351825868052980,-0.11934477,0.07782117,9.112765
351825887908597,0.012721602,0.0018840185,9.208539
351825907764602,0.5763282,0.22403306,9.220556
351825927620218,0.3412648,0.021937918,9.431896
351825947475707,-0.3502262,-0.43449333,9.564267
351825967331194,-0.26708004,-0.23053321,9.474797
351825987192571,-0.39576823,-0.11541507,9.277306
351826007048316,-0.64896595,-0.38722768,9.317486
351826026903933,-0.18703607,-0.19375052,9.485819
351826046759550,0.31068248,0.11349678,9.434003
351826066615295,-0.011518215,0.11287808,9.277888
351826086472618,-0.24566403,0.14391676,9.382157
351826106328357,0.031084463,0.008134231,9.625018
351826126184102,0.05148963,-0.29256573,9.46613
351826146039845,-0.10908728,0.008869862,9.476487
351826165895589,-0.03976466,0.09971294,9.561948
351826185751334,0.020653745,-0.14898355,9.432925
351826205610539,0.07974046,-0.34548837,9.569054
351826225466283,0.25103945,-0.39682797,9.549747
351826245322156,0.005689071,-0.41859478,9.352931
351826265178027,0.010926066,-0.279458,9.457927
351826285031191,-0.5435498,-0.24175696,9.618215
351826304886936,-0.45358595,0.07464748,9.220878
351826324742679,-0.098943576,0.55097646,9.344047
351826344598551,-0.30420047,0.5500285,9.490649
351826364454296,-0.63486487,0.076383494,9.34421
351826384314589,-0.5139621,-0.22722937,9.9170685
351826404170462,-0.2853097,0.90281945,9.842351
351826424026335,-0.29105422,1.4435196,9.486373
351826443882080,-0.106408276,2.2016442,9.884684
351826463737953,0.8060031,2.2264454,9.897077
351826483593698,1.0436686,0.2950751,8.917451
351826503455173,0.87268496,-1.3828819,8.928731
351826523311046,-2.3458526,-3.817292,6.941134
351826543167047,-3.836369,-6.814793,7.514688
351826563022920,2.481703,-2.6520717,12.155063
351826582878609,1.2631626,-2.5012493,10.682723
351826602734610,1.2524983,-3.8157215,9.52496
351826622590611,3.4193335,-0.7933482,10.005956
351826642446612,6.013722,1.2598335,12.162062
351826662302485,-3.5735126,-0.59265476,6.5455813
351826682158486,-0.45251256,-2.8560967,8.465048
351826702023141,2.883145,-2.5323398,12.703674
351826721879270,3.637785,-0.5047341,13.345214
351826741735399,4.6099014,3.2722511,13.013143
351826761591511,-1.4955728,2.1783857,7.592101
351826781447640,-3.0484931,1.0517601,6.468859
351826801302531,-1.5510292,2.9302602,7.510066
351826821158787,-2.5426457,1.4170908,7.4566355
351826841014916,-1.4050158,-0.7999286,8.976121
351826860871043,0.5504519,0.9033031,10.871689
351826880718626,0.7754381,1.3385615,10.432986
351826900574627,0.9343689,0.62488043,8.807733
351826920430626,1.1391491,0.34867293,8.925965
351826940286626,0.09201285,-1.9671395,9.789973
351826960142499,-1.24012,-7.284353,10.376568
351826979998498,-0.6952165,0.059597086,11.80431
351826999853493,1.8423603,2.7562146,12.28744
351827019709366,2.9992402,0.55774647,11.58247
351827039565239,2.1609218,-1.6369992,11.080446
351827059421236,1.6345522,-0.43577662,10.97389
351827079277109,1.3391827,0.8591337,11.342828
351827099127878,1.1400598,0.17566016,12.337988
351827118983750,0.21380767,-0.29389897,12.349063
351827138839623,0.12872726,0.22147278,11.548085
351827158695494,0.82708323,0.3019951,11.3774605
351827178545003,1.2010665,-0.27076668,11.056166
351827198400748,0.9389017,-0.6351144,10.477686
351827218256363,1.1877098,-0.8938346,9.472561
351827238112107,1.0981518,-0.746896,8.620044
351827257967852,0.29151118,0.38335755,9.227044
351827277823467,6.5573235,1.5877047,7.460909
351827297678578,9.357218,0.5036849,8.3277445
351827317534195,6.6796823,0.46056965,10.083991
351827337389940,6.2543764,0.64080936,9.211365
351827357245557,8.809195,2.27647,6.533906
351827377101302,3.9542875,3.0731337,8.86047
351827396960885,-2.0967364,4.9760895,11.869582
351827416816630,12.132679,5.9126554,4.8059006
351827436672375,7.2250066,7.3041506,8.399453
351827456528120,-1.2725949,4.213944,12.8504305
351827476388055,-0.4895247,2.728198,10.55406
351827496243928,-0.43049335,4.4416113,7.6838427
351827516099673,-4.954662,1.9961457,13.002437
351827535955418,-10.275385,0.23514977,14.5608015
351827555811291,-7.4277015,-2.7606578,11.97025
351827575667036,-0.09691039,-1.6147981,8.777733
351827595522555,5.383105,0.89995503,7.826143
351827615378300,7.543034,1.0283473,7.621215
351827635234173,3.7714083,0.23887078,8.4564
351827655089918,-0.88043636,0.4476886,9.663932
351827674945791,-2.4976566,0.8425907,10.46701
351827694798072,-2.90367,1.4704438,8.818685
351827714653817,-1.9306514,1.9460762,5.828265
351827734509434,-2.8725927,2.952792,4.7701015
351827754365158,-0.5409409,2.9886513,6.098132
351827774220902,-0.7039179,2.9000978,6.566245
351827794076647,-1.0776902,1.8950038,7.559015
351827813927459,-0.7792499,-4.098397,7.3801975
351827833783075,1.203809,1.4583187,6.201971
351827853638692,-0.051053543,5.375293,5.801388
351827873494307,-1.3309371,1.3784288,8.3767185
351827893347205,-2.1036823,-1.926073,11.028096
351827913202694,-1.9505278,-5.249349,9.879978
351827933058309,2.1235504,-4.367582,8.23229
351827952913797,0.22424686,1.9323742,5.2410383
351827972769286,0.17481893,-0.19584806,5.1073594
351827992621031,1.3478186,-2.7042744,9.081804
351828012476519,-0.5189958,-2.9742732,12.304854
351828032332008,2.29289,-0.21785012,7.0159793
351828052187367,0.15770751,0.6228324,8.992283
351828072042855,-1.7480823,-0.44426224,12.055974
351828091898216,-0.7993794,-1.0282718,11.940528
351828111758726,-1.5738444,-0.73965824,12.487815
351828131614214,-0.9486138,1.1750753,10.641816
351828151469831,1.3072777,0.9398295,8.767601
351828171325318,0.7687765,1.6585051,9.1746645
351828191189794,0.17852284,0.05585408,9.730957
351828211045411,0.34200466,0.13269326,9.826798
351828230901154,0.5555689,-0.57876956,9.643799
351828250756770,0.30334827,-0.18483168,10.357349
351828270612515,-0.3593893,0.9395693,9.941371
351828290473614,0.46306884,-0.2924932,9.440974
351828310329487,1.0325714,-0.6555956,9.458726
351828330185360,1.3086629,-0.1562118,8.808333
351828350041233,1.7412177,0.25943103,7.770135
351828369897234,1.2201293,-0.20484807,8.383812
351828389753107,0.63246405,-0.67613596,9.845148
351828409615970,-0.07060028,-1.4964507,10.666848
351828429471971,0.19978264,-1.6330378,10.4116745
351828449327972,-9.752101E-4,0.116580635,10.136269
351828469184101,1.3537583,-0.44742465,10.699145
351828489024819,1.9012375,-0.39688724,9.790001
351828508880564,1.0046519,0.32615772,8.657381
351828528736307,0.31909797,0.81522757,8.505802
351828548592051,0.21554004,0.61597085,9.914596
351828568447796,0.3588569,0.88211066,11.787444
351828588303539,-0.30387205,0.2391313,13.374885
351828608119903,-1.1376358,0.5467808,12.455941
351828627974880,-0.12734348,2.2750018,8.461159
351828647829855,2.0984557,2.385458,5.0373983
351828667684959,0.24008688,2.078294,6.3887954
351828687539936,-0.9247123,1.0722647,9.207871
351828707407821,0.001200121,-0.74625057,9.676988
351828727263053,0.6262663,-1.9413261,9.4379225
351828747118158,0.47020212,-4.7314196,11.159485
351828766973389,1.4593946,-5.517391,10.405649
351828786835154,0.72161,-1.6769933,9.575662
351828806690387,-3.8152301,6.232268,15.022561
351828826545618,-1.4392538,5.5283246,13.189652
351828846400722,-0.38405597,0.87956065,8.688692
351828866255955,0.30434814,-1.3621206,7.740371
351828886111058,-0.36196724,2.0996516,10.3911085
351828905971124,-2.7801287,2.7662413,12.721313
351828925826357,-3.1297593,0.59169096,11.811701
351828945681716,-1.9128958,-0.2710806,12.238593
351828965536948,-1.0717539,0.11562293,11.0423355
351828985392181,0.14571676,0.8596006,8.998797
351829005242964,0.45937765,1.4833918,7.982701
351829025098196,0.257295,2.418491,9.120808
351829044953301,0.21995568,1.8048346,8.615298
351829064808532,0.32645258,0.89268714,8.10483
351829084672499,0.061418414,0.7928259,9.142241
351829104527860,-0.69662803,0.060994137,10.950736
351829124383219,0.084079385,-0.018333033,11.122952
351829144238579,0.7936845,0.033320874,9.662703
351829164093940,0.5307602,-0.22077678,9.368598
351829183949427,0.5069045,-0.492552,10.115582
351829203807439,0.72240156,-0.99978507,10.542232
351829223662928,0.9001111,-1.1505065,10.123199
351829243518287,1.0254011,-0.44246832,8.815802
351829263373775,0.85240763,0.2262006,8.237765
351829283229136,0.4883362,0.15342,8.9538355
351829303085926,0.30556306,-0.5871567,9.576195
351829322941414,0.69516426,-0.7813626,9.557244
351829342796903,0.9727327,-0.7557137,9.258838
351829362652390,0.893441,-0.5563319,8.822809
351829382507814,0.8302729,-0.3632606,8.735878
351829402363175,0.6551243,-0.41054,9.2744665
351829422218662,0.5283792,-0.48550975,9.679141
351829442074022,0.58328396,-0.41327417,9.7181635
351829461929511,0.6186965,-0.41055912,9.698255
351829481784870,0.5955156,-0.38224402,9.736167
351829501643430,0.42904258,-0.09616326,9.787712
351829521498919,0.24834342,0.1522693,9.567202
351829541354406,0.38983855,0.035882298,9.401081
351829561209894,0.48994496,-0.11885167,9.538735
351829581065383,0.39782026,-0.23594156,9.794267
351829600925350,0.1748644,-0.37354267,10.18498
351829620780966,0.0024381117,-0.26456767,10.372545
351829640636455,0.19696598,-0.2995559,10.241833
351829660492070,0.42740297,-0.33689457,9.990536
351829680347558,0.2174435,-0.0712624,9.7526865
351829700203047,0.29373014,0.13210556,9.490191
351829720069135,0.6452221,-0.16707587,9.544655
351829739925007,0.5554183,-0.38582528,9.953643
351829759780752,0.08871893,-0.19777527,10.204499
351829779636495,0.07528862,-0.118801355,10.014824
351829799501547,-0.38812482,0.7555075,9.46751
351829819357548,0.124076046,0.23507605,9.410665
351829839213675,1.2704777,-0.69835794,9.156431
351829859069803,1.5736858,-0.732502,8.870291
351829878925804,0.5360534,-0.09959543,9.49895
351829898789636,-0.78980964,-0.347714,11.173214
