UPTIMENANO,Ax,Ay,Az
841585192999,1.2112962,0.1800546,8.870254
841605050664,1.1297449,0.2294393,8.879023
841624908455,0.6164441,0.27805406,8.843688
841644776810,0.14044374,0.11265522,9.152156
841664634731,-0.19053961,-0.2835426,9.844918
841684496061,-0.20452794,-0.49715748,10.392006
841704353981,0.16732666,-0.30705324,10.298965
841724211902,0.48792726,-0.038761806,10.13799
841744069949,0.36993903,0.4262538,9.72362
841763942309,1.0242447,0.36875206,9.608891
841783800614,0.61889803,0.4021451,9.910202
841803658917,0.6351711,0.3348127,10.050385
841823517221,1.0703557,0.4824311,9.796272
841843375526,0.75239867,0.53446645,9.652304
841863240218,0.83547425,0.38583356,9.72802
841883098650,0.111715905,0.18804505,10.174707
841902957211,1.0428423,0.49132678,9.480037
841922815770,0.33605242,0.56329876,9.374365
841942681454,-0.28319052,0.62770206,9.374022
841962540143,0.304067,0.42643863,9.295843
841982398830,0.24277501,0.085283816,9.4678545
842002257518,-0.29062292,-0.42644736,10.046529
842022116207,0.48846537,-0.3837271,10.615163
842041974894,0.3392023,-0.29791144,10.720703
842061823508,0.1274009,-0.033967353,10.409303
842081682069,0.13193491,0.1455262,10.441678
842101540628,-0.052878972,0.38036352,10.329011
842121399188,-0.09700682,0.7691384,9.387442
842141257749,0.02958368,0.98160297,9.1235695
842161123909,-0.058890432,0.97770035,9.434278
842180982597,-0.60043865,1.0215081,9.732487
842200841414,-0.8206106,0.8797243,10.023631
842220700101,-0.115602806,0.8541155,9.824398
842240562044,0.73157734,0.63799477,9.92674
842260420861,0.49286142,0.4396123,10.134796
842280279804,0.7223271,0.465654,9.871843
842300138748,2.1159225,-0.008917665,9.866795
842319997693,1.6973422,0.11349256,9.65639
842339856636,-0.11571879,0.62296134,9.313765
842359713398,-3.3153095,1.8675041,9.064643
842379572471,-4.9638276,2.6603396,9.201352
842399431542,-3.067397,1.6108923,10.620756
842419290614,0.18012716,0.22782272,11.074396
842439149687,0.026796898,0.68574816,10.009148
842459005905,-0.16099899,0.8573063,9.048276
842478864977,0.31793773,1.1185867,8.44855
842498724050,-0.12794511,1.8767248,8.977301
842518583249,-1.1178296,0.6698385,11.072946
842538414114,-0.70202714,-0.064648,10.785922
842558272291,-1.6313058,0.8002674,11.05193
842578130466,-0.8090791,0.6797663,12.317852
842597988514,-0.13231063,0.8192056,10.959358
842617846691,-0.17998411,1.3898839,9.850472
842637704866,0.09402091,1.2006822,10.257425
842657555484,-0.098614454,0.022290137,11.399108
842677413405,-0.079135366,-0.43055198,11.697967
842697271324,1.0960869,-0.11874587,11.055712
842717129372,1.3333105,0.060327057,10.0610075
842736987293,1.7339252,0.78981596,8.596732
842756851892,3.123791,1.0927576,7.8228116
842776709940,3.7498634,1.4532773,5.533576
842796567989,-1.0829018,0.21531698,5.955286
842816426036,-2.001643,-1.2263128,8.552241
842836284212,1.020362,-1.5323256,9.929394
842856142261,2.3673687,-1.6442465,10.341289
842875988215,3.0848198,-0.63091403,9.636078
842895846007,3.483167,0.6925605,7.847533
842915703800,2.573413,1.8372921,6.4675813
842935561591,0.840783,2.0050354,6.0439615
842955418303,-0.5902606,1.7921579,6.480943
842975275968,-0.81567436,1.2499719,7.484316
842995133631,0.49283436,0.63890314,8.414365
843014991295,0.8002351,0.07283351,9.180542
843034849088,0.61832416,-0.8039435,10.011416
843054706056,0.8159141,-0.631961,11.105371
843074563720,1.6175448,-0.68532336,11.753198
843094421513,1.8776616,-0.7056595,11.598772
843114279176,0.6172889,0.23417827,11.154012
843134136968,-0.9886003,0.413141,10.74064
843153994633,-1.6557009,0.42335182,9.743571
843173852174,-9.513076,1.1403832,3.387925
843193709838,-1.3873767,4.1010914,2.868214
843213567503,7.4108114,-2.904043,9.324537
843233425166,1.9578608,-2.167707,9.231158
843253288556,-0.7758924,-0.09945204,9.1997795
843273146349,-0.4774161,-0.55922276,8.808903
843293004140,2.207248,0.21053922,9.503238
843312861932,4.5664124,1.5525414,6.303408
843332719597,5.1850653,1.9935005,4.0213733
843352577425,2.8104227,0.9836994,7.501454
843372435217,2.2984009,2.6366794,8.827447
843392293010,3.104748,1.3856151,8.903633
843412150801,3.4616296,0.9928739,7.9852486
843432008593,4.219853,-0.22293445,6.2100954
843451866386,5.4965625,-1.5743687,4.821868
843471731668,5.7688403,-1.8622004,9.049554
843491589588,4.533997,-1.9400368,13.98159
843511447509,4.4707103,-2.0813944,14.614675
843531305428,3.625672,-5.615713,14.503202
843551163348,0.91892105,-9.09508,16.774021
843571025058,-1.3095021,-6.164421,19.89065
843590883106,-2.1707683,-2.4902039,19.546637
843610741282,-2.6546698,-2.130973,17.739004
843630599330,-3.59561,-2.152002,17.646736
843650457378,-5.2303767,-1.408079,17.576298
843670315305,-5.367918,-1.3329778,13.655967
843690173225,-3.6756716,0.73334754,11.254391
843710031145,-2.670191,1.5552417,11.184999
843729889065,-0.06796583,3.7268734,12.869876
843749746985,4.0005155,5.0227957,11.744268
843769614523,2.5676346,5.8939133,8.724394
843789472699,-2.4054291,3.882317,11.583942
843809330875,-3.9306974,-1.3081431,12.925201
843829189051,-5.735432,2.0463393,12.678697
843849047227,-7.197183,2.5576673,12.222021
843868902983,-5.186822,0.2792491,8.60187
843888761159,-3.133516,0.1941438,5.503668
843908619335,2.9000309,4.378112,4.3098164
843928477511,2.2944899,6.254224,7.3494062
843948335687,-4.1076994,2.4011753,10.302151
843968192010,-5.463989,-1.0562232,9.953204
843988050058,-5.4647665,1.3750659,10.016595
844007908234,-4.3655033,-0.51768965,8.336777
844027766282,-1.7452395,0.08021148,5.103577
844047624458,-2.3546216,-0.02687522,6.3921375
844067487364,-1.1026651,0.22300977,6.4486856
844087345540,-1.3592789,2.1443517,5.9816794
844107203844,-0.9113711,2.5016217,8.084737
844127062020,1.5248976,3.8089528,6.3841295
844146920196,3.8173542,5.6631756,7.356194
844166775690,4.25106,3.9999216,9.673498
844186633866,1.6642194,1.4419955,11.521607
844206492170,-3.30128,2.8165865,12.24813
844226350346,-2.5080507,1.8650041,14.053064
844246208522,-3.2218754,0.8367756,9.683487
844266065528,-2.7450461,1.474652,9.596488
844285923576,-4.4041104,-1.5074074,11.671647
844305781752,-3.1535175,-2.8063064,12.054658
844325639928,0.5687207,-0.21601625,15.052755
844345498104,1.5271142,-1.6316501,15.839726
844365355361,4.1231875,-1.6488116,15.328012
844385213537,9.429803,3.7892454,8.552773
844405071713,12.6009245,5.0880747,4.660472
844424929889,7.176226,3.1372066,11.073372
844444788065,4.616526,1.3522191,10.570734
844464640806,4.593517,0.105924934,7.0059843
844484498854,1.7924113,0.23171626,6.5691905
844504356902,-0.6757677,-2.5625355,6.461936
844524214950,-3.0909204,-2.4007537,5.775829
844544072998,-4.3889685,0.20015362,4.319681
844563933801,-5.6274853,-0.6334177,9.449906
844583791849,-6.4323373,1.353558,11.826486
844603649897,-8.946722,1.9318221,10.452663
844623507945,-8.549819,1.9601749,13.165204
844643366121,-0.8027864,6.287152,15.734304
844663220652,4.250235,11.91824,14.239731
844683078700,2.4240189,-5.103175,13.83612
844702936620,1.6369923,-7.722252,11.670241
844722794668,3.7320302,3.389694,8.807125
844742652588,2.3082736,0.7497291,8.958649
844762516524,1.1861771,-3.1653397,11.234087
844782374572,0.07052792,2.1833537,27.223114
844802232620,-4.5841055,-2.5078635,21.02464
844822090668,-0.676684,-10.273281,-8.281314
844841948844,7.5009747,4.801346,3.3364236
844861812795,7.4954486,0.93754005,7.305839
844881670971,5.3231297,-8.069489,8.30289
844901529147,3.5204673,-4.7092957,10.877247
844921387451,3.097092,1.5885634,10.310081
844941245627,0.8944076,-0.22831707,7.7498384
844961108137,-1.3815612,-3.859459,8.970551
844980966313,-4.3119965,-3.0385268,10.328272
845000824617,-5.161423,1.0013645,6.0185328
845020682921,-3.3533106,2.280854,4.3793025
845040541097,0.46127692,0.90031976,6.759167
845060399401,2.7140212,1.6126692,10.25652
845080260814,-6.5569215,1.7812436,11.915545
845100119246,-6.5806565,-3.108662,4.093565
845119977550,-1.5079783,2.8919637,4.9520426
845139835982,-1.7613884,2.950852,8.1209345
845159694414,-6.157854,2.044453,10.099643
845179552334,-5.1877,1.2380481,11.978999
845199410766,-0.5525095,-1.0499932,12.028185
845219269070,-0.9224338,-0.34562632,9.810407
845239127502,-3.0774815,-2.0299144,10.87306
845258985934,-0.38657278,-0.5847767,13.224041
845278854661,-0.749341,0.28128165,18.415165
845298713221,0.27197167,1.7260324,10.273523
845318571781,2.5967765,3.8285263,9.817873
845338430469,2.5173018,0.5809015,9.854633
845358289029,2.7273982,-2.362512,10.047104
845378151196,3.3485496,-3.6571617,11.075029
845398009884,4.013701,-1.2138937,10.972273
845417868700,4.6448855,0.33110237,9.509827
845437727388,4.0892982,1.2025557,8.087635
845457586076,4.029193,2.599643,7.0633106
845477436730,4.4610977,2.7380328,8.012819
845497295290,2.4463854,0.74854654,10.451502
845517153850,-6.3054285,1.4780452,15.6751375
845537012410,-6.3303647,1.1594378,8.845182
845556870970,8.832133,-5.612528,0.669284
845576723197,-3.0943916,2.717196,7.9475474
845596581629,-2.8237934,0.5532298,9.758805
845616440189,-3.9008214,-0.6283189,9.311973
845636298621,-6.2092648,-4.089962,11.204915
845656157053,6.750885,-3.2241454,15.048145
845676022269,18.49875,-11.372804,17.124678
845695883069,13.196144,-21.054192,8.54898
845715741757,-5.026453,-5.3186746,1.5051253
845735600317,-1.0084964,1.969917,7.084882
845755459005,-1.7308122,3.3430884,8.371311
845775330237,-4.700619,9.111059,8.069662
845795189053,-3.0071127,10.863885,10.397999
845815047997,5.2874703,4.971441,12.256422
845834906813,3.0394056,0.60510427,7.590678
845854765757,-1.0877143,-0.029262662,6.6823363
845874622464,-0.055554323,-7.9848104,9.629323
845894481408,1.197924,-4.940627,13.18761
845914340224,1.3336394,-1.0167012,13.539135
845934199168,1.2402306,-1.384934,9.155143
845954057984,0.048477776,0.25668052,6.4012475
845973914892,1.9149249,-0.4287876,6.849077
845993773708,1.6343246,1.5803901,6.231546
846013632524,1.5116907,-1.0095779,8.446688
846033491340,-0.6512677,-1.4647475,11.733794
846053350156,-3.9344592,-1.2324642,11.854759
846073206351,-4.762473,1.0843573,9.654716
846093065167,-6.6722527,8.799153,8.851293
846112923855,-2.205731,3.344128,7.6447563
846132782543,4.474844,-1.9154377,9.851494
846152641359,6.9104476,-5.58789,14.06281
846172494561,0.08175531,-4.121068,11.913697
846192353249,-3.4591548,-1.2662559,10.831331
846212211937,-3.5136158,-0.15398325,10.548068
846232070497,-2.2922807,1.0121087,9.48196
846251929185,-0.60925287,1.4791381,8.824086
846271785740,1.1546859,1.7317643,9.065437
846291644300,2.1992962,0.27836728,10.154963
846311502860,0.2889584,-1.8642446,9.621956
846331361420,-0.8395535,-1.4100628,9.039669
846351219980,-1.2762978,-0.019966094,9.06966
846371078357,-1.8452486,-0.40736443,9.181004
846390936917,-2.2581468,-1.1570501,9.072455
846410795477,-1.6936902,-0.3199392,9.452216
846430654037,-1.0228679,0.42680046,9.614288
846450512597,-0.66208154,-0.10197314,9.371486
846470366116,-0.49901837,-0.33985114,9.455368
846490224548,-0.80067915,0.14337748,9.687713
846510082980,-1.205194,0.6689765,9.661155
846529941412,-1.3586425,0.71154624,9.62335
846549799844,-1.2408339,0.4301612,9.345366
846569656942,-1.0894685,0.22453061,9.19023
846589515374,-0.724156,0.68923104,9.332416
846609373934,-0.5069906,1.384417,9.286547
846629232366,-0.8277511,1.7490886,9.305042
846649090798,-1.6469059,0.7772709,9.950389
846668950639,-1.8680258,-0.27567163,11.560706
846688809199,-1.4288902,0.27644125,12.651289
846708667631,-1.0162256,0.6089925,12.324898
846728526063,-0.5432286,0.6361985,11.071924
846748384495,-0.026014524,1.0091248,10.1256075
846768247023,0.21790206,1.2449205,9.349398
846788105583,2.1894333,0.3543927,8.296023
846807964015,3.6498353,-1.1656574,8.209762
846827822575,1.9277743,-1.5803522,9.172281
846847681007,0.72086173,-2.7271647,11.654422
846867538427,-0.5793122,-0.07564166,12.361015
846887396987,-2.1693118,0.97121674,10.951443
846907255547,-3.7529037,-2.1991806,9.422876
846927114107,-2.9247842,-2.6239576,7.8135443
846946972667,-0.14819047,-1.344456,6.3527794
846966838003,0.7580328,0.20846036,5.800008
846986696691,0.112292856,-0.667692,5.603248
847006555379,-0.62985927,-3.9308007,6.814458
847026414067,-1.2979876,-4.6327147,10.542671
847046272755,0.6561483,0.22417322,15.143937
847066129340,0.44154412,8.263449,16.842209
847085987900,0.29734936,3.3476586,10.853601
847105846460,1.4734108,-2.6332107,8.823164
847125705020,0.54205984,-2.26617,8.176508
847145563708,-0.41662422,-3.0722766,7.90145
847165419592,-1.268638,-3.3445873,9.4112835
847185278024,-1.2009523,-1.6987677,11.03429
847205136456,-0.19599648,-0.2618903,10.311446
847224994888,0.947856,4.448528,9.05898
847244853320,0.76351285,-0.2688129,9.796409
847264721443,-0.92359686,-1.8752854,9.352248
847284580003,-0.67562836,1.0314,9.6600485
847304438691,-0.7080456,0.97143614,9.460581
847324297251,-0.5071833,-0.17581585,9.330655
847344155939,-0.1135196,-0.06716643,9.807141
847364015668,0.017145686,-0.09962517,9.794866
847383874484,0.096884705,0.15080264,9.831791
847403733300,0.09831299,0.5728105,10.216412
847423592116,-0.066266134,0.16384678,9.946038
847443450932,-0.12743211,-0.7551976,9.776789
847463311235,-0.6116254,-2.2689126,9.899217
847483170051,-0.49333194,-1.6511718,9.480501
847503028867,0.14738213,-0.090966634,9.632247
847522887683,0.34087697,-0.09800529,9.434714
847542746499,0.52983004,-0.14803305,9.181204
847562603547,0.5132809,0.2735012,9.271364
847582462363,0.07897107,0.5414133,9.506591
847602321179,-0.45673555,0.38251474,9.606067
847622179995,-0.767742,-0.04496837,9.62724
847642038811,-0.7992085,0.09721436,9.630063
847661897566,-0.5140669,0.085378714,9.502626
847681756382,-0.5249438,-0.34484985,9.391403
847701608389,-0.52334416,-0.56503975,9.436565
847721467205,-0.21608841,-0.6108842,9.618407
847741326149,0.3513536,-0.3759058,9.621259
847761181990,0.6907838,0.024490718,9.729898
847781040678,0.5690257,0.24385503,9.459938
847800899494,-0.021459159,0.14608933,9.396206
847820758310,-0.4582146,-0.0132101895,9.584006
847840616998,-0.48929438,-0.24489339,9.540322
847860479305,-0.35899797,-0.55956674,9.468967
847880338249,-0.22887637,-0.8708682,9.57335
847900197065,-0.08104445,-0.7718302,9.532961
847920055881,0.04905655,-0.3181363,9.443376
847939914825,0.020211894,-0.12465952,9.36996
847959772507,-0.15407237,-0.3210761,9.464824
847979631323,-0.24601783,-0.5288057,9.559807
847999490267,-0.1626612,-0.36773917,9.558563
848019349083,-0.16646937,-0.18489142,9.537988
848039207899,-0.26747596,-0.24891128,9.500706
848059058742,-0.31848168,-0.4262038,9.469429
848078917430,-0.22460087,-0.44749314,9.48908
848098775990,-0.14189777,-0.2560661,9.48737
848118634678,-0.20067841,-0.13626799,9.513772
848138493366,-0.22465101,-0.21993747,9.433675
848158340887,-0.30515602,-0.43758985,9.408453
848178199191,-0.27187356,-0.40401292,9.497286
848198057623,-0.17196558,-0.09697264,9.564981
848217916055,-0.19896334,0.10888371,9.652113
848237774359,-0.24921875,0.10127722,9.623453
848257633076,-0.3679234,2.116522E-4,9.59232
848277491508,-0.41504818,-0.06508347,9.554477
848297349812,-0.3722393,-0.07380853,9.539154
848317208244,-0.32107857,-0.011628612,9.630813
848337066548,-0.2703337,0.039415143,9.605135
848356923815,-0.2530947,0.036579788,9.535699
848376782247,-0.18429762,-0.099268526,9.476968
848396640551,-0.08271601,-0.26466578,9.426107
848416498983,-0.07733964,-0.32432455,9.448924
848436357287,-0.07439424,-0.31517676,9.611608
848456208502,-0.008863793,-0.14339201,9.709448
848476066550,0.02476945,-0.13170132,9.682377
848495924726,0.049194016,-0.26083785,9.696526
848515782902,0.052851617,-0.3040641,9.693939
848535640950,0.05222415,-0.11034222,9.555327
848555501191,-0.053096127,-0.10714764,9.408102
848575359367,-0.09140959,-0.3780334,9.364504
848595217543,-0.023767225,-0.4760327,9.474912
848615075719,-0.06653645,-0.34496525,9.532012
848634933895,-0.20802782,-0.34641984,9.476325
848654783940,-0.1101505,-0.42101887,9.560515
848674641988,0.03918522,-0.43926644,9.501635
848694500036,0.023094406,-0.36032924,9.5108595
848714357956,-0.07815116,-0.27788562,9.5742445
848734216004,-0.07289197,-0.2366594,9.5939
848754074052,-0.17472592,-0.26602492,9.544765
848773937805,-0.2287967,-0.19602057,9.627096
848793795981,-0.27712852,-0.06699314,9.634238
848813654029,-0.3828839,-0.050422944,9.506964
848833512077,-0.53867733,-0.14826778,9.547814
848853370125,-0.50057626,-0.18985717,9.730408
848873230830,-0.4568157,-0.17901976,9.666491
848893089134,-0.4050914,-0.09143545,9.563233
848912947310,-0.15010805,0.03290888,9.616933
848932805486,-0.16980988,-0.037253212,9.60164
848952663662,-0.24298139,-0.21185496,9.60908
848972514834,-0.23839608,-0.24651945,9.622545
848992372882,-0.18959549,-0.24599838,9.612005
849012230802,-0.22399755,-0.3019909,9.633856
849032088850,-0.28043634,-0.43537945,9.6181
849051946898,-0.3355092,-0.43066162,9.545628
849071813411,-0.32173026,-0.33355546,9.630123
849091671587,-0.24359728,-0.18508343,9.696811
849111529763,-0.27168566,-0.20337152,9.885302
849131387939,-0.292791,-0.35722265,9.852157
849151246115,-0.29924718,-0.3510347,9.676551
849171071181,-0.18545885,-0.43220344,9.660364
849190928717,-0.11327008,-0.500375,9.618122
849210786253,0.01755764,0.043850787,9.772604
849230643789,-0.18656208,0.010897818,9.838138
849250501325,-0.25908956,-0.1851219,9.892345
849270376756,-0.20609303,-0.21546613,9.849182
849290234548,-0.266712,-0.18293357,9.698989
849310092468,-0.3781417,-0.1942246,9.660979
849329950260,-0.26879624,-0.31343454,9.652686
849349808052,-0.24721673,-0.34153828,9.584762
849369673207,-0.16995306,-0.264106,9.695259
849389531255,-0.091651335,-0.21503972,9.669594
849409389175,-0.053835846,-0.24350467,9.752733
849429247095,-0.07701211,-0.2425058,9.685951
849449105015,-0.08362921,-0.20623893,9.678888
849468974845,-0.06452519,-0.19010808,9.67795
849488833021,-0.04907931,-0.17722598,9.6619
849508691197,-0.08898579,-0.24215038,9.6662245
849528549501,-0.13244459,-0.14244273,9.840396
849548407677,-0.1665524,-0.07884151,9.994049
849568270990,-0.114262484,-0.033009175,9.757429
849588129294,-0.21103965,-0.28569067,9.494545
849607987726,-0.23869643,-0.45084587,9.614905
849627846030,-0.17911392,-0.134218,9.709577
849647704462,-0.3243191,0.12897606,9.776465
849667566624,-0.33723485,-0.14633636,9.838981
849687425056,-0.25501552,-0.39305586,9.557584
849707286305,-0.29262805,-0.31270367,9.594057
849727144865,-0.30242786,-0.0771175,9.76399
849747003297,-0.34225568,-0.033514902,9.63641
849766868805,-0.3829601,-0.2923508,9.628804
849786727365,-0.22220443,-0.30236524,9.601118
849806585925,-0.17574768,-0.24637291,9.724924
849826444485,-0.14864734,-0.045931004,9.749154
849846303045,-0.26101068,-0.04111208,9.7129135
849866170100,-0.304817,-0.40505877,9.727919
849886028916,-0.10573493,-0.27697194,9.660311
849905887604,-0.14826961,-0.14976756,9.746332
849925746420,-0.15430094,-0.14599748,9.760053
849945605236,-0.2198321,-0.13480873,9.656247
849965468903,-0.32695296,-0.26966733,9.582095
849985327847,-0.139353,-0.26214245,9.67153
850005186791,-0.09983514,-0.0647538,9.744472
850025045607,-0.19106743,-0.10676966,9.797407
850044904551,-0.20373015,-0.16104393,9.759873
850064762896,-0.26433688,-0.07402009,9.7068405
850084621840,-0.29009652,-0.070201494,9.676449
850104480784,-0.32532203,-0.1291116,9.635897
850124339728,-0.2864021,-0.25563622,9.742991
850144198672,-0.18823466,-0.04926457,9.856836
850164053574,-0.25923824,-0.046691116,9.759613
850183912518,-0.21483229,-0.071732156,9.747299
850203771462,-0.2340661,-0.005156812,9.765064
850223630406,-0.40890613,-0.17972027,9.656272
850243489350,-0.3379346,0.026967803,9.785299
850263347691,-0.48704973,-0.053960584,9.684719
850283206507,-0.36301574,-0.15364812,9.58819
850303065451,-0.26035154,-0.011634134,9.633719
850322924267,-0.31000498,-0.12255233,9.737168
850342783211,-0.33232492,-0.14238441,9.74356
850362637686,-0.32165495,-0.21069664,9.732918
850382496630,-0.21290886,-0.28142682,9.6313305
850402355446,-0.1831911,-0.25328043,9.6239605
850422214390,-0.26344228,-0.20481385,9.7184925
850442073334,-0.1575212,-0.07769258,9.771073
850461927511,-0.18945703,-0.056848753,9.714699
850481786327,-0.25546098,-0.2716835,9.687365
850501645143,-0.17681299,-0.22185144,9.696625
850521503959,-0.18877187,-0.18548115,9.707307
850541362775,-0.173969,-0.1104881,9.717969
850561212081,-0.25544077,-0.13301581,9.733727
850581070769,-0.25802383,-0.16270474,9.701899
850600929329,-0.27114865,-0.12861414,9.726283
850620788017,-0.35083705,-0.08710707,9.743522
850640646577,-0.3138879,0.012636271,9.680534
850660513121,-0.4387609,-0.057643108,9.710611
850680371937,-0.36186397,-0.09804064,9.674643
850700230881,-0.3291994,-0.08186089,9.666606
850720089697,-0.29964554,-0.016251406,9.720513
850739948513,-0.23782459,-0.10829023,9.785373
850759790762,-0.22855268,-0.13468124,9.778781
850779648938,-0.24062575,-0.1695251,9.721153
850799507114,-0.22470318,-0.12726219,9.65842
850819365290,-0.20994402,-0.1146457,9.659676
850839223466,-0.12736925,-0.07736659,9.769725
850859086608,-0.20525126,-0.033736043,9.745541
850878944912,-0.38931105,-0.15943095,9.705394
850898803216,-0.2802582,-0.12541217,9.688264
850918661648,-0.24995917,-0.060906276,9.664818
850938519952,-0.22582373,-0.016516844,9.731501
850958385119,-0.30342516,-0.014221648,9.705814
850978243551,-0.30970034,-0.099112675,9.623345
850998101983,-0.2664927,-0.16680291,9.644455
851017960415,-0.2479529,-0.082685895,9.741556
851037818847,-0.18459603,0.07279718,9.7635975
851057671025,-0.29184446,-0.030315334,9.732876
851077529329,-0.31289187,-0.184265,9.651872
851097387761,-0.23669316,-0.09545734,9.664181
851117246065,-0.22082013,0.0332883,9.676553
851137104369,-0.24428232,0.06708217,9.69576
851156955852,-0.29148513,0.0032468236,9.745326
851176814028,-0.3073565,-0.006571876,9.713877
851196672204,-0.35789296,-0.034565873,9.680585
851216530380,-0.31184566,0.0021364088,9.717376
851236388556,-0.20055634,0.101295665,9.735738
851256251346,-0.2217323,0.14498954,9.728811
851276109522,-0.30977196,0.04637778,9.7641735
851295967698,-0.33523306,0.035463843,9.703727
851315826002,-0.27509177,0.10911319,9.622299
851335684178,-0.31409484,0.014785873,9.678502
851355542299,-0.20040905,0.0071770297,9.689417
851375400603,-0.2537424,-0.0059913294,9.667273
851395258907,-0.25333863,-0.021067226,9.665142
851415117083,-0.27704236,-0.0822232,9.73596
851434975387,-0.16300187,-0.046247736,9.733689
851454839090,-0.14985459,-0.028849619,9.757867
851474697522,-0.28357062,-0.15240782,9.7577715
851494555954,-0.18602727,-0.10157466,9.670501
851514414258,-0.27211335,-0.021727653,9.705876
851534272690,-0.22722003,0.0074909814,9.749674
851554132627,-0.26059133,0.006436463,9.729126
851573991059,-0.2753984,-0.08496322,9.6420355
851593849491,-0.30512014,-0.13142127,9.594269
851613708051,-0.24341856,-0.011355353,9.660345
851633566483,-0.14921822,0.13416944,9.703984
851653423566,-0.15900345,0.14036399,9.779042
851673282126,-0.37325928,0.037066475,9.84333
851693140558,-0.2834158,0.011064211,9.76359
851712997122,-0.29549927,0.024130302,9.645058
851732855682,-0.21334419,0.030487822,9.60905
851752717941,-0.23180081,0.09657028,9.663748
851772576501,-0.30278742,0.053531516,9.738077
851792434933,-0.15979113,-0.0053890455,9.731327
851812293493,-0.16148113,0.09259117,9.67899
851832152053,-0.35722396,0.08485804,9.669125
851852010294,-0.25716445,0.15663436,9.755077
851871868982,-0.28768003,0.16016845,9.661532
851891727542,-0.2809718,0.0854957,9.664826
851911586102,-0.21767844,0.06104132,9.684658
851931444662,-0.18194447,0.0558129,9.683534
851951298223,-0.2150839,0.12461938,9.722593
851971156655,-0.23341013,0.09747597,9.757457
851991015087,-0.24407198,0.06712632,9.710322
852010873519,-0.2542867,0.056150503,9.644607
852030731951,-0.24999586,0.037853494,9.723709
852050583484,-0.18970224,0.07509434,9.8039
852070441788,-0.19630095,0.09714575,9.828482
852090299964,-0.24136029,0.032578137,9.716881
852110158268,-0.26442376,0.00603318,9.712388
852130016572,-0.27771074,0.009646896,9.628251
852149869158,-0.31390476,-0.014408957,9.662331
852169727206,-0.25186574,-0.09739055,9.735216
852189585254,-0.2117166,-0.06527765,9.72875
852209443302,-0.35790426,0.038832173,9.73311
852229301478,-0.2742626,0.012535597,9.717381
852249159526,-0.29024532,0.09692472,9.793249
852269020475,-0.24807501,0.14184648,9.768398
852288878651,-0.37292495,0.11532054,9.687463
852308736828,-0.30365407,0.13213405,9.608967
852328595003,-0.25280777,0.05212139,9.599109
852348452190,-0.1317954,0.07718411,9.746103
852368310367,-0.24535228,0.117859185,9.858632
852388168542,-0.29665962,0.12835455,9.795781
852408026718,-0.32134637,0.13727547,9.706116
852427884895,-0.34111208,0.046409577,9.634324
852447742942,-0.25582308,0.039825026,9.671247
852467594163,-0.23926193,0.059328157,9.6884365
852487452212,-0.30991715,0.052874856,9.779681
852507310131,-0.26481643,0.10550508,9.725548
852527168179,-0.26857352,0.11320062,9.679626
852547026228,-0.21886095,0.09798046,9.710463
852566879342,-0.32096955,0.071129315,9.8128395
852586737390,-0.22323231,0.12458152,9.797518
852606595311,-0.18838537,0.09563104,9.657964
852626453358,-0.28776908,-0.013738429,9.648411
852646307541,-0.17542548,0.045893684,9.763141
852666165334,-0.21121332,0.18705864,9.808625
852686023253,-0.26098195,0.113078155,9.6349125
852705881045,-0.40060565,0.05031874,9.721304
852725738838,-0.13682114,0.06658449,9.6797285
852745596757,-0.12038262,0.14907612,9.735182
852765457249,-0.29655644,0.09652567,9.742361
852785315042,-0.2660604,0.027430795,9.729781
852805172833,-0.17111492,0.15716507,9.696654
852825030625,-0.2566881,0.10053382,9.654148
852844888418,-0.22515811,0.07632816,9.711054
852864746172,-0.2387651,0.115723506,9.6683655
852884604092,-0.2550704,0.10047638,9.673933
852904461885,-0.20182043,0.103317305,9.715017
852924319676,-0.22512364,0.123163365,9.644196
852944182044,-0.22789124,0.121392086,9.677724
852964039965,-0.23596552,0.15302674,9.818587
852983897756,-0.1654572,0.1801069,9.769536
853003755676,-0.17546935,0.2503393,9.57594
853023613469,-0.42241082,0.114352815,9.68335
853043471388,-0.13115413,0.07986343,9.691686
853063327820,-0.14579196,0.24744616,9.68141
853083185741,-0.2042387,0.13522016,9.665743
853103043532,-0.3165644,0.1123638,9.718458
853122901452,-0.13140137,0.18283916,9.79746
853142759245,-0.13564806,0.23365806,9.7131
853162622782,-0.23725922,0.16401424,9.791369
853182480702,-0.15398832,0.13550511,9.702221
853202338623,-0.21477027,0.21750823,9.6819515
853222196670,-0.20242353,0.17878897,9.6684885
853242059618,-0.14289792,0.15539345,9.650765
853261917667,-0.20475301,0.20019858,9.732371
853281775714,-0.21321802,0.12981299,9.817381
853301633762,-0.12726156,0.19532736,9.811894
853321491811,-0.2593175,0.17188545,9.632442
853341349858,-0.22060913,0.04607483,9.597249
853361215627,-0.18684098,0.12153134,9.663923
853381073932,-0.16833742,0.16417025,9.757708
853400932107,-0.09845543,0.18639025,9.7391815
853420790411,-0.19801728,0.11880138,9.662036
853440648716,-0.20062844,0.13621047,9.693352
853460507427,-0.20231004,0.23041722,9.833284
853480365731,-0.07495498,0.20828192,9.709157
853500224036,-0.19477117,0.17872211,9.607886
853520082339,-0.2839844,0.08731977,9.648918
853539940643,-0.11857502,0.14513168,9.698253
853559798948,-0.07310438,0.23700543,9.825754
853579650820,-0.27639094,0.19626035,9.805434
853599508996,-0.2099556,0.15280697,9.730364
853619367173,-0.10544421,0.13906606,9.645082
853639225476,-0.24521637,0.24012825,9.514536
853659084717,-0.34851485,0.25013092,9.757025
853678943022,-0.24406335,0.18702216,9.856604
853698801197,-0.07120713,0.14340259,9.868288
853718649022,-0.028693847,0.13619527,9.881665
853738507327,-0.19125392,0.18806286,9.7268
853758368890,-0.31306565,0.27497646,9.712298
853778227194,-0.23080781,0.21119663,9.624435
853798085499,-0.15135498,0.1551888,9.652734
853817943802,-0.28099468,0.15775573,9.673195
853837802106,-0.3521485,0.20700482,9.649421
853857660411,-0.26157537,0.17583583,9.7897
853877522955,-0.28626612,0.12826446,9.62835
853897381387,-0.39119244,0.11862681,9.693216
853917239820,-0.34348655,-0.012162211,9.692357
853937098251,-0.26411358,0.05378849,9.634021
853956961415,-0.2666641,0.1461064,9.783346
853976819976,-0.21186201,0.12077874,9.818755
853996678535,-0.17463017,0.18674837,9.8682575
854016537095,-0.22241586,0.16541146,9.691643
854036395656,-0.20703492,0.1651904,9.602519
854056249108,-0.099908516,0.18109219,9.622234
854076107540,-0.31953597,0.2530031,9.649708
854095965973,-0.14968266,0.17290482,9.76721
854115824404,-0.059708804,0.15092413,9.781061
854135682964,-0.18706125,0.12521626,9.68016
854155541397,-0.24905948,0.14458327,9.779214
854175390490,-0.18416734,0.15617289,9.777664
854195248666,-0.231094,0.19569801,9.740878
854215106843,-0.21270186,0.17310756,9.661841
854234965018,-0.15511517,0.1593375,9.611556
854254824017,-0.2976527,0.2292818,9.82057
854274682194,-0.31336686,0.17617963,9.76689
854294540369,-0.2353848,0.15645961,9.737341
854314398673,-0.24915084,0.10061682,9.688983
854334256850,-0.33774,0.13637432,9.547495
854354118109,-0.21069762,0.14308155,9.730156
854373976413,-0.23324071,0.12715463,9.6908045
854393834718,-0.32029653,0.16148971,9.766361
854413693021,-0.16968612,0.12899514,9.8650875
854433551325,-0.26189706,0.19524318,9.663622
854453409630,-0.26506415,0.18599199,9.75055
854473269847,-0.24928038,0.10977641,9.664386
854493128151,-0.14567925,0.17335562,9.713866
854512986456,-0.19524807,0.183638,9.678894
854532844759,-0.28586805,0.17538951,9.716834
854552701332,-0.051643185,0.14218317,9.776155
854572559637,-0.25539437,0.21320847,9.759532
854592417940,-0.16197339,0.15966894,9.778112
854612276244,-0.11633955,0.21147777,9.738518
854632134549,-0.17276607,0.18037184,9.612939
854651992724,-0.23456834,0.16197209,9.699156
854671830926,-0.20541735,0.16586533,9.750988
854691688719,-0.0908789,0.17898129,9.663712
854711546638,-0.19411816,0.17254893,9.708647
854731404430,-0.23363307,0.10971254,9.632272
854751262351,-0.107052706,0.20761894,9.782005
854771118540,-0.12164432,0.21889101,9.805759
854790976332,-0.14425771,0.1508515,9.788828
854810834125,-0.12031439,0.18578693,9.80547
854830692044,-0.29189533,0.19353756,9.554405
854850550036,-0.16755284,0.18161324,9.61111
854870407829,-0.07726542,0.15686116,9.643953
854890265620,-0.15749972,0.18992679,9.722844
854910123540,-0.13186169,0.19404617,9.874797
854929981333,-0.23803997,0.20104997,9.714795
854949839124,-0.242607,0.17593536,9.686935
854969696844,-0.096515656,0.06850283,9.676768
854989554637,-0.14598078,0.17105164,9.771911
855009412556,-0.12779823,0.20618708,9.784216
855029270348,-0.29250443,0.13682662,9.665937
855049128141,-0.20443305,0.051724475,9.6489725
855068985182,-0.22364026,0.14170752,9.804742
855088842974,-0.20298725,0.18751194,9.811186
855108700895,-0.19490747,0.17267385,9.6861105
855128558686,-0.34780967,0.041936573,9.5571165
855148411269,-0.28569666,0.09490017,9.648688
855168268806,-0.1259899,0.20704237,9.807717
855188126469,-0.14348659,0.22353022,9.793793
855207984005,-0.2234441,0.1401267,9.752428
855227841670,-0.22855105,0.057088923,9.644297
855247699205,-0.19909252,0.16063605,9.661242
855267566481,-0.14968562,0.18018383,9.746423
855287424274,-0.15543741,0.15320008,9.697616
855307282065,-0.13074543,0.14204574,9.844992
855327139729,-0.20558003,0.1591663,9.719433
855346997522,-0.14893508,0.18849103,9.663689
855366858359,-0.19253637,0.22048166,9.652429
855386716151,-0.25090078,0.1494203,9.604103
855406573944,-0.0702546,0.13081431,9.773737
855426431735,-0.11539134,0.1311349,9.723563
855446291063,-0.17393726,0.16289218,9.689265
855466148856,-0.22996618,0.16051885,9.798962
855486006775,-0.116347715,0.1766322,9.740006
855505864567,-0.09860729,0.23536964,9.696297
855525722488,-0.28071752,0.111096255,9.65461
855545580279,-0.23869215,0.098373756,9.62611
855565439558,-0.13878384,0.17610417,9.698251
855585297479,-0.16491064,0.12268733,9.776688
855605155398,-0.11445372,0.14368345,9.858599
855625013318,-0.17661853,0.1793721,9.668032
855644871239,-0.33518645,0.13504198,9.606689
855664735436,-0.13784976,0.063769445,9.668156
855684593484,-0.085418396,0.14827296,9.738526
855704451661,-0.15187703,0.16214836,9.777621
855724309708,-0.23473549,0.10888686,9.761853
855744162033,-0.15596014,0.18689054,9.757987
855764020082,-0.15980776,0.20678146,9.730739
855783878440,-0.24919955,0.18086423,9.663458
855803736488,-0.1868475,0.13225996,9.742435
855823594537,-0.19774032,0.16781357,9.676673
855843452584,-0.14356276,0.15769249,9.645587
855863316416,-0.19883345,0.14371675,9.705191
855883174593,-0.3050646,0.13905697,9.807923
855903032768,-0.08593798,0.19884767,9.813117
855922890944,-0.21096462,0.21281318,9.768963
855942749121,-0.28785783,0.19051488,9.627057
855962609637,-0.2676968,0.20183761,9.592202
855982467941,-0.1891755,0.080886684,9.741526
856002326246,-0.025695853,0.047582865,9.852849
856022184549,-0.18490694,0.13569848,9.767013
856042042853,-0.41030926,0.08737931,9.682066
856061901158,-0.30681977,0.06741669,9.665233
856081758742,-0.1355211,0.107262895,9.73472
856101617174,-0.15414026,0.15859969,9.750548
856121475607,-0.22267583,0.09695033,9.753529
856141333910,-0.26878798,0.05652491,9.713138
856161189522,-0.17106155,0.08141747,9.702265
856181047955,-0.24542151,0.07965499,9.742376
856200906386,-0.23584266,0.09272132,9.742704
856220764690,-0.28384447,0.11915677,9.710204
856240623123,-0.20662819,0.07380817,9.65773
856260473242,-0.24083841,0.058634624,9.7090845
856280331418,-0.322189,0.09151184,9.714099
856300189467,-0.21206802,0.0895833,9.708102
856320047642,-0.20988506,0.07708443,9.788591
856339905690,-0.18998839,0.08836711,9.671873
856359763867,-0.29949665,0.16456006,9.682929
856379614167,-0.314842,0.103644125,9.737151
856399472087,-0.14392443,0.11838286,9.815513
856419330136,-0.17369856,0.1703905,9.8661995
856439188055,-0.23866731,0.12326555,9.722889
856459043104,-0.3408148,0.16242617,9.617535
856478901025,-0.24020866,0.089144364,9.599571
856498758944,-0.16008633,0.11021347,9.724633
856518616736,-0.18970414,0.10157189,9.806927
856538474657,-0.18187256,0.13687809,9.7764435
856558332448,-0.21331151,0.17294043,9.725207
856578185437,-0.3307965,0.10497651,9.698544
856598043102,-0.24998358,0.158495,9.672401
856617900893,-0.22700526,0.17741716,9.723216
856637758685,-0.19720413,0.045760788,9.6796255
856657616350,-0.1758953,0.033669967,9.698988
856677469704,-0.22756177,0.05956864,9.709779
856697327240,-0.24695428,0.108963706,9.811555
856717184905,-0.17849556,0.11990342,9.733134
856737042568,-0.25792015,0.12234822,9.657456
856756905364,-0.17014846,0.07835774,9.704728
856776763029,-0.1732999,0.12690109,9.712094
856796620692,-0.13357091,0.1817315,9.737395
856816478356,-0.16959135,0.17755683,9.807571
856836336021,-0.21719459,0.16069418,9.6689005
856856193684,-0.2251175,0.1587229,9.6456375
856876019732,-0.14574872,0.16198374,9.70023
856895876757,-0.13919877,0.21074729,9.64588
856915733908,-0.1824694,0.20941886,9.762255
856935590932,-0.21305281,0.08156846,9.80673
856955448085,-0.15553495,0.13490371,9.765991
856975314367,-0.2218776,0.19864479,9.613837
856995171519,-0.27384585,0.1692083,9.601503
857015028800,-0.13987914,0.10725186,9.741054
857034885951,-0.094851024,0.1403216,9.729133
857054744852,-0.22184998,0.18037912,9.674783
857074602005,-0.27185404,0.08209536,9.750749
857094459284,-0.13271159,0.1336996,9.756117
857114316436,-0.09428552,0.18789534,9.790661
857134173717,-0.13212596,0.16781488,9.678399
857154030868,-0.29157647,0.21197398,9.556604
857173894158,-0.2831295,0.068477094,9.6664505
857193751439,-0.04091713,0.06349819,9.786035
857213608590,-0.01365619,0.19003443,9.920131
857233465870,-0.24328056,0.18027386,9.7842245
857253323151,-0.27120286,0.16511245,9.665386
857273197961,-0.23961276,0.075765096,9.768993
857293055625,0.013589121,0.121273614,9.607394
857312913162,-0.19259024,0.23792514,9.665363
857332770825,-0.22275543,0.01624388,9.705037
857352636895,-0.08952285,0.12715927,9.705565
857372494688,-0.099915296,0.15835942,9.707203
857392352479,-0.22191389,0.17055659,9.657066
857412210271,-0.04951225,0.17420906,9.707396
857432068064,-0.11526265,0.16562945,9.752805
857451925855,-0.077437215,0.15849401,9.777639
857471793814,-0.06033497,0.12482384,9.72792
857491651863,-0.12084408,0.2177155,9.698256
857511509910,-0.1397665,0.21846808,9.760991
857531367958,-0.13431889,0.13741098,9.756542
857551226007,-0.15700978,0.16812183,9.593984
857571082201,-0.25412312,0.14445853,9.580922
857590940249,-0.19512163,0.07817648,9.734758
857610798426,0.004548252,0.13224825,9.846325
857630656473,-0.15449595,0.24748753,9.783724
857650514521,-0.23856188,0.21224016,9.691122
857670372570,-0.20039228,0.15995327,9.723111
857690235286,-0.0719942,0.12613577,9.718087
857710093462,-0.055894896,0.19815391,9.677017
857729951639,-0.14280029,0.17193729,9.6996765
857749809814,-0.12584688,0.21963723,9.757864
857769676175,-0.1292224,0.22144252,9.71682
857789534608,-0.12761603,0.2356906,9.663958
857809393039,-0.099392116,0.18861747,9.812722
857829251471,-0.10094368,0.19015735,9.744818
857849110032,-0.08187646,0.19541553,9.6879
857868972510,-0.061783362,0.18900375,9.773543
857888831070,-0.108565405,0.23527609,9.770262
857908689631,-0.07425345,0.2416093,9.70814
857928548318,-0.03086002,0.15310955,9.629329
857948406878,0.035732936,0.28709814,9.647995
857968265567,0.029143972,0.36333945,9.648644
857988122156,0.03033715,0.21432939,9.6751585
858007980716,0.051606927,0.13595274,9.816317
858027839277,0.045971226,0.20187984,9.861805
858047697964,0.046672095,0.39858156,9.708149
858067554655,-0.015333734,0.3663604,9.59749
858087413216,-0.031623747,0.23197812,9.63046
858107271903,0.15986887,0.08044604,9.720995
858127130591,0.17614862,0.24606284,9.84534
858146989152,0.098332204,0.19754311,9.8234
858166847839,0.2076722,0.23876347,9.675706
858186700004,0.17068924,0.18207209,9.695708
858206558437,0.18957195,0.19497171,9.724332
858226416996,0.12737618,0.18220292,9.749361
858246275556,0.09955295,0.14872374,9.720189
858266134117,0.113871746,0.20406064,9.695833
858285989025,0.16604075,0.17546111,9.777685
858305847457,0.3115188,0.1802196,9.793432
858325706018,0.21406485,0.15352672,9.753998
858345564449,0.169132,0.0752547,9.6679945
858365421345,0.24340399,0.234366,9.554197
858385280034,0.119191214,0.2805635,9.697683
858405138593,0.13722055,0.081592724,9.760442
858424997153,0.22312823,0.092928536,9.847071
858444855714,0.21672454,0.10447611,9.739572
858464714401,0.3174418,0.08330753,9.658347
858484545411,0.26062936,0.042558745,9.690029
858504403076,0.23407595,-0.0585441,9.651704
858524260867,0.23578636,0.044449575,9.767799
858544118659,0.11295133,0.010138335,9.795426
858563976324,0.2576456,-0.012802366,9.769708
858583826179,0.2255975,-1.3584614E-4,9.678568
858603683715,0.30017817,-0.039601058,9.733637
858623541380,0.30787584,0.0071928827,9.74225
858643398915,0.21124639,0.029451298,9.690179
858663247942,0.23128109,0.064413,9.72576
858683105351,0.31886995,0.110879995,9.67506
858702962630,0.31743348,0.007657329,9.751727
858722819910,0.20505223,0.04510967,9.789642
858742677319,0.20964874,-0.059506975,9.715038
858762534598,0.28467447,-0.11200698,9.674934
858782394689,0.42797256,-0.0014713546,9.623498
858802251970,0.15494072,-0.06711022,9.714946
858822109249,0.091647744,-0.1439905,9.78342
858841966529,0.18787569,-0.11584657,9.861102
858861823938,0.27290452,-0.11164573,9.680782
858881685726,0.34289175,-0.10090499,9.675839
858901543134,0.11752369,-0.07634747,9.66677
858921400543,0.17833667,-0.059607945,9.665212
858941257950,0.20968865,-0.05922292,9.739391
858961121691,0.22800829,-0.03904028,9.772056
858980979228,0.20066798,0.027290286,9.733462
859000836763,0.14823273,-0.063321464,9.703293
859020694299,0.25205377,-0.07315093,9.737151
859040551836,0.26430207,-0.050041765,9.695478
859060409371,0.22722933,-0.051406287,9.673408
859080264164,0.16544089,0.009950707,9.692182
859100121701,0.11914422,-0.06949793,9.766424
859119979108,0.25257033,-0.07349354,9.834906
859139836644,0.12762919,-0.032518115,9.752425
859159694181,0.21190684,-0.0691789,9.713775
859179551029,0.25303486,-0.04771901,9.600015
859199408309,0.21304317,-0.11783661,9.702865
859219265718,0.08066999,-0.09194169,9.763893
859239123125,0.19507557,-0.10779515,9.664416
859258980533,0.30028832,-0.054811575,9.697592
859278837942,0.19243135,-0.05869139,9.730285
859298701542,0.10647909,-0.16070054,9.683716
859318559078,0.21581195,-0.06374503,9.758641
859338416615,0.14093487,-0.0065893834,9.798294
859358274022,0.17790797,-0.09383524,9.767572
859378138520,0.31639624,-0.067778885,9.632576
859397996185,0.22011735,-0.06487762,9.591616
859417853976,0.21208721,-0.04883346,9.673292
859437711640,0.17667858,-0.0043267664,9.676487
859457569305,0.15806445,-0.018395275,9.755815
859477431454,0.13132279,-0.013938745,9.771771
859497289374,0.19758278,-0.12277422,9.755025
859517147167,0.25515747,-0.08865847,9.763728
859537005086,0.19711265,-0.08738131,9.697624
859556862878,0.15479144,-0.16961211,9.630953
859576720799,0.23920321,-0.09506525,9.672019
859596580120,0.19355775,-0.16034573,9.615457
859616438040,0.22761948,-0.17116852,9.763855
859636295961,0.102417864,-0.13088083,9.874293
859656153880,0.08184231,-0.25473645,9.858386
859676013590,0.2562083,-0.21581261,9.644851
859695871639,0.27342236,-0.13894302,9.621851
859715729558,0.14065938,-0.1413722,9.75463
859735587606,0.08914834,-0.13006422,9.748554
859755445655,0.17235088,-0.171625,9.732483
859775306615,0.2558133,-0.04030913,9.717966
859795162863,0.23726803,-0.06002807,9.660268
859815020912,0.12380058,-0.116558924,9.6787195
859834878959,0.07425862,-0.06594566,9.731144
859854737007,0.18169858,-0.08349357,9.727625
859874595056,0.16832772,-0.05907613,9.767332
859894448422,0.16296516,-0.09087884,9.767748
859914306470,0.18828957,-0.078816764,9.8129635
859934164391,0.18895005,-0.03916749,9.778186
859954022438,0.15067777,-0.078664586,9.7427435
859973885624,0.25284564,-0.09515581,9.685053
859993743673,0.33134398,-0.062093645,9.592754
860013601848,0.30756825,-0.03852814,9.673855
860033460024,0.107664354,-0.014963497,9.813047
860053318073,0.1841729,-0.12485088,9.793977
860073173054,0.34974563,-0.053231176,9.787821
860093031102,0.3646272,0.031179847,9.681689
860112889151,0.22013229,-0.0066129467,9.679154
860132747198,0.19141309,-0.038374428,9.72915
860152605246,0.14974912,-0.098861024,9.734268
860172463295,0.3029448,-0.10362961,9.7473
860192311547,0.29215583,-0.07742362,9.726997
860212169339,0.2424698,-0.14716814,9.749187
860232027132,0.19719882,-0.17685908,9.665705
860251884923,0.30350527,-0.15311928,9.673861
860271741263,0.20516048,-0.034857005,9.7449045
860291599056,0.12513378,-0.09174805,9.727588
860311456719,0.23926435,-0.11123594,9.747604
860331314511,0.26496273,0.025682569,9.824357
860351172176,0.15817316,0.0028055154,9.787356
860371029967,0.08145708,-0.019474052,9.806455
860390886613,0.20903721,-0.005646123,9.656162
860410744278,0.32889387,-0.01173427,9.596424
860430602069,0.22988684,0.023895249,9.738902
860450459733,0.08260085,-0.015892508,9.823324
860470317398,0.24153523,-0.033455804,9.7957535
860490173898,0.26838115,0.018660035,9.706999
860510031690,0.2599761,-0.07689605,9.6685705
860529889355,0.1876051,-0.024052806,9.638551
860549747018,0.26862672,-0.11688559,9.720687
860569596434,0.23874854,-0.050659284,9.761775
860589453971,0.2636974,-0.032720383,9.7544365
860609311506,0.22163151,-0.06940013,9.754032
860629169042,0.26153398,-0.07323256,9.757543
860649026579,0.23750566,-0.15657747,9.763581
860668884242,0.30565995,-0.14087585,9.705443
860688723018,0.22698635,-0.05912274,9.674718
860708580171,0.1381447,-0.12574531,9.721847
860728437322,0.13974771,-0.08767354,9.761726
860748294474,0.2433593,-0.06801307,9.712823
860768151499,0.18244396,-0.016226752,9.726066
860788014628,0.16866839,-0.035557795,9.704551
860807871780,0.31825516,-0.06280126,9.668426
860827729061,0.250486,0.053431075,9.7357025
860847586212,0.12437994,0.016401913,9.881895
860867448558,0.18094237,-0.08070138,9.818992
860887305839,0.22273971,-0.018234236,9.718282
860907163118,0.26374677,-0.017650193,9.670029
860927020398,0.28177,-0.018098062,9.680645
860946877679,0.21529818,-0.07855179,9.713966
860966735086,0.15079966,-0.106510445,9.727524
860986597547,0.15277451,-0.067368835,9.747063
861006454828,0.20980528,-0.12688775,9.736246
861026312235,0.23861173,-0.09138208,9.680545
861046169643,0.1605654,-0.100664414,9.642175
861066027052,0.14395958,-0.1360863,9.7494755
861085885824,0.16068292,-0.1513678,9.801064
861105743232,0.12456439,-0.23314343,9.718771
861125600641,0.18374695,-0.20433244,9.744419
861145458048,0.25369588,-0.16483337,9.674161
861165322173,0.24641345,-0.19217975,9.622662
861185179710,0.17837578,-0.1968989,9.544313
861205037245,0.19055828,-0.113792345,9.640655
861224894781,0.16105141,-0.1128698,9.818528
861244752318,-0.02739547,-0.12158615,9.916659
861264609853,0.007218206,-0.17662978,9.887878
861284470845,0.21783142,-0.08074098,9.715393
861304328382,0.24508281,-0.043407492,9.648053
861324186045,0.20441502,-0.045020632,9.636521
861344043581,0.13157655,-0.012162457,9.679129
861363901118,0.079659946,-0.003520867,9.7186365
861383765204,0.10460637,-0.054942906,9.736698
861403622996,0.10054549,-0.10542973,9.771957
861423480789,0.16616255,-0.1051823,9.759198
861443338452,0.14487842,-0.06699665,9.660295
861463196244,0.19304916,-0.07667581,9.642614
861483054037,0.22203852,0.016797774,9.736243
861502910816,0.11205347,0.023980146,9.721106
861522768480,0.11225371,0.016347012,9.700594
861542626273,0.18274534,0.04463279,9.732026
861562483936,0.21206155,-0.021094497,9.708194
861582343471,0.17161775,-0.06277645,9.677017
861602201264,0.10848688,-0.07931373,9.68081
861622059055,0.1283768,-0.14807606,9.684537
861641916975,0.09732402,-0.10801789,9.745297
861661774768,0.04072763,-0.09796936,9.834171
861681635582,0.109181724,-0.06468145,9.79018
861701493502,0.14303048,-0.087061465,9.648226
861721351423,0.19790228,-0.15401079,9.598752
861741209342,0.13917366,-0.09579221,9.610427
861761067262,0.10001299,-0.08943528,9.633414
861780925183,0.060170416,-0.078178465,9.735707
861800787588,0.105762005,-0.07439783,9.806885
861820646252,0.24105215,-0.099489786,9.783046
861840504173,0.21980274,-0.057514127,9.753898
861860362220,0.13958971,-0.069391094,9.799667
861880223444,0.11384197,-0.055933364,9.762641
861900081621,0.04130119,-0.09044922,9.654974
861919939668,0.18141621,-0.15107024,9.62982
861939797844,0.22906567,-0.091341905,9.64068
861959656021,0.18203768,-0.086164474,9.705024
861979515981,0.08742997,-0.08873585,9.786943
861999374285,0.08660397,-0.15060519,9.708628
862019232462,0.19548255,-0.17553858,9.727633
862039090637,0.18270986,-0.10936867,9.787166
862058948941,0.102875605,-0.10785793,9.739898
862078807118,0.14931282,-0.14056544,9.75477
862098666695,0.2159871,-0.14979494,9.6917
862118524999,0.25159276,-0.15883636,9.6877985
862138383304,0.22153337,-0.1475571,9.6227665
862158241607,0.12089995,-0.109810844,9.716131
862178085971,0.13999401,-0.16436982,9.797855
862197944020,0.17705593,-0.19642077,9.851967
862217802067,0.18368211,-0.20501438,9.774585
862237659987,0.27615196,-0.1634371,9.686503
862257518036,0.19523706,-0.13351496,9.722469
862277361308,0.24411401,-0.13925983,9.716625
862297218972,0.08824473,-0.07423205,9.726693
862317076509,0.111395776,-0.1441881,9.735781
862336934044,0.23566897,-0.23142475,9.666987
862356791580,0.302296,-0.24833745,9.759718
862376649117,0.16517623,-0.11109657,9.886915
862396502385,0.012996656,-0.14275856,9.689007
862416359793,0.26640844,-0.30349928,9.635654
862436217330,0.3277423,-0.18478745,9.588151
862456074737,0.20510928,-0.12271832,9.698535
862475927421,0.039459124,-0.06013668,9.85825
862495784830,0.11811046,-0.22825785,9.7282095
862515642237,0.177392,-0.23583442,9.751136
862535499517,0.21343423,-0.20399445,9.713068
862555356926,0.1398676,-0.20094389,9.775287
862575214333,0.041152224,-0.15281804,9.819908
862595068736,0.0762192,-0.2152072,9.62766
862614926017,0.23673202,-0.25852853,9.807368
862634783296,0.22999348,-0.18257844,9.646034
862654640576,0.1676101,-0.20777443,9.671278
862674497857,0.16671169,-0.21944948,9.716346
862694352247,0.12718464,-0.20753269,9.765806
862714209399,0.0922517,-0.22358797,9.804671
862734066552,0.11435239,-0.2546311,9.68171
862753923703,0.19272655,-0.31842235,9.707253
862773781257,0.15131366,-0.20715995,9.787922
862793638410,0.042457853,-0.18565004,9.691926
862813495689,0.06531264,-0.24652725,9.696697
862833352841,0.10095501,-0.26095626,9.563847
862853209994,0.05782634,-0.27870992,9.677346
862873067273,-0.053821485,-0.24645935,9.918014
862892929428,-0.14395498,-0.19487108,9.889141
862912786709,-0.037946284,-0.29810253,9.788521
862932643988,0.05478046,-0.27125004,9.570338
862952501140,0.03889576,-0.20099474,9.576244
862972358421,-0.07240767,-0.23265204,9.799516
862992219384,-0.048658997,-0.19215441,9.730245
863012076792,-0.036898017,-0.18551214,9.763147
863031934073,0.11916995,-0.19341068,9.674699
863051791480,0.11277043,-0.1685999,9.740868
863071645336,-0.089783594,-0.13505001,9.773417
863091502617,-0.023237586,-0.2115437,9.626482
863111359896,0.11512538,-0.21124505,9.7801895
863131217048,0.07579729,-0.13413881,9.683891
863151074329,0.035407715,-0.13567665,9.769449
863170931608,0.050891176,-0.18986419,9.90918
863190791911,-0.020851262,-0.08820158,9.644112
863210649192,-0.038658347,-0.11669715,9.866953
863230506471,-0.0019373094,-0.24846528,9.657894
863250363751,0.04872058,-0.24414651,9.609653
863270221032,0.0020700265,-0.0753374,9.951107
863290079786,-0.08178778,-0.010350725,9.79776
863309937066,0.05397391,-0.2285306,9.865136
863329794347,-0.008294832,-0.12657773,9.9548435
863349651626,0.024721608,-0.14999154,9.847037
863369518445,-0.0288216,-0.09665726,10.161735
863389375982,-0.097753435,-0.0048449654,9.9157915
863409233517,-0.050745577,-0.21973059,9.943625
863429090925,0.09589272,-0.28946167,9.925049
863448948462,0.03316588,-0.067469,9.786599
863468805997,-0.14378951,-0.011667634,10.009341
863488665130,-0.15388903,-0.1654187,9.881751
863508522795,-0.011758453,-0.28626457,10.024296
863528380330,-0.048118345,0.0034660161,10.011053
863548237994,-0.15920533,0.05812723,9.873046
863568095531,-0.17933962,-0.1767987,9.930365
863587951859,-0.15969929,-0.23424983,9.786355
863607809523,-0.15828414,-0.007847555,10.012421
863627667060,-0.17845584,-0.057258967,9.943903
863647524723,-0.17577972,-0.19111423,9.740643
863667382387,-0.17895657,-0.15974143,9.979742
863687239924,-0.14411293,-0.045172285,9.976335
863707105901,-0.17086154,-0.058428165,10.066698
863726963693,-0.1496293,-0.15672696,9.904337
863746821614,-0.116830856,-0.17640093,9.7207
863766679405,-0.16277625,-0.1695416,9.796313
863786535417,-0.19565831,-0.2371337,9.9578705
863806393210,-0.19923066,0.018339898,10.089063
863826251225,-0.23467065,-0.1664828,9.890814
863846109017,-0.07612626,-0.36544093,9.765808
863865966938,-0.088890046,-0.18324462,9.952659
863885826850,-0.2492044,-0.033253413,9.913086
863905684770,-0.22286056,-0.076235645,9.939122
863925542563,-0.117245086,-0.17288683,9.878492
863945400482,-0.15530987,0.056826647,9.883121
863965258274,-0.2004239,0.093157396,10.15248
863985116067,-0.2541864,0.21986593,9.977231
864004980380,-0.28176025,0.31920654,10.158277
864024838428,-0.2877023,0.5013391,10.303486
864044696349,-0.24037895,0.56815845,10.302393
864064554268,-0.05759876,0.96651065,10.52373
864084413552,-0.015675426,1.5428596,10.461856
864104271473,-0.13238807,1.9278204,10.339291
864124129520,-0.46006432,2.2799516,10.423082
864143987568,-0.7114148,2.3916225,10.912403
864163845489,-0.9424115,2.9068918,12.852418
864183703536,-0.05280724,-0.70877016,13.765619
864203550516,0.7679473,-1.717097,12.334476
864223408180,1.0300677,-4.0525627,8.879781
864243265972,-0.20490377,-2.1292536,6.875629
864263123764,-0.13759296,0.17850149,7.8968916
864282981556,1.1247075,0.7294129,9.744585
864302827054,1.8317631,1.9563546,11.201445
864322684590,0.9822739,1.8290577,10.473496
864342542126,-0.43405265,0.72918266,9.458586
864362399662,-1.3757828,-0.37419525,8.517328
864382257198,-1.1720911,0.63258344,8.418158
864402106432,-0.53914547,2.379965,8.9697895
864421963840,-1.6732551,3.5243335,9.146125
864441821120,-1.7598529,4.8509493,9.039924
864461678528,-2.1955738,5.5332093,9.133188
864481535808,-4.000069,4.812476,12.018652
864501395526,-7.6513233,2.8958316,10.26736
864521252934,-1.8262732,-4.1416364,3.9093394
864541110342,8.310437,-8.869992,8.296939
864560967750,7.219112,-6.430256,14.786036
864580825158,1.4454553,-1.2262647,8.776045
864600680006,2.9147568,-0.15828098,5.696782
864620537414,3.915167,1.1053684,8.161205
864640394694,7.034676,3.3571312,11.778118
864660252102,5.191264,-0.78941333,12.432568
864680109382,2.939919,-4.8410068,10.584729
864699965772,2.5103018,-6.424506,9.071861
864719822924,2.0284684,-7.5063767,8.293472
864739680204,-0.5141372,-6.8504486,7.891448
864759537484,-0.20294482,-2.7174964,9.461842
864779394764,0.1403254,1.9275504,11.02662
864799248606,0.55000985,3.9711723,9.437468
864819105758,0.068940505,3.0405161,7.9287167
864838963038,-0.29859862,2.1035352,8.086901
864858820190,0.4361553,0.30872908,8.300566
864878677342,0.6692706,-1.8446175,9.044691
864898533281,-1.5392767,-0.6406579,8.548124
864918390433,-1.8498679,0.14198221,8.457218
864938247585,-0.6024833,0.31396064,9.186134
864958104737,0.06876758,3.097738,9.792261
864977961889,0.2550403,2.7288754,10.49456
864997828720,-0.54848087,2.755168,11.495922
865017686000,-2.7882977,3.359972,12.25869
865037543408,-4.161313,3.0763893,11.276281
865057400688,-2.5423799,3.41591,11.386527
865077258096,-1.0092641,2.84256,12.767044
865097114675,-0.82158715,1.0783784,14.070721
865116971955,-1.4211651,0.0454622,12.260169
865136829363,0.37337384,0.20126276,10.0805855
865156686643,2.9311128,-0.08717059,12.146317
865176543923,2.8215497,-1.9629303,14.669212
865196402940,4.7459574,-3.1834388,16.86979
865216260092,14.117037,-2.726874,14.937077
865236117372,9.076648,2.8286457,8.953339
865255974652,3.5177603,2.5044174,7.2643485
865275831932,2.5558395,0.09815701,7.971646
865295700904,1.4677953,-1.7224935,8.953527
865315558440,-0.76195604,-3.5218325,7.135165
865335415976,-1.5090778,-5.4837775,5.4340563
865355273384,-4.0148764,-7.0921535,3.7711377
865375130920,-3.2958903,-1.7577417,4.219218
865394987944,0.70821476,0.9019845,3.4894068
865414845480,2.0719645,1.0179994,3.0334425
865434702888,2.1398015,0.83772266,3.2953281
865454560424,1.390619,0.833482,4.1788993
865474417960,1.1035652,0.26261738,4.6708994
865494284138,1.1116672,0.37509614,6.381917
865514141930,1.8741175,1.7787067,13.198225
865533999594,5.045711,6.5968103,26.026638
865553857258,4.152562,7.84352,24.365286
865573715050,2.0420735,6.1771426,10.843702
865593580115,3.8882856,-0.58757395,2.783288
865613438035,4.1706195,-2.2694144,2.884011
865633295955,2.1573482,-1.6501052,10.4998
865653154003,4.8554397,-13.86807,15.839511
865673011923,7.7017365,-19.075563,19.188116
865692873610,0.78807706,1.3508569,7.1826706
865712731786,2.3111858,-3.0270576,1.1949201
865732589834,2.4906456,-3.0688708,5.240071
865752448010,2.5711746,-4.4923306,9.374686
865772306186,2.5197,-8.679653,10.665931
865792165532,-2.5601366,-9.1703415,8.861191
865812023708,-7.302811,-7.0543776,7.154443
865831881884,-6.752905,-1.1567409,6.7450786
865851742615,-5.568063,-0.7116228,7.194468
865871600791,-1.6884298,0.8189278,9.933479
865891454065,4.148811,2.4112153,9.895349
865911312113,4.3256316,1.4169425,9.725605
865931170161,2.3103623,-0.09732789,8.8157215
865951028209,-0.6271887,-0.8895533,7.463798
865970886257,0.05309217,-0.16724257,9.234224
865990745170,2.8606262,2.4650965,9.71184
866010603218,-0.2912133,1.5800318,8.927902
866030461394,2.9776633,1.9277403,9.243973
866050319442,3.5725968,0.23921545,11.4492655
866070177490,3.7306337,-0.93176186,11.888463
866090029503,4.4942203,-0.38760015,12.078048
866109887551,5.0341287,1.2057179,12.064777
866129745471,4.16774,1.408371,11.912202
866149603391,4.8605843,0.83796257,10.850283
866169461439,3.180928,-1.5557092,11.001954
866189312439,1.0254318,-2.5639327,11.187539
866209170231,1.4622357,-3.826756,10.256853
866229028023,1.7066894,-5.0610814,11.298854
866248885943,-1.9173659,-3.0474243,14.75621
866268743735,-2.9212093,-3.6163754,17.965755
866288595681,0.4688046,-11.036928,17.338762
866308453473,3.5476098,-15.104039,11.205588
866328311137,3.858312,-5.664159,7.491434
866348168929,-1.0557326,-4.0949445,7.297469
866368026593,-3.5135534,-4.496234,6.0871353
866387870779,-3.6889794,-1.1255784,5.8903747
866407728187,-3.9698057,2.7672708,6.3377104
866427585595,-3.1441255,2.4146829,5.897519
866447443003,-0.18318398,0.930586,5.955856
866467300411,1.5551924,0.34824544,4.8999615
866487151632,1.8913765,1.0712581,2.6152859
866507008912,1.497778,-1.0454086,2.156338
866526866064,1.4227016,-2.6451197,1.973004
866546723344,0.9701029,-1.7702726,3.7502258
866566580496,4.3907394,-2.5540385,10.114627
866586431339,7.838603,-7.2092524,23.0623
866606288363,10.448013,-7.190611,23.850058
866626145515,8.250956,-4.026378,12.605327
866646002539,-13.96674,2.3947344,8.909536
866665859691,-16.260603,0.66461676,9.632957
866685712442,-3.039734,-9.689345,5.3600407
866705569338,5.0620365,-6.0888343,4.6592407
866725426234,-4.694099,-1.9227077,8.2106905
866745283258,-6.126917,-1.9921334,11.706297
866765140154,-4.6920414,-0.6669565,12.4125805
866785005515,-5.0110297,1.2336196,12.480335
866804862539,-3.1243017,4.2249455,12.112727
866824719563,-0.2781075,1.6414083,9.439979
866844576587,-0.29140994,-0.89843285,8.313508
866864433611,-1.0110378,-2.2564027,8.913712
866884290635,-0.58665216,-2.225279,8.624289
866904150932,0.13249685,-2.7400904,7.8257537
866924008084,1.2598413,-2.6682081,7.6339884
866943865108,1.6350895,-1.1615158,8.741746
866963722260,2.50324,-1.0183841,9.4243765
866983579412,3.0787055,-1.6335278,8.637742
867003443177,3.8796778,-1.9316471,8.217424
867023300457,4.8275948,-1.5285599,8.90759
867043157609,3.46919,0.19557977,10.37145
867063014761,2.956472,0.23261456,10.572748
867082872041,4.1293674,-1.8471793,10.4258585
867102737147,3.2152822,-2.4618037,11.031284
867122594555,1.7420228,-4.036633,12.872576
867142451963,1.8678983,-7.5619483,14.651018
867162309243,-0.4452913,-5.70963,11.5032015
867182166651,-3.5881715,-2.89009,9.997294
867202028368,-6.3148155,-1.6323804,10.598117
867221885776,-5.297654,-5.2586045,13.42274
867241743184,0.43345994,-5.344191,12.183013
867261600720,0.6636321,-1.1923115,8.693603
867281458128,-1.709356,1.2934827,7.5175705
867301319533,-2.4793062,2.7480752,8.074208
867321177197,-1.1594785,1.5342306,8.690372
867341034733,0.71443164,-0.22225267,8.299487
867360892269,0.66219056,-0.71297866,5.928346
867380749805,-1.0429232,-0.8773116,4.2251387
867400618623,-0.63229847,-1.1021041,3.3438027
867420476415,-0.554953,-1.405551,3.049915
867440334207,-2.5738838,1.5282034,5.1950045
867460192127,-4.35951,4.3827844,9.001758
867480049919,-4.3349705,2.0592427,13.420786
867499913580,5.176395,-8.517821,16.010971
867519771500,14.350489,-17.747202,10.880306
867539629548,4.4359274,-6.377331,7.5963206
867559487468,-3.3247566,2.142509,9.656921
867579345388,-2.91109,2.8550544,9.966313
867599205726,-2.6292746,0.44671416,11.313337
867619063902,-3.3098583,-0.9223241,12.488796
867638921950,-2.973965,-2.354987,12.115743
867658780126,-1.8474613,0.5050365,11.843742
867678638302,-1.9575557,1.4739586,10.904324
867698498550,-0.30326784,-0.6364405,8.358235
867718356726,1.045931,-3.4344835,8.041352
867738214902,1.4167155,-1.8798376,9.595294
867758073078,0.4555603,1.5848309,11.1548605
867777931382,0.25640658,1.2197849,11.479679
867797789387,0.2702055,-0.08554122,10.390133
867817647691,-0.27327973,-0.3109015,9.044633
867837505867,-0.52830064,-0.99612176,8.451259
867857365255,-1.1211623,-1.1027421,8.955424
867877223559,-1.3902981,-0.26698273,9.648879
867897082198,0.03310766,-0.8564595,10.0947075
867916940502,1.9599253,-2.5295274,10.139524
867936798806,3.00308,-4.028572,10.094964
867956657110,1.7477815,-3.5659711,10.287983
867976515414,-0.058825586,-1.261715,10.135118
867996370213,-1.0308187,0.2283118,9.65898
868016228389,-1.3810692,0.40537965,9.634973
868036086693,-1.0509472,0.28047416,10.170311
868055944869,-0.23462191,0.27244693,10.296037
868075803045,-0.12644863,-0.107490964,9.652519
868095657843,-0.9308142,-0.8346702,9.270927
868115515891,-1.6577307,-1.2014335,8.927746
868135374067,-1.7597611,-1.4852031,9.053468
868155232243,-0.7848289,-1.5568776,9.780335
868175090291,1.5082434,-2.572868,10.541985
868194938946,2.4850035,-4.1006527,10.723761
868214796866,1.1297923,-2.8909454,10.513685
868234654658,0.38835385,-1.380935,10.108317
868254512578,0.732556,-1.2319282,10.133126
868274370498,1.6098726,-1.9751214,10.595574
868294209882,2.4603941,-2.2573495,10.548136
868314067418,3.0095696,-2.0018842,10.392278
868333924826,2.8799696,-1.0960065,10.14917
868353782362,1.0885535,1.8595263,9.184301
868373639770,-0.009933725,2.412489,7.973307
868393489005,-0.6698383,1.5235741,7.274048
868413346285,-1.0659939,0.6461001,6.7598357
868433203565,-0.9687745,-0.54721594,7.250023
868453060973,-0.9735781,-0.824026,8.555396
868472918253,-0.9618928,-0.9707779,9.461749
868492775533,-0.93960565,-1.7292722,10.12226
868512629284,-0.5079925,-1.6652566,10.387196
868532486564,-0.09566362,-1.7294204,10.376056
868552343716,0.64525133,-1.8430905,10.3220215
868572200868,1.4261235,-1.049071,10.245525
868592058020,1.2510244,-0.6519043,10.134168
868611910697,1.0039375,-1.1428393,9.650465
868631767721,0.8486484,-1.4377697,9.290208
868651624873,0.60478216,-0.9490569,9.457777
868671481897,0.70138997,-0.6377894,10.010662
868691339049,1.0940694,-0.4093453,10.63929
868711153534,1.2351372,-0.83441424,10.501303
868731009790,1.0335418,-0.81128144,10.005444
868750866046,0.804204,-0.8204152,9.664275
868770722302,0.5562024,-1.0050106,9.243819
868790578558,0.36731356,-0.96920574,9.024942
868810448406,0.46076396,-0.82982445,9.106595
868830304790,0.65839285,-0.72163,9.539132
868850161174,0.6882268,-0.6309745,9.815533
868870017558,0.5775028,-0.5076044,9.72047
868889873942,0.51241106,-0.5605963,9.728365
868909745064,0.46283907,-0.74349666,9.726495
868929601576,0.50238794,-0.97948396,9.591485
868949458216,0.52982324,-0.8659642,9.390981
868969314856,0.5279055,-0.68308204,9.324769
868989171368,0.37116763,-0.5066389,9.59353
869009041344,0.40601468,-0.30740404,9.570844
869028898112,0.5288923,-0.17021568,9.474774
869048755008,0.7303345,-0.40129367,9.571279
869068611904,0.9284766,-0.620024,9.5644455
869088468672,0.97073114,-0.5575195,9.581334
869108335503,0.81309277,-0.47226194,9.594565
869128192527,0.6643692,-0.4901238,9.561274
869148049551,0.55671406,-0.43007335,9.628504
869167906575,0.5032297,-0.4495135,9.627775
869187763599,0.6029478,-0.8066154,9.562241
869207633148,0.74593854,-0.9880788,9.552044
869227490300,0.8211329,-0.7180704,9.649419
869247347580,0.82283056,-0.54559964,9.652134
869267204860,0.7415748,-0.5779654,9.649655
869287062140,0.65571624,-0.6572756,9.567757
869306927439,0.67407894,-0.677497,9.565027
869326784847,0.6510485,-0.634371,9.647926
869346642255,0.7395634,-0.5088301,9.608351
869366499663,0.8913455,-0.39196005,9.5451355
869386357199,0.8108738,-0.46363005,9.571026
869406223451,0.62630695,-0.5176078,9.510485
869426081115,0.54934126,-0.54109555,9.538826
869445938779,0.5808692,-0.7474283,9.662204
869465796443,0.5405739,-0.81790584,9.621715
869485654107,0.5763159,-0.80931103,9.589857
869505520420,0.62139297,-0.8616112,9.58551
869525378340,0.5219814,-0.8038803,9.5950575
869545236260,0.41475034,-0.639229,9.561737
869565094052,0.44368362,-0.66799617,9.497236
869584951972,0.458666,-0.71971035,9.583724
869604814329,0.54351616,-0.68931323,9.5282545
869624672505,0.6013542,-0.57995385,9.5968275
869644530553,0.51155233,-0.59950054,9.67725
869664388729,0.41782746,-0.54237515,9.563198
869684246777,0.41517124,-0.5652079,9.550854
869704111833,0.42890334,-0.6925902,9.592247
869723970265,0.52197266,-0.6385544,9.607186
869743828569,0.5682433,-0.5870881,9.663631
869763687001,0.5573906,-0.55396205,9.578279
869783545305,0.55193967,-0.48230028,9.538246
869803404090,0.55207676,-0.5113632,9.559566
869823262650,0.60002756,-0.5830828,9.507961
869843121082,0.6238032,-0.5135024,9.531339
869862976645,0.5104379,-0.3874424,9.688296
869882835205,0.40054032,-0.4227466,9.726686
869902696160,0.43490273,-0.49502972,9.573136
869922554720,0.50366426,-0.5876188,9.55231
869942413152,0.51460665,-0.56346655,9.611404
869962271712,0.6048239,-0.38648447,9.598461
869982130272,0.65604687,-0.5474004,9.617894
870001990332,0.64055043,-0.76978403,9.587212
870021848892,0.641738,-0.67563057,9.579446
870041707452,0.6538512,-0.5441679,9.614156
870061566012,0.6880583,-0.5212807,9.58636
870081424700,0.721252,-0.5609048,9.599809
870101285191,0.6133805,-0.58997667,9.579388
870121143879,0.4592126,-0.5122795,9.420685
870141002567,0.38300136,-0.47691828,9.464566
870160861383,0.42344958,-0.60044223,9.660623
870180720071,0.5964532,-0.60644066,9.570329
870200575527,0.6409205,-0.58122563,9.490623
870220434215,0.513193,-0.573644,9.52467
870240292903,0.41394407,-0.58948857,9.513039
870260151591,0.43061733,-0.55176395,9.630128
870280010279,0.47734314,-0.58995163,9.7997055
870299834535,0.5460866,-0.65578175,9.6928005
870319692199,0.5875379,-0.6568072,9.527976
870339549863,0.53253204,-0.54630536,9.557212
870359407399,0.48631102,-0.45694825,9.583451
870379265063,0.501438,-0.37641838,9.640426
870399119667,0.5528951,-0.5306183,9.715059
870418977331,0.5700378,-0.6758493,9.636646
870438834867,0.6122317,-0.7441651,9.602354
870458692531,0.5960643,-0.778619,9.596118
870478550067,0.5656797,-0.65448785,9.497522
870498415173,0.5480124,-0.500725,9.631133
870518272965,0.5318865,-0.62566924,9.713419
870538130629,0.56339955,-0.63541585,9.59399
870557988421,0.56387377,-0.6915537,9.563704
870577846213,0.52326494,-0.6512735,9.756385
870597702682,0.71726054,-0.63262945,9.757933
870617560474,0.858219,-0.4272833,9.735117
870637418138,0.68429,-0.41220278,9.696686
870657275930,0.41357657,-0.47027048,9.683428
870677133594,0.4918212,-0.5961623,9.653168
870696991788,0.7809747,-0.72228014,9.694093
870716849452,0.88993156,-0.6830998,9.582508
870736707244,0.71784216,-0.45736197,9.635697
870756564908,0.58454114,-0.3769317,9.720709
870776422700,0.5841482,-0.41082752,9.66661
870796283131,0.61217153,-0.5212042,9.778632
870816141051,0.63968694,-0.62056106,9.653073
870835998843,0.5969646,-0.48134378,9.5453005
870855856635,0.4179468,-0.4607025,9.6582575
870875714427,0.35654882,-0.46208397,9.676808
870895572487,0.45986074,-0.49391755,9.709738
870915430279,0.62102455,-0.7110569,9.853122
870935288071,0.71127886,-0.8256993,9.864413
870955145991,0.64731723,-0.7273752,9.72229
870975003783,0.3502552,-0.5729692,9.65762
870994867535,0.15670075,-0.280778,9.692914
871014725455,0.33908468,-0.083551385,9.696443
871034583375,0.67808276,-0.27568194,9.752116
871054441295,0.70955366,-0.50419825,9.720412
871074299215,0.45383838,-0.61217886,9.598511
871094159585,0.34210786,-0.5860757,9.65541
871114017505,0.58473605,-0.6089336,9.73754
871133875553,0.7257149,-0.47022223,9.71069
871153733473,0.6499352,-0.37831464,9.644502
871173591521,0.46039248,-0.43402657,9.719096
871193454256,0.35762337,-0.5641886,9.635492
871213312304,0.41645062,-0.6029476,9.655863
871233170352,0.51871955,-0.58906865,9.801166
871253028400,0.55747586,-0.5366334,9.9051285
871272886448,0.49381495,-0.54760617,9.918904
871292744496,0.4775527,-0.6016479,9.760166
871312602013,0.6297724,-0.6761106,9.574479
871332460061,0.60995823,-0.5089831,9.612428
871352318109,0.48157722,-0.38275045,9.710768
871372176157,0.50219196,-0.41371277,9.664203
871392034205,0.5556022,-0.4412491,9.621692
871411892070,0.49357778,-0.5703177,9.661505
871431750118,0.33833802,-0.540171,9.675273
871451608166,0.29756492,-0.4846708,9.647315
871471466214,0.3302736,-0.4678246,9.710162
871491324134,0.40100652,-0.51067907,9.68232
871511187374,0.41920155,-0.502627,9.621441
871531045550,0.484333,-0.5289233,9.677512
871550903726,0.52019185,-0.46813592,9.753202
871570761902,0.56025326,-0.4918684,9.709619
871590620078,0.5518829,-0.5426097,9.649917
871610474804,0.50967145,-0.613078,9.712931
871630332980,0.48791832,-0.62563336,9.7703905
871650191156,0.3975202,-0.58776027,9.820293
871670049204,0.30628538,-0.5055266,9.749055
871689907380,0.28362638,-0.6233243,9.639524
871709768792,0.31469426,-0.7742547,9.750479
871729627096,0.39592388,-0.7850051,9.805836
871749485400,0.48408398,-0.56451714,9.771168
871769343704,0.47560382,-0.52661604,9.727971
871789201880,0.46942127,-0.5259287,9.6901455
871809057825,0.49246278,-0.48422867,9.706888
871828916129,0.556873,-0.45691392,9.680797
871848774433,0.48194802,-0.39110842,9.682509
871868636520,0.37797862,-0.4458402,9.602392
871888494824,0.5063229,-0.54115564,9.662638
871908349367,0.58212537,-0.5741845,9.676362
871928207415,0.4863358,-0.6045805,9.708904
871948065591,0.39964235,-0.6266653,9.729847
871967923767,0.43141323,-0.6788449,9.710066
871987781815,0.50939083,-0.61671966,9.6876745
872007638656,0.47837076,-0.632912,9.7803755
872027496704,0.46231517,-0.6719582,9.687079
872047354752,0.48764932,-0.5492542,9.689237
872067212800,0.46227336,-0.5135751,9.743549
872087070848,0.4555326,-0.53238565,9.739567
872106935040,0.5146559,-0.62796456,9.702832
872126793344,0.5539839,-0.649578,9.64559
872146651520,0.42041278,-0.54180586,9.658328
872166509696,0.3089946,-0.40999568,9.625388
872186367872,0.40848106,-0.43420458,9.717958
872206218458,0.49718162,-0.571804,9.704337
872226076506,0.47628483,-0.56504524,9.69921
872245934554,0.32828215,-0.57420564,9.780764
872265792602,0.31470424,-0.5694492,9.676339
872285650650,0.4738773,-0.541378,9.615413
872305502499,0.6474562,-0.6130719,9.668449
872325360419,0.6185242,-0.4923365,9.753679
872345218339,0.51220334,-0.42558482,9.795413
872365076259,0.51975095,-0.5927756,9.784304
872384934179,0.5935149,-0.69723326,9.738032
872404791867,0.5797575,-0.65126264,9.678853
872424649787,0.5138614,-0.5353877,9.6462555
872444507707,0.5419505,-0.5058418,9.668972
872464365499,0.6194856,-0.49805564,9.719625
872484223419,0.65684825,-0.4591503,9.738458
872504077310,0.6893347,-0.46181154,9.783666
872523935102,0.7792425,-0.51949316,9.823188
872543792766,0.67490995,-0.42226222,9.677726
872563650558,0.42353475,-0.2624993,9.591564
872583508350,0.3661876,-0.23624434,9.584053
872603361412,0.51936233,-0.48562637,9.757291
872623219077,0.48600787,-0.64917654,9.795374
872643076740,0.31589845,-0.6017756,9.592914
872662934404,0.2431736,-0.50901043,9.573434
872682792069,0.2837125,-0.5098257,9.755933
872702655687,0.418655,-0.62129796,9.836852
872722513479,0.37824658,-0.63278514,9.758735
872742371272,0.23386881,-0.5725212,9.7104225
872762229063,0.31707188,-0.5185348,9.631004
872782083846,0.44044638,-0.45097023,9.676488
872801941639,0.4791678,-0.5560175,9.711839
872821799430,0.45129204,-0.56939274,9.757579
872841657094,0.4138718,-0.58347625,9.775286
872861514887,0.45116174,-0.50930816,9.731674
872881372678,0.5876477,-0.3594549,9.668451
872901228049,0.590641,-0.29630345,9.699856
872921085842,0.6288861,-0.33035266,9.730233
872940943505,0.6703162,-0.33719823,9.655479
872960801169,0.5881127,-0.40651324,9.682954
872980658834,0.39724705,-0.40273595,9.6527
873000519246,0.32979763,-0.52780867,9.663561
873020376910,0.36145076,-0.6201479,9.710229
873040234703,0.42413282,-0.6278106,9.731758
873060092494,0.33138573,-0.5118649,9.799741
873079950554,0.23298408,-0.46869782,9.7762575
873099808219,0.28676656,-0.5107899,9.659371
873119666010,0.3865606,-0.62486786,9.664182
873139523802,0.43059862,-0.65885967,9.708623
873159381595,0.2749785,-0.45969772,9.67222
873179239258,0.31076014,-0.535587,9.690835
873199096751,0.48735756,-0.670722,9.697594
873218954544,0.4711104,-0.6025034,9.708215
873238812207,0.41314247,-0.4537102,9.691943
873258669871,0.4608203,-0.5191795,9.721807
873278527664,0.53770393,-0.5984545,9.728537
873298385010,0.4694279,-0.5626574,9.71089
873318242674,0.3619932,-0.58996576,9.682219
873338100467,0.30566993,-0.5771531,9.671687
873357958130,0.39059392,-0.6084936,9.636684
873377820737,0.50650805,-0.63472825,9.6938925
873397678530,0.46865714,-0.55764973,9.715908
873417536193,0.4301902,-0.518395,9.700357
873437393985,0.44348574,-0.50136876,9.706093
873457251778,0.5111334,-0.5103771,9.658368
873477109569,0.5203621,-0.46346715,9.678081
873496978814,0.4923068,-0.5467184,9.710712
873516836735,0.4133909,-0.5327345,9.733958
873536694782,0.36126405,-0.574277,9.714611
873556552830,0.37105525,-0.6395702,9.776016
873576410751,0.44077447,-0.68250406,9.773334
873596272972,0.4708606,-0.6346807,9.686343
873616131020,0.38145697,-0.49889126,9.629347
873635989197,0.25401586,-0.3763722,9.651516
873655847244,0.331356,-0.4633573,9.655718
873675705420,0.5520673,-0.64615923,9.718488
873695563469,0.5371265,-0.6247735,9.72216
873715434261,0.3418389,-0.47642684,9.660794
873735292693,0.33534274,-0.48379627,9.685967
873755151126,0.41834918,-0.55994314,9.728203
873775009557,0.4140174,-0.535655,9.687933
873794867934,0.41433558,-0.5574433,9.702128
873814726367,0.3508849,-0.61117065,9.715223
873834584926,0.30823633,-0.628422,9.672285
873854443358,0.35058153,-0.51810116,9.658368
873874301791,0.37924707,-0.47010297,9.659176
873894158091,0.30900088,-0.48755178,9.651899
873914016651,0.33816242,-0.56923443,9.650991
873933875084,0.34609395,-0.6601848,9.709996
873953733515,0.29280755,-0.63826895,9.723154
873973591947,0.32419145,-0.67550087,9.736062
873993450508,0.37374133,-0.65623116,9.709691
874013313693,0.41947675,-0.5749401,9.645843
874033172381,0.36055592,-0.5094719,9.714271
874053030942,0.3242684,-0.6274428,9.798684
874072889629,0.3034095,-0.65919685,9.72783
874092745869,0.27381903,-0.67895234,9.640359
874112604558,0.2546407,-0.6370773,9.6429615
874132463117,0.32768917,-0.5903226,9.704115
874152321677,0.389562,-0.5465377,9.744571
874172180238,0.34303713,-0.5359813,9.722464
874192035055,0.2564099,-0.46638846,9.654181
874211893615,0.27548996,-0.4763788,9.635706
874231752048,0.32928255,-0.54657245,9.718345
874251610607,0.37805182,-0.5704582,9.62493
874271469039,0.33644298,-0.49390334,9.731112
874291327600,0.2549196,-0.53152025,9.768652
874311179418,0.2572964,-0.5456292,9.694558
874331037850,0.33537024,-0.64512736,9.67669
874350896283,0.36675704,-0.6394394,9.726737
874370754714,0.35747865,-0.5482934,9.666176
874390610714,0.28952712,-0.58519363,9.68423
874410469019,0.2357326,-0.57835835,9.648921
874430327450,0.29085702,-0.60892713,9.603535
874450185754,0.3631177,-0.57028,9.697751
874470044187,0.3981256,-0.59065664,9.785389
874489902490,0.37859845,-0.47087407,9.787719
874509760282,0.29137814,-0.52287555,9.763538
874529618587,0.23852733,-0.5182384,9.769549
874549476890,0.2318752,-0.7105404,9.706819
874569335194,0.32573974,-0.66812307,9.579098
874589193627,0.273034,-0.5153299,9.574448
874609046609,0.21977586,-0.42623508,9.628005
874628904785,0.28152165,-0.5722547,9.756409
874648763090,0.40757933,-0.6749344,9.783264
874668621265,0.31212747,-0.53204924,9.753942
874688484640,0.20761865,-0.43288392,9.7217455
874708342945,0.2397106,-0.5832674,9.747188
874728201120,0.36823118,-0.6634699,9.734218
874748059424,0.37883312,-0.5544196,9.597919
874767917729,0.29626635,-0.42293066,9.574042
874787776032,0.25819436,-0.46038616,9.692115
874807633123,0.32766187,-0.5732114,9.733201
874827491300,0.38101307,-0.5809396,9.793046
874847349603,0.31304744,-0.48750025,9.728342
874867207779,0.26313287,-0.47441572,9.696973
874887066084,0.29268208,-0.56647587,9.695688
874906923150,0.29057539,-0.4888421,9.696403
874926781326,0.28625032,-0.51696694,9.659484
874946639375,0.27690512,-0.5490411,9.687254
874966497550,0.27221638,-0.5514352,9.684957
874986360224,0.30064481,-0.53200716,9.681917
875006218401,0.25663108,-0.56219983,9.728933
875026076704,0.2505456,-0.6168069,9.738096
875045934880,0.27329105,-0.5631401,9.713846
875065793057,0.21779737,-0.50023264,9.709539
875085651360,0.18399799,-0.45787224,9.66478
875105510944,0.21918818,-0.53108656,9.645835
875125369249,0.35414878,-0.56614894,9.669214
875145227552,0.46048564,-0.48306006,9.694827
875165085856,0.48204133,-0.42994764,9.682085
875184944161,0.4469591,-0.4589186,9.656611
875204798046,0.5029522,-0.5118854,9.650886
875224656222,0.5323773,-0.5520047,9.665625
875244514399,0.48824495,-0.57737815,9.712874
875264372574,0.4366328,-0.5929447,9.741371
875284230750,0.32024923,-0.576603,9.644544
875304088927,0.27498624,-0.61741847,9.615962
875323945648,0.3269392,-0.6401139,9.658073
875343803824,0.32872146,-0.589735,9.718126
875363662001,0.26759472,-0.5999325,9.759225
875383520304,0.21967454,-0.56122255,9.802887
875403375597,0.27405104,-0.5921367,10.179926
875423233774,0.37094,-0.6623887,9.466518
875443091821,0.31714198,-0.47665402,9.138402
875462949997,0.15293597,-0.40289637,9.572458
875482808174,0.1699712,-0.5753257,9.805591
875502669293,0.40887445,-0.58471906,9.807182
875522527597,0.6072873,-0.72652334,9.8204975
875542385774,0.40386373,-0.44159886,9.67846
875562244077,0.18142831,-0.23044585,9.557412
875582102253,0.33179584,-0.46014512,9.657478
875601960430,0.53879464,-0.7246441,9.816341
875621825023,0.637802,-0.7190248,9.749781
875641683455,0.4657607,-0.50063455,9.607844
875661541760,0.30356124,-0.42689887,9.639946
875681400191,0.38653696,-0.49371478,9.746469
875701264316,0.5590491,-0.49914283,9.768255
875721122877,0.5878339,-0.39398643,9.73291
875740981308,0.51262474,-0.2585463,9.747508
875760839868,0.5253792,-0.37150133,9.758665
875780698301,0.58210707,-0.4498839,9.659976
875800556921,0.608865,-0.46762124,9.6274
875820415481,0.5588495,-0.40667534,9.670141
875840274042,0.41481915,-0.37678865,9.735063
875860132473,0.3780004,-0.4625405,9.659098
875879991033,0.39927858,-0.49473417,9.666158
875899849594,0.3848293,-0.5018665,9.754475
875919703126,0.35228747,-0.5290447,9.753934
875939561558,0.36382744,-0.5200802,9.723906
875959419863,0.29291582,-0.4755881,9.742345
875979278166,0.23668239,-0.45247203,9.708508
875999144595,0.32973742,-0.4961069,9.657019
876019003028,0.3579309,-0.4641932,9.616951
876038861459,0.33980805,-0.38628042,9.625411
876058720019,0.33342013,-0.39840302,9.746968
876078578452,0.39953768,-0.520144,9.785819
876098437011,0.4590906,-0.5060743,9.782844
876118296899,0.46189937,-0.41656506,9.72425
876138155332,0.3359279,-0.3525844,9.676658
876158013891,0.25784498,-0.4236693,9.709555
876177872451,0.37556505,-0.49402758,9.683012
876197731012,0.49150968,-0.4949433,9.658208
876217585731,0.35252526,-0.3474771,9.648977
876237444163,0.3048086,-0.39371935,9.674311
876257302596,0.3237008,-0.34167403,9.750297
876277160899,0.4119853,-0.46079376,9.823906
876297016771,0.40997958,-0.35617998,9.685835
876316875204,0.43335578,-0.42312202,9.638628
876336733635,0.39511812,-0.3057927,9.654364
876356592067,0.45464855,-0.3766023,9.624819
876376450500,0.459597,-0.36159873,9.704089
876396308931,0.45608896,-0.4260467,9.793414
876416160451,0.46646127,-0.35997307,9.718912
876436018756,0.38551047,-0.3635804,9.737043
876455877059,0.32509208,-0.44801506,9.721927
876475735363,0.3713309,-0.51750386,9.657788
876495593668,0.41272196,-0.48461688,9.666007
876515456835,0.3714813,-0.46930772,9.624465
876535315267,0.31334576,-0.4040245,9.609619
876555173700,0.398511,-0.48720407,9.773118
876575032131,0.4860265,-0.50804424,9.842359
876594891127,0.51673007,-0.42577273,9.776233
876614749560,0.41440815,-0.33472154,9.703729
876634608119,0.34987578,-0.34953818,9.676752
876654466551,0.44519147,-0.38539678,9.681719
876674324984,0.53888255,-0.41843212,9.676672
876694183543,0.47905874,-0.35217285,9.656074
876714040701,0.4263174,-0.27692607,9.660017
876733899134,0.4520889,-0.34691554,9.744871
876753757565,0.5086465,-0.4036634,9.730333
876773616125,0.47749752,-0.3663917,9.647233
876793474558,0.43126756,-0.34808964,9.736141
876813325954,0.46192816,-0.38024867,9.791254
876833184258,0.5024771,-0.39993778,9.793025
876853042435,0.4171014,-0.37772635,9.750498
876872900738,0.41602275,-0.48672608,9.6801
876892757909,0.63034385,-0.55535114,9.623033
876912616086,0.6045627,-0.36572465,9.653271
876932474389,0.40819773,-0.22975521,9.710348
876952332565,0.30344096,-0.32068896,9.713573
876972190742,0.4520177,-0.47863036,9.688601
876992048917,0.5070463,-0.404415,9.646358
877011905021,0.4254397,-0.26638073,9.633644
877031763198,0.32549083,-0.24815847,9.708602
877051621245,0.3371901,-0.3942724,9.724947
877071479293,0.4062394,-0.44872215,9.6748085
877091337470,0.35761562,-0.4296829,9.656944
877111190269,0.35811865,-0.43693972,9.662436
877131048317,0.39035124,-0.39317828,9.673508
877150906238,0.40819788,-0.38258255,9.694235
877170764285,0.4049453,-0.38373306,9.698474
877190622205,0.4434674,-0.40794247,9.728571
877210480126,0.4280882,-0.38227203,9.726319
877230345085,0.41862124,-0.38613805,9.734219
877250203133,0.4085753,-0.44171333,9.698187
877270061182,0.40528408,-0.51707846,9.651259
877289919357,0.48020345,-0.5397928,9.713547
877309782720,0.480643,-0.41630614,9.723903
877329640897,0.41543344,-0.32643074,9.676214
877349499072,0.32756534,-0.32038498,9.699988
877369357376,0.38328782,-0.42867413,9.717774
877389215553,0.43709967,-0.4355958,9.648865
877409075989,0.3516715,-0.36994946,9.647025
877428934165,0.29693046,-0.4103611,9.628851
877448792470,0.3376781,-0.476004,9.6538925
877468650773,0.3804032,-0.50275224,9.761278
877488509077,0.3539723,-0.46885207,9.739251
877508367254,0.3345571,-0.4227806,9.67619
877528234785,0.36886647,-0.46314868,9.772817
877548093217,0.41856954,-0.4410624,9.701078
877567951650,0.4186529,-0.37854624,9.692557
877587810081,0.34346983,-0.4119773,9.662689
877607674269,0.31703827,-0.47693616,9.678392
877627532830,0.44447914,-0.52450955,9.715578
877647391517,0.42523074,-0.4420801,9.721068
877667250077,0.37196058,-0.37637496,9.705668
877687108766,0.39742705,-0.3915433,9.703488
877706972194,0.50897974,-0.39380905,9.710099
877726831010,0.50493073,-0.26166424,9.691537
877746689827,0.41682455,-0.27927977,9.674669
877766548514,0.35963398,-0.3739698,9.702044
877786407330,0.41841185,-0.48429093,9.695544
877806266019,0.48193645,-0.4415099,9.699977
877826122774,0.50173354,-0.4154132,9.737287
877845981590,0.48152265,-0.32495388,9.737329
877865840279,0.4790029,-0.3057585,9.662136
877885699094,0.49243063,-0.3669079,9.700263
877905568138,0.44734693,-0.37023804,9.734289
877925426955,0.46303806,-0.4458321,9.682596
877945285898,0.48585403,-0.44492447,9.662854
877965144714,0.47005993,-0.4498561,9.593568
877985003659,0.38649738,-0.38128948,9.633578
878004854599,0.4042309,-0.49684694,9.740563
878024713287,0.43732068,-0.5205232,9.753415
878044571976,0.43741974,-0.50250053,9.719178
878064430663,0.4020163,-0.41449168,9.721669
878084289351,0.38738704,-0.41372463,9.729293
878104148040,0.415046,-0.41333702,9.692374
878124003978,0.43448177,-0.403536,9.627958
878143862666,0.40211293,-0.40867332,9.633235
878163721355,0.3959304,-0.44961825,9.685657
878183580042,0.38371512,-0.43944564,9.731684
878203436615,0.33845124,-0.4583416,9.801855
878223295304,0.27359915,-0.41258428,9.665364
878243153863,0.3207158,-0.44588944,9.664942
878263012551,0.39320877,-0.43828967,9.675987
878282871240,0.29395047,-0.29300332,9.68051
878302729927,0.19609007,-0.37853613,9.6953535
878322582361,0.26346633,-0.56748056,9.711984
878342440922,0.3475101,-0.5147325,9.722844
878362299481,0.30476308,-0.397678,9.739704
878382158041,0.22514528,-0.43156388,9.726433
878402016602,0.28538182,-0.5004449,9.7439165
878421867536,0.35693282,-0.42459196,9.762914
878441725968,0.41378343,-0.3775434,9.673774
878461584273,0.3837778,-0.3683222,9.621071
878481442704,0.30724788,-0.40680373,9.730839
878501300441,0.31839797,-0.41054064,9.814728
878521158746,0.4080615,-0.49963912,9.774976
878541017049,0.37446007,-0.48619345,9.696824
878560875481,0.23294222,-0.31754574,9.639688
878580733786,0.256098,-0.40209582,9.67595
878600592089,0.36739087,-0.52058893,9.804413
878620450599,0.3013924,-0.48365587,9.670805
878640308904,0.20058955,-0.40482444,9.588459
878660167207,0.1802961,-0.44357067,9.673603
878680025511,0.3001314,-0.5658844,9.738163
878699883816,0.36631715,-0.48391357,9.681793
878719738299,0.2752464,-0.40365142,9.738705
878739596475,0.26500165,-0.43462795,9.718653
878759454652,0.36598316,-0.43057933,9.70895
878779312827,0.42653826,-0.3833691,9.741
878799170875,0.38267118,-0.38870487,9.725788
878819029052,0.38115206,-0.4374689,9.664631
878838885583,0.31929633,-0.41056448,9.597717
878858743631,0.319807,-0.41772273,9.627487
878878601808,0.42357102,-0.39952332,9.700533
878898459855,0.4004788,-0.42528698,9.815772
878918319037,0.37675217,-0.39548337,9.752618
878938177214,0.34823516,-0.3863954,9.697282
878958035261,0.3447944,-0.38802212,9.730652
878977893437,0.3707475,-0.46615744,9.727359
878997751486,0.41973758,-0.5115894,9.729443
879017608661,0.3659392,-0.46187168,9.692894
879037466709,0.24415815,-0.3571839,9.666227
879057324758,0.28103444,-0.42580336,9.665666
879077182933,0.3664358,-0.40928775,9.71015
879097040981,0.34046167,-0.3769268,9.68371
879116899030,0.2788441,-0.35123953,9.68854
879136765446,0.30512962,-0.46021533,9.716669
879156623750,0.35160553,-0.5048797,9.717425
879176481927,0.28829178,-0.43332237,9.708308
879196340230,0.26990163,-0.4445189,9.6875725
879216202325,0.26309738,-0.43427026,9.670514
879236060758,0.31822437,-0.4547024,9.674242
879255919061,0.31287885,-0.43585974,9.688979
879275777365,0.2816967,-0.4361749,9.71404
879295635670,0.26865634,-0.44397533,9.726193
879315493449,0.29182097,-0.50532687,9.727078
879335351753,0.32122254,-0.46502408,9.657772
879355210186,0.2219228,-0.34542587,9.676685
879375068489,0.18799034,-0.46129987,9.761444
879394926793,0.2776609,-0.5329564,9.740354
879414785226,0.23887616,-0.43558595,9.7495985
879434644937,0.092246905,-0.36671925,9.688897
879454503241,0.15987138,-0.44485316,9.674591
879474361674,0.41777292,-0.5721111,9.717981
879494219977,0.42578,-0.3407959,9.718289
879514091343,0.17203863,-0.05104216,9.646843
879533950160,0.19205306,-0.3267305,9.68721
879553808847,0.3483522,-0.59664595,9.602432
879573667535,0.3551367,-0.43337137,9.32085
879593526224,0.15837495,-0.21630508,9.775086
879613385039,0.1699656,-0.54915816,9.981951
879633241405,0.40309465,-0.64360076,9.836858
879653100094,0.3486748,-0.5211157,9.728756
879672958781,0.086119205,-0.28452048,9.644416
879692817469,0.10723778,-0.3450992,9.656484
879712676158,0.34704354,-0.6294061,9.657354
879732539788,0.44349253,-0.5293161,9.669335
879752398476,0.22902687,-0.3255776,9.688375
879772257293,0.10498993,-0.34166807,9.696914
879792116108,0.29176617,-0.56940234,9.754616
879811969490,0.42758435,-0.5626592,9.765383
879831828307,0.36434093,-0.4125319,9.700783
879851686994,0.20811412,-0.36072585,9.7164345
879871545682,0.2351323,-0.5281241,9.76878
879891404371,0.3474603,-0.5665002,9.629588
879911263186,0.30722022,-0.46798235,9.635962
879931128918,0.22928198,-0.44172886,9.694595
879950987607,0.27883652,-0.5292045,9.709911
879970846422,0.3431803,-0.54713094,9.726032
879990705110,0.26432642,-0.42218187,9.674808
880010563927,0.15846431,-0.337909,9.613549
880030428509,0.12096931,-0.44598898,9.69552
880050287453,0.19226944,-0.5458957,9.733119
880070146270,0.20936544,-0.5551524,9.705384
880090005085,0.16758212,-0.53979504,9.672696
880109863401,0.17101762,-0.50625867,9.69019
880129722218,0.2716242,-0.55302083,9.687538
880149581033,0.37196285,-0.5101584,9.7294235
880169439849,0.35116884,-0.5091479,9.765148
880189298794,0.28897807,-0.45024833,9.70499
880209157609,0.35038325,-0.4489746,9.679291
880229013079,0.42197925,-0.42511868,9.627839
880248871896,0.42743486,-0.34330612,9.580062
880268730711,0.4094998,-0.39400294,9.655351
880288589527,0.37902296,-0.51873773,9.7392435
880308448344,0.38939542,-0.49575147,9.67706
880328295524,0.35522875,-0.42935058,9.742088
880348154084,0.28569713,-0.5142784,9.786993
880368012773,0.28939435,-0.5788775,9.716184
880387871332,0.37398666,-0.52209,9.631436
880407725377,0.31867853,-0.3597189,9.602532
880427583810,0.1998667,-0.41092917,9.691596
880447442241,0.25888723,-0.5873967,9.734209
880467300801,0.32392853,-0.56008977,9.722963
880487159234,0.31501967,-0.3965723,9.658394
880507017793,0.19186412,-0.38152388,9.742342
880526874605,0.10902701,-0.51529247,9.758876
880546733038,0.21594962,-0.52369934,9.731294
880566591469,0.31370956,-0.4767079,9.683177
880586449901,0.2746793,-0.36415803,9.701602
880606308334,0.22263934,-0.39664602,9.637298
880626160176,0.19295153,-0.44450003,9.624945
880646018480,0.19342774,-0.54748434,9.685613
880665876657,0.1911125,-0.54510397,9.678806
880685734960,0.17160359,-0.5452139,9.741673
880705593264,0.15911727,-0.5741515,9.755382
880725451569,0.170681,-0.5011939,9.675669
880745316845,0.16335717,-0.42347288,9.689007
880765175277,0.1395171,-0.488357,9.745135
880785033710,0.13769272,-0.5035649,9.713173
880804892141,0.13155267,-0.54800445,9.711034
880824744082,0.027954591,-0.5345136,9.741322
880844602387,0.07287525,-0.5953217,9.70356
880864460690,0.18293896,-0.532866,9.655572
880884318994,0.12866077,-0.46503857,9.671515
880904177171,0.17294207,-0.48731315,9.723198
880924037284,0.2809758,-0.5322075,9.752251
880943895460,0.27837944,-0.5008429,9.71277
880963753765,0.23489738,-0.36108336,9.653611
880983611940,0.15895908,-0.37791696,9.625029
881003470244,0.14945473,-0.4664232,9.692042
881023328421,0.21443321,-0.5682755,9.69488
881043189674,0.2765881,-0.5493636,9.676704
881063047978,0.20815171,-0.4023573,9.757271
881082906283,0.15002163,-0.37735036,9.705967
881102764458,0.19125374,-0.43051007,9.722897
881122624482,0.1959329,-0.46317902,9.725228
881142482787,0.15341434,-0.36566487,9.657229
881162341090,0.14856008,-0.421542,9.631443
881182199394,0.14288011,-0.46329057,9.711077
881202057827,0.1338568,-0.45181093,9.715766
881221921127,0.17949392,-0.49310693,9.663893
881241779559,0.17390794,-0.43582574,9.787269
881261637864,0.16441669,-0.44588438,9.800744
881281496295,0.17036676,-0.41530076,9.661102
881301354727,0.07487153,-0.3605327,9.662413
881321213160,0.041682985,-0.37665242,9.660442
881341077473,0.15796158,-0.45281926,9.619617
881360936033,0.17209643,-0.39952487,9.566567
881380794594,0.07751006,-0.30701405,9.63107
881400653153,0.044890687,-0.39221555,9.81313
881420513133,0.07642963,-0.5540547,9.882394
881440371694,0.11937025,-0.51875216,9.800565
881460230253,0.08243077,-0.41222414,9.6711035
881480088813,0.027169885,-0.32072192,9.676526
881499947374,-0.03483556,-0.38678706,9.71072
881519812656,0.029823853,-0.62266225,9.693866
881539671344,0.10658036,-0.59436816,9.66415
881559530033,0.07620917,-0.36175758,9.728744
881579388848,0.09120992,-0.36703554,9.747559
881599247536,0.10526049,-0.4785794,9.7328205
881619106225,0.099714026,-0.5020403,9.683523
881638966911,0.03858276,-0.4175796,9.700615
881658825855,0.07703957,-0.48988098,9.744349
881678684672,0.19581263,-0.5422653,9.647973
881698543615,0.155867,-0.3932714,9.632865
881718407557,0.06938611,-0.36690903,9.760621
881738266630,0.081901126,-0.46850643,9.6932955
881758125701,0.17391428,-0.6075893,9.711729
881777984645,0.24694747,-0.55314684,9.774699
881797843718,0.16785489,-0.46193954,9.751087
881817702661,0.14259946,-0.43348613,9.623014
881837561538,0.14563932,-0.49436536,9.61123
881857420611,0.10573616,-0.5425795,9.671969
881877279554,0.07873588,-0.53014904,9.75004
881897138626,0.09543676,-0.55750954,9.764665
881916997699,0.14724405,-0.518078,9.679279
881936856957,0.1565413,-0.41943026,9.654433
881956715901,0.13948737,-0.35906237,9.698014
881976574846,0.14044756,-0.4333764,9.749609
881996433789,0.17595267,-0.49532157,9.700306
882016297737,0.14316261,-0.47069958,9.66609
882036156810,0.13655935,-0.4134635,9.699902
882056015881,0.19081007,-0.38699386,9.702686
882075874825,0.22139263,-0.50589025,9.736158
882095733898,0.25662556,-0.5302354,9.696496
882115592969,0.23176047,-0.35917467,9.649127
882135454747,0.17406484,-0.34051618,9.685642
882155313820,0.20691203,-0.49059477,9.649536
882175173019,0.22948575,-0.4975059,9.617739
882195032091,0.13319503,-0.43502566,9.69417
882214891292,0.12592414,-0.4730847,9.732734
882234745465,0.19103274,-0.5281425,9.6609535
882254604537,0.1865551,-0.4305648,9.685952
882274463482,0.13668567,-0.44827986,9.70415
882294322553,0.13430692,-0.4419676,9.705143
882314179353,0.17164958,-0.5044173,9.69772
882334038426,0.21163324,-0.4574414,9.594941
882353897369,0.11605767,-0.38000253,9.641747
882373756441,0.091926254,-0.49778894,9.7390785
882393615514,0.22368962,-0.58922225,9.715146
882413474457,0.35821903,-0.54100317,9.631101
882433324965,0.28734276,-0.36920184,9.740222
882453183654,0.20322086,-0.46001896,9.786071
882473042469,0.24296641,-0.5394035,9.719845
882492901285,0.28675538,-0.51713365,9.712826
882512760102,0.25517675,-0.43380985,9.690773
882532618428,0.26441902,-0.48101217,9.638206
882552477116,0.28196546,-0.53177893,9.66694
882572335933,0.27592775,-0.48674443,9.657952
882592194748,0.23393701,-0.45044804,9.607315
882612045646,0.14532821,-0.45764515,9.692367
882631904335,0.16547354,-0.5048277,9.764423
882651763022,0.2430885,-0.56771773,9.732221
882671621582,0.24140052,-0.49196973,9.752062
882691480271,0.18945536,-0.39929157,9.783307
882711338830,0.269963,-0.45510504,9.655364
882731191240,0.24020472,-0.39818743,9.616654
882751049801,0.25957718,-0.45398796,9.627565
882770908232,0.33853486,-0.436513,9.687781
882790766664,0.40317914,-0.4402858,9.631409
882810625097,0.3701396,-0.3137839,9.63365
882830476573,0.24181506,-0.39650053,9.69458
882850335005,0.1233913,-0.44978845,9.849648
882870193310,0.12789987,-0.58312285,9.874555
882890051613,0.16798842,-0.5650332,9.718646
882909909917,0.051167924,-0.41289428,9.656819
882929768222,-0.065612055,-0.3805849,9.644252
882949631645,0.035851825,-0.41342643,9.653688
882969490077,0.15257537,-0.51490813,9.643883
882989348382,0.060703974,-0.4789634,9.678116
883009206813,0.00755617,-0.41574413,9.719742
883029072809,0.04541028,-0.40497297,9.779226
883048931242,0.12133497,-0.5263347,9.846301
883068789801,0.13716486,-0.44081095,9.716496
883088648361,0.024900751,-0.3632943,9.685995
883108506794,-0.03303431,-0.4515829,9.622405
883128369272,0.12479878,-0.5363199,9.615301
883148227832,0.24135898,-0.49849162,9.660087
883168086521,0.16675445,-0.39383796,9.779581
883187945080,0.11880251,-0.40417552,9.833767
883207803768,0.14660622,-0.42463708,9.741986
883227662329,0.13684233,-0.35973427,9.675828
883247516579,0.15110315,-0.3974278,9.659973
883267375011,0.15322587,-0.4332703,9.692628
883287233444,0.1682903,-0.45927435,9.620041
883307092003,0.17207019,-0.3784369,9.559401
883326950057,0.12122916,-0.30254984,9.646649
883346808490,0.2200301,-0.39479733,9.813404
883366666921,0.36076242,-0.58463883,9.855207
883386525481,0.24959947,-0.40605557,9.758737
883406383914,0.08950313,-0.2637952,9.689756
883426246568,0.13530251,-0.45617384,9.685779
883446105000,0.26977134,-0.6020263,9.729531
883465963561,0.22748365,-0.42125973,9.651644
883485822120,0.13090648,-0.25234035,9.601543
883505680552,0.1395199,-0.39687917,9.657459
883525539113,0.20067747,-0.5094603,9.710116
883545401793,0.2979502,-0.48527542,9.74842
883565260353,0.18463057,-0.36136997,9.774875
883585119042,0.07338277,-0.41546404,9.747536
883604977601,0.1464533,-0.5169398,9.61504
883624838836,0.22076404,-0.48915568,9.5719385
883644697525,0.14608006,-0.3116925,9.714262
883664556340,0.17475364,-0.4392649,9.730558
883684415028,0.17070533,-0.4985157,9.67705
883704273717,0.11541234,-0.43870175,9.691477
883724138859,0.16143534,-0.38039386,9.669421
883743997675,0.24407092,-0.5073244,9.7528105
883763856620,0.2724142,-0.4804933,9.70715
883783715563,0.18586457,-0.32667634,9.605553
883803574379,0.1164704,-0.37604943,9.641694
883823433324,0.18974786,-0.5914611,9.741696
883843287623,0.3128979,-0.61972326,9.766556
883863146439,0.24626991,-0.38738835,9.749176
883883005256,0.010529556,-0.24408183,9.695173
883902864199,0.02590597,-0.4635148,9.668201
883922726276,0.18457712,-0.6612601,9.660679
883942585221,0.11276536,-0.3603186,9.613546
883962445402,-0.05456006,-0.16066343,9.609005
883982304346,-0.0362469,-0.42338717,9.68778
884002163291,0.10693533,-0.44124502,9.719222
884022022234,0.17320283,-0.36267343,9.695339
884041891369,0.15495226,-0.3211691,9.656592
884061750442,0.13395104,-0.28088176,9.702858
884081609513,0.088406846,-0.456475,9.71081
884101468713,0.12508759,-0.6652773,9.660671
884121327786,0.11424314,-0.6255119,9.604512
884141184425,0.10320792,-0.44276583,9.681159
884161043497,0.22530974,-0.44244453,9.750878
884180902698,0.28475505,-0.5060722,9.721726
884200761769,0.19809663,-0.4228258,9.682142
884220613880,0.11019138,-0.39079618,9.790678
884240472825,0.0929903,-0.5014275,9.824522
884260331896,0.10365414,-0.5222098,9.63955
884280190840,0.013974648,-0.41670164,9.62428
884300049785,-0.048801832,-0.33770147,9.655869
884319908728,0.1679202,-0.47838598,9.713406
884339763003,0.28679463,-0.49663806,9.735418
884359621948,0.10585365,-0.3072129,9.64834
884379480763,-0.035896372,-0.20688316,9.63258
884399339579,0.031290017,-0.39290088,9.718369
884419198524,0.18786727,-0.4736988,9.76342
884439047520,0.2100036,-0.38738093,9.673243
884458906080,0.094147764,-0.32070482,9.673299
884478764641,-0.044032212,-0.35222444,9.712735
884498623200,-0.01627447,-0.46611765,9.616858
884518486680,0.055911012,-0.4646765,9.601146
884538345369,0.10342114,-0.41596577,9.689497
884558204056,0.074871145,-0.39222863,9.717501
884578062744,0.09260362,-0.4600458,9.776441
884597921433,0.10451383,-0.50380474,9.823767
884617780120,0.14287734,-0.43756992,9.784091
884637632926,0.16373502,-0.34998885,9.717802
884657491487,0.12913072,-0.37216458,9.643963
884677350174,0.10443997,-0.4290062,9.547498
884697208734,0.08578161,-0.42904395,9.565001
884717067423,0.088657446,-0.39405754,9.655985
884736926854,0.12939678,-0.42319012,9.616415
884756785542,0.110379234,-0.41591722,9.628426
884776644231,0.038283613,-0.33079606,9.852277
884796502790,0.0029085535,-0.44182065,9.991803
884816360131,-0.0015373597,-0.4674542,9.887178
884836218820,-0.095231906,-0.42279708,9.772946
884856077379,-0.14166701,-0.29361257,9.675456
884875935939,-0.029134512,-0.2614153,9.619524
884895794500,0.178864,-0.35682997,9.560828
884915653059,0.32570115,-0.40515795,9.544632
884935509449,0.29023838,-0.3646987,9.618023
884955368010,0.15692249,-0.25267076,9.774023
884975226441,0.14483625,-0.23192102,9.827446
884995085001,0.108070366,-0.32944292,9.81803
885014943434,-0.025701664,-0.39613006,9.734169
885034809618,-0.08645341,-0.36372793,9.640668
885054668306,-0.05750344,-0.45920187,9.548057
885074526995,0.029706838,-0.39395672,9.589606
885094385682,0.097020864,-0.49426392,9.646747
885114244242,0.16767853,-0.3391673,9.728302
885134102931,0.16556647,-0.5032622,9.833626
885153962008,0.19505563,-0.35695437,9.739853
885173820696,0.11555528,-0.2775055,9.611023
885193679385,0.09516208,-0.32403645,9.646953
885213538072,0.1575848,-0.6509631,9.762897
885233394602,0.26282418,-0.7589861,9.625246
885253253291,0.13227575,-0.56285536,9.477282
885273111850,0.016839666,-0.33066502,9.5945835
885292970410,0.069132835,-0.51106036,9.954067
885312829099,0.23439443,-0.8958677,10.216918
885332689462,0.22680235,-0.8974249,9.949856
885352548150,-0.0031530904,-0.4377642,9.534401
885372406839,-0.29021302,-4.29192E-4,9.475159
885392265526,-0.2689254,-0.25486067,9.592699
885412124086,-0.05484047,-0.7413473,9.587623
885431982775,-2.6277866E-4,-0.845959,9.682547
885451842163,0.018270839,-0.6068303,9.82943
885471700723,0.15697028,-0.23777974,9.771941
885491559412,0.19093262,0.03413227,9.69458
885511417971,0.13150413,0.04563471,9.61311
885531276870,0.19120815,-0.08811727,9.594978
885551135431,0.2182173,-0.37242508,9.596169
885570994118,0.10367679,-0.52206457,9.542956
885590852678,0.040642522,-0.47309336,9.653128
885610711367,-0.03912925,-0.33682096,9.866394
885630576547,-0.051305417,-0.34506372,9.821592
885650435491,0.0169645,-0.45063415,9.704596
885670294308,0.032802872,-0.49227238,9.727064
885690153251,0.046338,-0.42501953,9.710917
885710012067,0.094840236,-0.34082463,9.604381
885729871012,0.066789836,-0.39677227,9.628586
885749730491,-0.02044163,-0.2876916,9.765787
885769589307,-0.008548585,-0.39713374,9.757085
885789448252,0.021998396,-0.49220744,9.739895
885809307067,-0.021999048,-0.42160448,9.704001
885829167814,0.02364323,-0.37993115,9.635918
885849026759,0.06499485,-0.37135187,9.705128
885868885702,0.08905513,-0.43202302,9.7502
885888744646,0.12448216,-0.4380805,9.645094
885908603591,0.024779692,-0.36149022,9.631258
885928462406,-0.019788353,-0.25659642,9.704175
885948324860,0.0056127263,-0.51137006,9.776457
885968183805,0.054962058,-0.56369054,9.833498
885988042876,-0.0030876682,-0.4310283,9.747929
886007901820,-0.088418305,-0.3150059,9.673101
886027760765,-0.12614661,-0.47360697,9.647575
886047617093,-0.056881078,-0.56144124,9.542623
886067475909,-0.053860303,-0.47820947,9.698343
886087334854,-0.07146191,-0.3560858,9.813003
886107193797,-0.05229096,-0.43393958,9.723077
886127053465,1.7233606E-4,-0.414685,9.569848
886146912410,-0.023205355,-0.33478662,9.740246
886166771353,0.029067077,-0.39350936,9.807603
886186630297,0.109395586,-0.5685835,9.683225
886206489370,0.14095083,-0.45844537,9.661714
886226348313,0.042610362,-0.2361172,9.672649
886246198547,0.081564225,-0.31188345,9.689828
886266057364,0.24496873,-0.5619109,9.735007
886285916051,0.28458592,-0.4327618,9.615627
886305774867,0.15882435,-0.2613784,9.58516
886325633556,0.09580779,-0.33464822,9.752226
886345488208,0.1438929,-0.5997817,9.797785
886365346768,0.2672523,-0.60240823,9.685972
886385205457,0.28628156,-0.3204501,9.695018
886405064144,0.18857639,-0.17685351,9.724528
886424924392,0.14709418,-0.3884564,9.721513
886444783081,0.22582074,-0.55357915,9.722586
886464641768,0.18692955,-0.34882885,9.592797
886484500328,0.090383425,-0.27360925,9.561901
886504359017,0.11214313,-0.43237263,9.695491
886524217704,0.16013883,-0.5672896,9.714423
886544068243,0.16385333,-0.5309409,9.741308
886563926676,0.09042754,-0.3902944,9.809912
886583785235,0.015385692,-0.4187468,9.778918
886603643667,0.08470375,-0.58310306,9.665818
886623502228,0.1602817,-0.51193905,9.707462
886643363336,0.07448761,-0.3851634,9.664508
886663221896,0.053501833,-0.45278788,9.566683
886683080457,0.19280161,-0.6279727,9.70159
886702939016,0.21529005,-0.48535818,9.719852
886722800223,0.12289819,-0.32771352,9.73076
886742658912,0.18591572,-0.49804303,9.828514
886762517471,0.19996741,-0.4380962,9.703233
886782376031,0.14691551,-0.33920938,9.603092
886802234720,0.18984659,-0.4623507,9.681074
886822093279,0.06719224,-0.41727254,9.644944
886841950352,0.0771849,-0.46181634,9.671588
886861808913,0.2076328,-0.48536357,9.922721
886881667472,0.18028635,-0.48115072,10.103585
886901526032,0.124220856,-0.57927173,10.016251
886921384465,0.12322122,-0.632377,9.83177
886941249796,0.054210037,-0.39815977,9.750702
886961108484,0.06845062,-0.3893117,9.698764
886980967173,0.13391316,-0.6251695,9.768544
887000825860,0.13375966,-0.58546025,9.774882
887020684420,0.13509996,-0.44241503,9.711704
887040543109,0.101103954,-0.37985575,9.8860855
887060403478,0.06882626,-0.47847277,10.049722
887080262166,0.15389886,-0.63640726,9.954665
887100120983,0.24603851,-0.66407466,9.81913
887119979670,0.14952607,-0.28108874,9.709869
887139835286,0.09851926,-0.41656384,9.807036
887159693975,0.18060967,-0.6987561,9.788549
887179552662,0.23126759,-0.640441,9.70554
887199411222,0.23343883,-0.53348047,9.748345
887219269911,0.27580336,-0.54926085,9.9298725
887239137698,0.34891164,-0.4965289,9.945038
887258996386,0.3427033,-0.5033274,9.8671875
887278855203,0.35915655,-0.52445805,9.952908
887298714018,0.3042357,-0.40645838,9.899265
887318572834,0.22411129,-0.5330333,9.765434
887338431651,0.24732162,-0.732701,9.724098
887358293282,0.28215668,-0.6377647,9.708672
887378152226,0.27731493,-0.4641611,9.671976
887398011043,0.3849879,-0.542128,9.795248
887417869986,0.38531777,-0.6552628,9.9396305
887437734539,0.29261926,-0.8132902,10.019373
887457593612,0.22282583,-0.88430595,10.041789
887477452683,0.216487,-0.9587259,10.03978
887497311627,0.25675023,-1.1553433,9.960193
887517170700,0.26546517,-1.4989223,9.990225
887537025857,0.1956952,-1.9261377,10.196178
887556884929,0.09782664,-1.738039,10.293603
887576743874,0.11208418,-1.9987994,10.670426
887596602945,0.3453527,-2.4989562,11.184347
887616461889,0.6238915,-2.043623,11.310784
887636320962,0.9654988,-1.099888,11.512679
887656186160,1.3094665,0.008488663,10.94596
887676045360,0.06307058,0.054811735,9.481163
887695904432,-1.1847943,0.31253743,8.711893
887715763632,-1.7658654,0.5408094,8.841033
887735622832,-0.89456415,-0.5994768,9.619023
887755488950,0.6256642,-0.94743764,9.90902
887775348278,1.2155796,-0.44872972,9.618184
887795207606,1.3666948,-0.8365656,8.813622
887815066934,0.94753855,-1.9473655,8.431727
887834926262,0.13355906,-1.6654475,8.665975
887854789235,-0.032395605,-1.7001716,9.028189
887874648691,0.5695503,-2.141988,9.259182
887894508019,1.7328361,-2.7914515,9.547621
887914367475,1.3573428,-3.142767,10.074421
887934226803,0.6082971,-3.0978992,10.626626
887954083882,0.55611116,-3.5639267,11.037882
887973945435,1.19663,-4.016465,11.019629
887993804763,1.9034457,-4.5050597,10.351008
888013664219,2.0750935,-4.99581,9.8648815
888033523547,1.2135023,-4.465969,10.9598675
888053381656,0.6837898,-2.4699562,12.720139
888073241112,-3.0954516,4.8967505,13.067313
888093100440,-7.9944506,5.866147,7.9735107
888112959896,-5.699692,-1.4632206,4.002362
888132819224,-4.038781,-5.0326467,5.2088003
888152674590,-4.3385553,-1.2764255,8.711894
888172533790,-3.885153,5.523604,10.105129
888192393118,-1.7958945,7.5892663,10.040795
888212252318,1.517436,5.6897006,10.775058
888232111518,2.2395673,2.5178292,11.138525
888251965202,1.0199236,2.2340899,10.212612
888271824274,0.5764094,3.2192569,9.048218
888291683474,-0.71172446,4.0294833,8.517715
888311542546,-0.6262745,2.11443,8.329454
888331401746,-1.3932655,-0.50548035,8.084165
888351249097,-1.5183387,-1.8859228,7.976867
888371108041,-0.36624157,-1.6949637,9.64754
888390966985,-0.64113075,-2.3215644,10.131995
888410825929,-0.35260534,-0.98795855,10.488671
888430684873,-0.23592423,-0.80719835,8.444994
888450536850,0.55208254,-0.71896505,8.171199
888470395538,1.2015872,0.85800797,8.386019
888490254354,1.3886297,-1.8340057,8.518095
888510113042,-0.5862217,-4.4658422,9.569225
888529971858,-1.1500868,-4.399785,9.80978
888549824774,-0.1062233,-3.7088976,9.830732
888569683334,1.133818,-2.7994847,12.337894
888589542022,2.517979,-6.139719,11.249779
888609400710,1.1370763,-6.1760554,10.407698
888629259398,-2.2111201,-3.9016984,11.163909
888649113362,-3.153623,-2.9758384,11.213244
888668971794,-0.9424336,-0.415677,12.567732
888688830354,0.73148316,-0.4592648,12.146755
888708688786,0.054815117,-1.1425537,10.7316
888728547346,-2.0014572,0.5158032,12.411456
888748408210,0.0062312135,2.8079662,16.402042
888768266642,-1.1278349,3.427541,18.443167
888788125202,-8.557232,9.457386,16.413506
888807983634,-6.4168434,1.5678973,9.5473995
888827842066,-2.0436306,-0.15872504,7.500431
888847704661,-0.98444146,2.273279,7.1508346
888867563221,-0.40506503,2.4478083,5.9634256
888887421781,0.29190192,1.5813195,5.7084875
888907280341,1.0315956,0.7097579,6.883981
888927138901,3.7489078,1.2764307,6.0105505
888947000699,4.710227,2.4311833,3.6196525
888966859259,2.887697,1.6280289,1.9308294
888986717819,-1.044465,-0.45390233,2.5318851
889006576507,-2.6483748,-0.6039528,2.933775
889026435067,-1.3500267,0.76466084,3.7291121
889046296120,0.012864546,1.2705204,5.5146227
889066154808,-0.7505052,-0.6816191,10.287507
889086013368,-7.104288,-10.673694,22.293875
889105872056,-4.6352763,-10.919154,25.897669
889125730744,1.61759,-8.350328,11.297059
889145583800,-0.88427126,-3.4333582,2.028744
889165442232,-2.4498675,-0.7260472,3.0701458
889185300664,2.6547782,2.444994,12.181117
889205159224,-3.7295544,28.587568,21.924189
889225017656,-10.024429,11.290318,22.946571
889244887303,-5.58907,-6.641951,0.93890464
889264745991,-0.85090613,2.1172745,-0.8654052
889284604679,-1.197328,1.8516177,6.836036
889304463367,-0.16747129,6.9037647,12.47994
889324322055,1.0562639,9.380009,12.847664
889344186642,5.7419915,6.1448812,10.318879
889364045458,6.782483,3.5548704,7.5971885
889383904402,4.9293394,2.1522748,6.3484874
889403763218,-0.2744909,-2.4452958,7.677877
889423622034,-1.9330763,-2.2018092,10.335982
889443492132,-0.50006086,-1.2852267,10.734458
889463351332,-1.7724719,-1.5779188,10.595685
889483210404,-2.0535765,-1.4710497,8.902475
889503069604,-1.0023606,-1.6185193,7.899953
889522928676,-2.5762854,-2.5163958,9.109252
889542788668,-0.2522731,-2.105155,10.241875
889562647868,-2.1913683,-2.740732,8.847169
889582507068,-6.8442707,-1.0015519,9.663568
889602366268,-4.433016,0.5002117,10.477472
889622225468,-2.437533,0.6716405,10.051137
889642085003,-2.869346,-1.0150951,10.283558
889661944203,-4.5109987,-3.0153046,9.741427
889681803531,-3.6372466,-4.066027,9.699077
889701662731,-1.3318696,-2.9518683,10.8653555
889721522059,-1.5423132,1.7252183,11.535198
889741384684,-1.3998417,3.338181,12.029169
889761244140,2.3307707,1.950728,13.684413
889781103468,3.6292412,2.6475554,17.354855
889800962924,2.431899,11.393654,19.30924
889820822380,-2.988108,9.331078,14.019825
889840681708,-2.714421,1.5917275,9.98446
889860543814,1.2985197,1.8941045,8.857461
889880403270,2.354314,1.7729257,7.456636
889900262854,2.5530982,1.6720551,5.906008
889920122310,2.5075858,0.67048925,6.16104
889939981766,1.6390487,-1.2150102,8.6605215
889959841831,2.0666604,-3.581925,9.262261
889979702932,3.2457557,-5.0139365,5.9457088
889999562388,1.5144094,-3.1585698,3.7305624
890019421844,-0.41737637,-0.6153548,2.5293741
890039281300,-1.2370129,2.1935723,2.3355541
890059136835,-1.4774259,2.1229959,3.0665839
890078996291,-0.9269753,0.99381304,4.31322
890098855619,-1.3251256,-0.108225845,6.0111656
890118715075,-2.666823,-0.6716932,10.78648
890138574403,-5.6536183,-2.1926303,18.868008
890158433889,-6.0667315,-4.986444,22.069506
890178293217,-5.566272,-8.403673,12.149157
890198152545,-3.5669608,-4.349199,4.668052
890218012001,1.1274503,1.2245178,9.68583
890237871329,8.1235075,2.0152586,18.605549
890257725482,9.120259,15.015306,22.630775
890277584682,-6.419508,6.9697456,10.480509
890297443882,3.408199,-1.7676315,-2.2536876
890317303082,4.3519354,1.072437,1.9587488
890337162282,2.0853329,2.2844746,9.930905
890357017136,5.338763,3.0912278,13.704934
890376876336,6.42174,2.6438189,12.593159
890396735408,5.9443884,-0.5763394,10.402279
890416594608,4.4889393,-2.2838762,8.369176
890436453808,0.084996715,-0.09326518,6.834309
890456303664,-3.8380346,-0.49894232,7.8751354
890476162608,-0.5352259,0.06986448,10.232834
890496021680,1.7507743,-1.793845,10.118638
890515880624,0.48293668,-2.505616,8.931013
890535739568,-1.1271616,0.28645608,8.786776
890555591673,-1.2113416,0.36517122,8.926802
890575450617,-0.60898614,-0.42221138,9.495776
890595309433,-2.408562,0.23888989,9.703378
890615168249,-1.7720752,0.25989595,9.576812
890635027065,-0.9219422,0.27285698,9.055427
890654885503,-2.2156408,0.3598493,8.955519
890674744319,-1.705745,-0.6344424,10.19983
890694603135,-1.9430338,-1.0103935,10.6826
890714461823,-2.9101486,-0.60798985,10.273036
890734320639,-3.1683164,0.8564787,10.415677
890754177535,-2.9520404,2.4876888,10.247321
890774036223,-1.8657416,2.5603263,10.2905445
890793894911,-1.0849429,-0.18357693,12.6893835
890813753599,-0.59443474,-1.1586298,13.255404
890833612287,0.73021394,1.1483266,10.9362335
890853473602,2.4296896,2.8272045,8.881255
890873332418,4.299025,2.8338864,9.074375
890893191106,4.9876494,2.011545,11.117633
890913049922,4.7414284,0.15350157,12.155914
890932908610,2.0479567,-1.4957896,11.0514345
890952766280,2.8118184,-1.117375,10.762272
890972624968,0.80649525,0.6057677,10.537971
890992483656,0.22840609,0.911777,9.836717
891012342344,1.279001,-0.93974155,8.854032
891032201032,1.4125673,-1.4122987,8.042624
891052059159,0.7202168,-1.0466257,8.090902
891071917847,-0.08690862,-1.3211426,7.5907097
891091776663,-0.030090308,-1.0305686,7.4729323
891111635351,0.991575,-0.38990954,7.91487
891131494039,1.6072044,-0.044280514,6.4050465
891151359650,1.0077044,0.69666475,5.7714667
891171218466,0.34224242,-0.09804605,7.201579
891191077282,0.26005226,-2.0242298,8.902382
891210936098,-0.66595787,-2.153459,10.72495
891230794914,-3.7081208,0.5414519,11.735108
891250655985,-5.4724255,2.2934482,10.702416
891270514801,-3.7955444,1.4449087,8.58445
891290373617,-2.1620798,-1.5898268,7.198448
891310232433,-1.8164984,-3.476459,7.148495
891330091249,-0.8120451,-2.5959492,8.005065
891349952968,0.464525,-1.3781601,8.72457
891369811784,0.83702797,-0.111592084,9.757744
891389670728,-2.0955327,4.3473587,11.827019
891409529544,-4.039952,4.929949,13.865628
891429388488,-0.8954909,1.4501531,14.86854
891449249181,3.026739,-0.606431,14.470745
891469108125,3.137047,0.4133154,11.322861
891488967069,1.7835554,0.69876635,8.97476
891508826013,0.63169163,0.4662358,7.309104
891528684957,0.07132196,0.19580561,6.867265
891548542560,-1.0809577,1.078215,8.653055
891568401504,2.2269118,-1.0417801,10.491006
891588260448,3.900027,-3.5671341,10.626191
891608119520,1.3216088,-2.3881762,11.606091
891627978464,0.31536224,-1.056922,11.749246
891647837237,0.08712784,-0.5095507,10.2741165
891667696181,-0.5236004,1.3248546,9.385151
891687555253,0.82924736,2.5125623,8.959386
891707414197,1.1292218,0.93210375,8.664856
891727273141,0.3109398,-1.0273588,8.759986
891747144184,-1.1504472,-1.5261158,9.669411
891767003512,-1.7114044,-1.3288431,10.17506
891786862712,-0.3422084,-1.0107626,10.497859
891806722040,0.417393,-0.92351156,10.2469845
891826581368,0.7630612,-0.6676239,10.041715
891846439166,1.1822782,-0.3147081,9.79033
891866298366,1.247887,0.06634722,9.826969
891886157694,1.3646042,-0.013086667,9.493581
891906017022,1.1148223,-0.7502579,9.148053
891925876222,0.6013896,-1.0667328,9.579985
891945739780,0.19246604,-0.38677728,10.216015
891965599236,0.21314198,0.39500144,10.330811
891985459735,0.30719614,0.7372615,10.097721
892005319191,0.16441534,0.56354266,9.68173
892025178519,0.4027898,0.2645678,9.380856
892045028899,0.36508057,0.22460985,9.386005
892064887971,0.0597651,-0.019575909,9.691315
892084747171,0.11653343,-0.28310442,9.975123
892104606371,-0.24707353,-0.36424795,10.127756
892124465571,-0.7688948,-0.33503523,10.071039
892144320375,-0.95334643,-0.4214478,9.794757
892164179447,-0.96536565,-0.4220288,9.756525
892184038519,-0.75103766,-0.4487823,9.7198925
892203897463,-0.3010547,-0.50434035,9.357138
892223756535,0.18755756,-0.66330725,9.22328
892243615875,0.012229735,-0.4931889,9.471065
892263474947,-0.48545513,-0.26824793,9.664958
892283334019,-0.54734606,-0.26879984,9.40548
892303193091,-0.59387034,-0.34487244,9.350769
892323052163,-0.43828523,-0.29706845,9.346155
892342911235,0.019921346,-0.35580957,9.26517
892362767131,0.076708004,-0.43980023,9.296398
892382626203,0.08824488,-0.3888663,9.359241
892402485147,-0.14032957,-0.1743403,9.5632305
892422344219,-0.27397874,-0.098742306,9.684647
892442203163,-0.3030162,-0.22021654,9.633067
892462065075,-0.26069334,-0.3881753,9.634214
892481924147,0.07224106,-0.48318574,9.682503
892501783219,0.17723846,-0.32344553,9.755016
892521642291,-0.101077564,-0.08884305,9.656433
892541501363,-0.50330675,-0.032398645,9.47565
892561352328,-0.5727843,-0.16650082,9.308088
892581211144,-0.38790783,-0.3617726,9.381267
892601070088,-0.140831,-0.43332228,9.588461
892620928904,0.11984337,-0.38781077,9.485729
892640787848,0.27712163,-0.37151605,9.311925
892660645128,0.2313789,-0.3837876,9.334168
892680503944,0.032368116,-0.3048806,9.452156
892700362632,-0.00207195,-0.18792139,9.562431
892720221448,-0.09041121,-0.06164532,9.679679
892740080264,-0.06717934,0.050854705,9.698778
892759947714,0.0121418005,0.0756642,9.723908
892779806658,-0.0044932794,-0.041232478,9.690564
892799665602,-0.044965778,-0.18638921,9.620644
892819524674,-0.08123072,-0.17791075,9.661518
892839383618,-0.031464837,-0.122123025,9.613995
892859245055,0.06587148,-0.16710341,9.555554
892879104127,0.1472589,-0.19861247,9.573861
892898963199,0.009735267,-0.12286638,9.665742
892918822143,-0.122456655,-0.05130936,9.636127
892938681215,-0.08096593,-0.17231381,9.635208
892958538568,-0.09753268,-0.33174562,9.571049
892978397640,0.06092077,-0.43107584,9.470727
892998256712,0.18058704,-0.46926555,9.53371
893018115784,0.090106435,-0.4777166,9.687332
893037974728,0.026236681,-0.44216135,9.689053
893057831898,-0.002354021,-0.39701304,9.520408
893077690842,0.0634463,-0.43509036,9.42626
893097549914,0.1345196,-0.54859674,9.520646
893117408858,0.022795942,-0.54522365,9.60248
893137267930,0.05033266,-0.478642,9.617552
893157122973,0.13927203,-0.4499888,9.6477
893176981917,0.15048464,-0.43797466,9.620452
893196840733,0.11572231,-0.40041098,9.59928
893216699677,0.105470926,-0.3759121,9.548209
893236558493,0.09587378,-0.35834253,9.559152
893256419034,0.11160849,-0.36011794,9.570645
893276277850,0.11017241,-0.40520746,9.510319
893296136794,0.15296578,-0.507412,9.528342
893315995610,0.2649239,-0.5880666,9.566711
893335854554,0.21942577,-0.605759,9.604111
893355719782,0.16665064,-0.57142895,9.6339445
893375578854,0.16391997,-0.53657484,9.616855
893395437926,0.19484915,-0.44191846,9.541514
893415296998,0.15847199,-0.40859458,9.551181
893435156070,0.16062582,-0.47498336,9.584421
893455012527,0.1552292,-0.4763654,9.571008
893474871599,0.18602145,-0.43354616,9.555039
893494730543,0.26259738,-0.3599488,9.528573
893514589615,0.31383377,-0.2737978,9.505053
893534448559,0.32899445,-0.33359522,9.508205
893554313542,0.21752045,-0.42368037,9.656896
893574172742,0.06872701,-0.4009934,9.735783
893594031942,0.093599856,-0.3036589,9.747404
893613891014,0.1337783,-0.11571712,9.827482
893633750214,0.058890294,-0.004819951,9.706213
893653605769,-0.08588717,-0.04873324,9.616567
893673464841,-0.20718344,-0.16678165,9.590242
893693323913,-0.15681507,-0.28230572,9.646491
893713182985,0.05955075,-0.27130973,9.6789055
893733042057,0.29183677,-0.27269706,9.653129
893752908553,0.28116828,-0.41469187,9.678565
893772767753,0.11488634,-0.5419918,9.644565
893792626953,-0.0331869,-0.5966467,9.581793
893812486153,-0.08637644,-0.53123575,9.600748
893832345353,-0.058117345,-0.42173034,9.603761
893852208316,0.0423131,-0.3921874,9.619115
893872067516,0.12180068,-0.44059306,9.633807
893891926844,0.05874942,-0.47204933,9.639178
893911786172,-0.10392474,-0.5783352,9.587549
893931645500,-0.19600485,-0.65813285,9.636163
893951509283,-0.10870405,-0.6295217,9.639695
893971368611,0.036024533,-0.5734951,9.55879
893991228689,0.1620924,-0.5565443,9.592022
894011088017,0.21415024,-0.5221979,9.564074
894030947345,0.17185505,-0.5187421,9.499329
894050801102,0.049467202,-0.55667955,9.656276
894070660430,-0.039479382,-0.53949547,9.752878
894090519758,0.029752849,-0.51836574,9.644629
894110379086,0.20111248,-0.48401156,9.720109
894130238414,0.18425432,-0.44496775,9.726031
894150098760,0.051204365,-0.4103019,9.622154
894169957960,0.05156652,-0.44134066,9.710834
894189817288,0.09960157,-0.456349,9.707891
894209676616,0.44761243,-0.16719754,9.666262
894229535944,0.22886996,-0.44333076,9.751818
894249392090,0.18797356,-0.43160993,9.684438
894269251290,0.104265265,-0.4126756,9.658194
894289110618,0.08641409,-0.35406518,9.704193
894308969818,0.06660418,-0.33412135,9.70821
894328829018,0.102866694,-0.34987682,9.7186985
894348685999,0.11553883,-0.37377244,9.6685505
894368545199,0.25171182,-0.34552294,9.614809
894388404527,0.26144612,-0.373231,9.722165
894408263727,0.23428576,-0.36243078,9.743231
894428123055,0.271566,-0.32534835,9.701986
894447976885,0.22293116,-0.36374363,9.691324
894467836085,0.21843414,-0.30084193,9.690558
894487695157,0.2616333,-0.20954037,9.65372
894507554357,0.3177346,-0.11162724,9.667916
894527413557,0.29756284,0.15037943,9.859693
894547264449,0.23951082,0.22858621,9.795286
894567123393,0.2974622,0.2337031,9.602996
894586982465,0.11766565,0.35232675,9.621113
894606841409,-0.017768782,0.3368243,9.732449
894626700353,0.07569236,0.37187704,9.707737
894646559821,0.27554676,0.32522964,9.739414
894666418765,0.21341597,0.28848556,9.733274
894686277709,0.17747365,0.26041278,9.616797
894706136653,0.20541716,0.3257488,9.654512
894725995597,0.21951987,0.33151278,9.737497
894745854541,0.16854383,0.33598948,9.707467
894765718288,0.15630212,0.36497268,9.746059
894785577360,0.19420736,0.3229067,9.685133
894805436304,0.13726841,0.3563499,9.644732
894825295376,0.10712433,0.37189907,9.771554
894845154320,0.04995462,0.3177203,9.774482
894865011611,0.027429944,0.39146146,9.702223
894884870555,-0.044700548,0.41347754,9.658486
894904729627,-0.18860163,0.30869222,9.708718
894924588571,-0.059977166,0.3033853,9.759695
894944447515,0.08305638,0.33185983,9.729762
894964304673,0.008440086,0.30741024,9.762311
894984163617,-0.08807447,0.28074342,9.627585
895004022561,-0.087331526,0.34418508,9.69749
895023881505,-0.022151528,0.33849362,9.783918
895043740449,0.04372534,0.34741977,9.642508
895063595827,-0.06275558,0.35623512,9.652371
895083454643,-0.11128904,0.34827468,9.733909
895103313459,-0.06762478,0.36762723,9.613714
895123172275,-0.057071704,0.43896833,9.672956
895143031091,-0.054668754,0.4064978,9.719492
895162890553,-0.041847493,0.37651244,9.712489
895182749369,-0.0028273626,0.36975712,9.67518
895202608185,0.022944974,0.42931223,9.6825695
