UPTIMENANO,Ax,Ay,Az
2127171448083,-1.0467808,-0.5217924,8.927267
2127191305236,-0.9627018,-1.0447607,9.5259495
2127211162515,-0.7127454,-1.8958849,10.372449
2127231019667,-0.4023731,-1.879147,10.890345
2127250876948,-0.3262368,-1.3183116,10.846109
2127270734099,-0.16242442,-1.0248326,10.981408
2127290586905,-0.049007136,-0.8596414,11.44138
2127310444058,-0.2526736,-0.5239922,11.825285
2127330301209,-0.6023446,-0.45153677,11.587335
2127350158361,-0.91714007,-0.49652123,11.373821
2127370015514,-0.91922915,-0.23572104,11.027118
2127389877169,-0.2807378,-0.4278152,10.923156
2127409734449,0.35441235,-0.94897914,11.346445
2127429591730,0.48781285,-1.2056694,11.218996
2127449449009,0.15032683,-0.9349979,10.104698
2127469310995,0.28691703,-0.5311648,9.702848
2127489168532,0.8944253,-0.2969563,10.366965
2127509025939,1.1447291,-0.31534556,10.552497
2127528883347,0.9744556,-0.032713506,9.940769
2127548740756,0.3071015,0.91335213,8.654555
2127568598163,-0.07361921,1.4435866,7.622493
2127588454224,-0.5193005,2.07048,6.7774544
2127608311633,-0.7980556,1.5211725,6.7049193
2127628168912,-0.93927425,0.5578103,7.074962
2127648026320,-0.4300011,0.2938986,7.4042287
2127667883729,0.49751946,-1.1579872,8.803791
2127687743684,0.90446204,-1.7013024,10.322306
2127707601092,-0.390267,-0.18552473,8.752444
2127727458501,-0.2777667,0.401206,8.732461
2127747316036,0.588449,0.33750162,10.302198
2127767180506,0.3571687,0.0046276166,10.701588
2127787038043,-0.682826,0.436477,9.54546
2127806895578,-1.1143363,0.68092436,8.993043
2127826753114,-0.832046,0.23615868,9.618822
2127846610779,-0.78523004,-0.31636986,10.051532
2127866468314,-0.9166083,-0.35359827,10.167771
2127886330776,-1.3231215,-0.41660565,10.013986
2127906188441,-1.383391,-0.55370146,10.062369
2127926046104,-0.9334677,-0.21673843,10.462473
2127945903768,-0.61899996,-0.10449969,10.611947
2127965761433,-0.34322107,-0.28206244,10.868032
2127985621298,-0.010987559,0.0139031075,11.21013
2128005479090,-0.40643227,-0.06537893,10.860465
2128025336755,-1.0217202,-0.32552075,10.618579
2128045194546,-1.3237847,0.10829798,10.259896
2128065052210,-1.1347436,0.111777924,10.685286
2128084910003,-1.0527748,0.03324009,11.115453
2128104769795,-0.45013666,0.72685796,11.3918085
2128124627715,0.006482703,0.9370397,11.516259
2128144485508,0.23713677,0.6480888,11.330578
2128164343427,-0.79325867,0.05582361,9.462601
2128184194728,0.21793155,-0.106179036,10.063151
2128204052521,2.1468203,0.054051943,11.97814
2128223910184,1.9338591,0.16981646,11.293579
2128243767848,0.827699,-0.060296778,9.743705
2128263625513,0.13669625,-0.2753064,8.836635
2128283473624,-0.18276638,-0.48222044,8.360453
2128303331160,-0.6878451,-0.36144033,7.820732
2128323188697,-0.03347723,0.575888,8.5488405
2128343046232,1.8972328,1.0870793,10.290197
2128362903640,2.1486294,1.6648414,10.373674
2128382761177,1.0758977,1.7392881,9.217313
2128402611918,-0.0724418,1.3587341,8.082412
2128422469326,-1.0078948,0.8284339,7.3775606
2128442326735,-1.1692392,0.41788158,7.5852547
2128462184014,-0.45510405,-0.18916975,8.565468
2128482045039,-0.06977153,-0.6336665,9.180349
2128501902448,-0.10175861,-0.19716577,8.66272
2128521759983,-0.97100234,-0.5966362,7.707568
2128541617391,-1.12903,-0.8651321,7.585686
2128561474800,0.27870607,-0.9654281,8.52419
2128581330659,1.2877625,-0.84493035,9.26904
2128601188067,0.82670283,-0.63033634,9.64971
2128621045476,0.96818227,-0.29255062,8.8587
2128640902883,1.1852399,0.0012128793,9.065765
2128660767773,2.617863,-0.3386643,10.478004
2128680625182,3.4490554,-0.46141464,11.120211
2128700479200,2.0909274,-1.7565522,12.082225
2128720336608,0.75072455,-2.1135654,11.359001
2128740193889,0.5915442,-1.3453968,10.130881
2128760051296,0.44648233,-0.46166024,9.271215
2128779907826,-0.23869823,0.1084572,8.416644
2128799765235,-0.20686495,0.9069427,9.576479
2128819622514,0.45607555,0.6128897,10.560469
2128839479922,1.8823004,-0.3460796,10.990686
2128859337203,2.3041463,-1.2591723,10.995283
2128879194610,0.62327206,-2.1503305,13.133087
2128899044972,0.2920877,-1.5828661,13.025965
2128918901997,0.4249724,-1.4273297,11.887289
2128938759148,0.74601704,0.7183265,10.590113
2128958616300,1.8327136,2.14147,8.949358
2128978473453,1.9229797,2.1572437,7.3016214
2128998336053,1.3645861,1.7110825,6.872681
2129018193205,0.577203,0.6594107,7.30733
2129038050358,0.425056,-0.23585077,7.3457274
2129057907637,0.3076169,-0.86646324,7.7649875
2129077764246,1.0081267,-1.0147412,8.9423685
2129097621399,2.6441941,-1.0919741,9.526866
2129117478550,3.603503,-0.6901392,10.0563135
2129137335830,3.7913396,-0.41592482,10.382127
2129157192983,3.6595395,-0.5647531,10.637779
2129177050134,2.7111678,-0.36317775,10.571679
2129196909127,2.0531511,-0.31866834,10.610835
2129216766280,1.6533103,-0.36340022,11.062434
2129236623431,0.32071564,-0.4936685,10.956178
2129256480583,-3.059118,-2.6587567,6.549961
2129276337736,-4.7575874,-4.0123663,-1.1939347
2129296191772,5.5848384,5.0137067,14.602818
2129316048796,-2.8728724,-3.7010596,13.860467
2129335905948,-3.1858773,-3.1695492,9.6697235
2129355762972,1.6326315,0.18093579,11.702728
2129375619996,2.07606,-0.69281787,12.010829
2129395483321,1.5644922,-0.6436377,9.668544
2129415340601,1.8828243,-0.37587893,9.276283
2129435197881,1.977594,-0.7581349,10.947085
2129455055161,1.246965,-0.51216924,11.864343
2129474912441,-3.2416666,0.004433776,10.690943
2129494775987,-0.9096732,0.8589317,8.780074
2129514633395,1.4488461,0.657878,9.11543
2129534490803,0.618499,1.4796587,7.823468
2129554348211,0.9026609,4.720187,6.3142614
2129574205619,2.293558,3.903132,3.554958
2129594062442,1.7060077,2.0093622,4.41434
2129613919979,3.3665428,2.416081,6.214175
2129633777386,3.3363597,1.7591231,6.016945
2129653634922,4.3047757,0.9322496,5.6817923
2129673492330,5.67337,-0.67986596,6.797758
2129693349738,7.0876412,-0.94145143,7.847667
2129713186137,9.22275,-0.64058,8.514576
2129733043161,11.064076,-0.22813506,10.478867
2129752900313,7.055056,-1.8229368,10.665683
2129772757337,4.543561,-4.1623793,10.779891
2129792614489,4.4789753,-5.067082,12.444116
2129812468569,2.9011176,-3.6377828,10.70899
2129832325593,3.0976098,-2.3473265,8.707297
2129852182617,6.154327,-5.549982,12.2433815
2129872039641,3.0650296,-6.387892,16.08616
2129891896665,0.78292537,-3.4707332,15.538219
2129911758242,0.5134529,-3.8719852,14.904662
2129931615266,0.16645122,-4.6041913,14.297752
2129951472418,-0.3462711,-4.0374866,13.953268
2129971329442,-0.9449973,-3.4340272,13.746165
2129991186466,-1.9778941,-3.0253787,13.546624
2130011033695,-2.8679943,-2.7301354,13.2701025
2130030890591,-3.3163185,-2.1387694,12.631914
2130050747359,-3.6488805,-1.6771168,12.309175
2130070604127,-4.00948,-1.2713847,13.568908
2130090460895,-1.329687,2.0394866,12.921559
2130110327403,0.0781425,2.4417827,12.249308
2130130184427,-4.4031496,-0.8475297,12.276588
2130150041451,-2.3569646,5.148148,12.239429
2130169898475,0.5866787,5.3788543,12.255245
2130189755499,1.0185587,1.9986581,10.736431
2130209593317,-5.7658763,-3.432229,14.883802
2130229449829,-5.939487,-4.0093594,13.693039
2130249306469,-2.9002762,-0.6763482,12.394968
2130269163109,-1.504319,-1.2766212,9.214914
2130289019749,2.2028022,2.8877273,5.8875556
2130308881119,5.5051513,3.0633264,6.0370727
2130328737887,5.391281,1.1405019,7.4706626
2130348594527,3.2020252,-1.1284801,8.960927
2130368451167,1.4312538,0.5467678,10.591239
2130388307807,-5.2591934,-2.27625,10.763581
2130408178359,-6.153859,-1.0911695,9.70319
2130428035255,-3.9896574,1.0246207,8.175343
2130447892151,-3.1981936,1.9338523,6.560379
2130467749047,-0.9368906,2.449041,4.751219
2130487605943,1.1663046,2.439285,3.653731
2130507465118,1.1347525,2.949001,3.7094576
2130527322014,0.20774885,3.0526235,5.419751
2130547178910,-1.2135073,3.0624802,7.9681063
2130567035806,-2.7502513,2.9315023,11.754656
2130586892702,-2.9372923,-0.20236939,10.201192
2130606756894,-1.74221,0.73926586,8.317718
2130626614046,0.4935439,0.9074929,7.7333503
2130646471070,3.3748682,0.8832871,10.148504
2130666328222,2.5293872,1.3268206,11.685125
2130686191929,1.7402714,-1.3606433,10.53608
2130706054329,3.9361508,-3.3473818,11.10194
2130725911481,3.1081216,-5.9308915,14.776612
2130745768761,3.7842462,-4.8578696,14.621614
2130765625913,4.2046423,-3.0234694,13.233502
2130785483193,3.4196873,-2.5019138,13.768173
2130805340925,3.7845156,-2.4116168,11.8236265
2130825198205,3.4167144,-1.2066032,9.664501
2130845055485,1.1942021,0.015280383,7.378941
2130864912765,-1.8620818,0.07136863,6.285656
2130884770045,-3.5159166,0.6050084,7.250695
2130904634745,-4.624357,1.4440094,7.5718546
2130924492153,-7.0014195,1.6565992,8.274859
2130944349561,-5.73518,3.9506612,8.582127
2130964206969,-4.2971873,5.1176023,8.01431
2130984064505,-2.2452798,5.4565244,8.521719
2131003929300,-1.7568746,4.498984,9.876192
2131023786964,-1.1581919,3.4978783,9.609807
2131043644500,-0.49721697,2.834717,10.195807
2131063502164,-1.6654975,1.5706383,11.169114
2131083359828,-0.2504943,-1.2718421,11.220359
2131103227653,-0.28916082,-5.2906275,14.88146
2131123085701,1.5896147,-6.221157,16.440626
2131142943621,11.086777,-1.6316108,11.565959
2131162801541,12.391786,0.6841313,9.668512
2131182659461,3.945718,-1.8993963,12.78149
2131202518719,-6.1000986,0.22902878,15.081752
2131222376767,-0.32370278,-9.614519,12.549618
2131242234815,8.857692,-3.6317146,9.58405
2131262092863,5.479133,1.3969157,8.640141
2131281950911,0.37352768,-2.479171,8.183323
2131301803439,2.5420947,0.40996635,4.0736775
2131321661231,-3.922541,2.5892885,-0.69733936
2131341519151,-4.460239,2.4970696,2.8798244
2131361376943,-2.2864246,1.0603732,1.7756432
2131381234735,-2.1694,-0.5803269,3.6594975
2131401092295,-3.4808056,-0.72771317,6.2029943
2131420950087,-5.0058966,-1.359295,9.045718
2131440807879,-4.29004,-2.5487494,11.416169
2131460665799,-2.7872052,-2.204029,13.641059
2131480523591,-0.06694434,-1.8505143,11.1410475
2131500381383,0.14371872,-2.9818933,9.447597
2131520252437,0.5648979,-3.1110222,10.313019
2131540110613,2.226194,-1.7403475,9.891415
2131559968789,6.3173327,-1.2639928,8.081655
2131579826965,4.053149,-0.47624156,11.48552
2131599685141,4.723023,0.0047540637,11.167243
2131619527505,4.588894,-0.55063355,16.11969
2131639385297,1.469783,-0.24245267,15.744675
2131659243217,-3.6038413,-1.0184822,16.433237
2131679101009,-5.2118425,-1.3306158,13.968724
2131698958929,-1.1162548,-1.2793007,11.175368
2131718827869,0.99860024,-0.9781396,10.301455
2131738686045,-0.6446564,-0.5582291,10.840013
2131758544093,1.9720267,-0.90216386,10.141366
2131778402269,0.22367547,0.54728645,11.451929
2131798260445,-0.19612318,-0.08559308,11.075915
2131818093760,1.2051188,-1.0372033,8.699369
2131837951296,1.579714,-1.4830374,8.225098
2131857808704,-1.280585,1.5486344,7.880852
2131877666240,-1.5746292,0.3326454,10.540107
2131897523776,-1.3105427,-1.5604546,11.772903
2131917387761,0.45352903,-2.929141,8.098447
2131937245425,-0.07858161,-4.653968,7.918987
2131957102961,-3.232943,-3.6380296,8.375985
2131976960625,-4.199908,-1.5728841,8.803331
2131996818161,-3.1565735,1.3658935,8.476558
2132016683372,-1.3744836,1.4221895,8.667902
2132036541164,0.039807558,0.28705913,9.660939
2132056398956,-0.19549736,1.4043604,8.818401
2132076256876,-1.6940973,2.789785,8.415866
2132096114668,0.23619103,-1.0517621,9.444469
2132115974915,0.25397915,-2.9937685,9.482714
2132135832707,-0.7452733,-4.120632,9.5522
2132155690627,-0.13346063,-4.9004726,10.84144
2132175548419,1.370108,-3.455973,11.408706
2132195406339,2.6778333,-1.6569041,10.841041
2132215258353,2.1618996,0.32350266,10.38058
2132235116145,1.8057313,1.6999388,10.306533
2132254973809,2.6655009,0.34332156,10.3770485
2132274831601,4.3115106,-0.58259964,10.365267
2132294689393,2.8053217,2.0421073,9.534649
2132314541644,1.1352417,3.0393372,9.461427
2132334399308,1.0714707,-1.429539,9.59244
2132354256972,-0.18187429,-1.6676035,9.94639
2132374114508,-0.8276422,-0.20392396,10.020629
2132393972172,-0.888152,0.484114,9.98688
2132413822052,-0.6849114,-0.26719874,9.828416
2132433679460,-0.39439276,-1.4255899,9.566007
2132453536868,-0.006405212,-1.5465491,9.631406
2132473394276,-0.2243351,-0.5278597,9.654903
2132493251684,-0.3743279,0.43841624,9.739147
2132513107897,-0.42281607,0.017646365,9.665463
2132532965305,-0.534046,-0.64069843,9.66379
2132552822713,-0.567723,-0.70576245,9.769505
2132572680121,-0.50258434,-0.42982575,9.784789
2132592537529,-0.448899,-0.1403781,9.744312
2132612388805,-0.5024329,-0.07554847,9.668503
2132632246085,-0.5087978,-0.13445976,9.657685
2132652103365,-0.5236225,-0.2064166,9.668637
2132671960645,-0.55274945,-0.24534018,9.693769
2132691822480,-0.51813525,-0.2699627,9.656703
2132711684909,-0.3960693,-0.24996755,9.669971
2132731542317,-0.29074425,-0.18013062,9.73918
2132751399725,-0.22018382,-0.20700552,9.763902
2132771257133,-0.23630993,-0.3149478,9.730188
2132791114413,-0.20015478,-0.33726305,9.707726
2132810967883,-0.16122161,-0.31474048,9.663798
2132830825035,-0.1425133,-0.3910175,9.672295
2132850682315,-0.14745891,-0.4386174,9.648927
2132870539595,-0.16173592,-0.4515015,9.637324
2132890396875,-0.15443705,-0.47060096,9.713257
2132910256977,-0.11508805,-0.53149194,9.758028
2132930114257,-0.055196777,-0.5695173,9.747165
2132949971665,-0.001277363,-0.5114044,9.766892
2132969828945,0.0030457845,-0.45897543,9.838905
2132989686225,0.028540015,-0.46456277,9.827945
2133009547297,0.105573386,-0.4279988,9.764689
2133029404705,0.1598888,-0.43236682,9.729888
2133049262113,0.16875532,-0.3938271,9.721949
2133069119393,0.07147442,-0.39567512,9.740518
2133088976801,-0.10003713,-0.36999542,9.742287
2133108837591,-0.20426606,-0.37351453,9.697303
2133128695127,-0.18782508,-0.4406611,9.767361
2133148552663,-0.14220633,-0.376424,9.791169
2133168410199,-0.073312655,-0.24899617,9.758202
2133188267735,-0.06596325,-0.1439224,9.735989
2133208122863,-0.090072684,-0.12992664,9.726769
2133227980143,-0.14020447,-0.21609376,9.736442
2133247837551,-0.14555782,-0.29455945,9.730641
2133267694959,-0.13531362,-0.30214828,9.7441
2133287552367,-0.10470027,-0.32396486,9.737165
2133307412213,-0.061704807,-0.27176428,9.746423
2133327269749,-2.32845E-4,-0.26234308,9.791371
2133347127285,0.12496118,-0.26406035,9.797712
2133366984693,0.2059367,-0.37597996,9.768581
2133386842229,0.1955787,-0.403429,9.713932
2133406692542,0.109882146,-0.41335157,9.702208
2133426549822,-0.020070422,-0.4314011,9.748569
2133446407102,-0.1648897,-0.39250344,9.752409
2133466264382,-0.38300374,-0.3794285,9.690317
2133486121662,-0.6021482,-0.26614702,9.67338
2133505987103,-0.8059763,-0.12452299,9.641149
2133525844639,-0.84891623,-0.11197301,9.653928
2133545702047,-0.7800222,-0.11808944,9.713121
2133565559583,-0.6324279,-0.1676987,9.752123
2133585416991,-0.41477287,-0.08655612,9.750611
2133605277701,-0.2842962,-0.028453052,9.746089
2133625135237,-0.24383076,-0.09787898,9.751844
2133644992773,-0.20596258,-0.1605993,9.722913
2133664850309,-0.16738392,-0.26443923,9.718771
2133684707845,-0.057957657,-0.38326007,9.7102375
2133704579692,0.025077393,-0.42335647,9.740229
2133724437612,0.07760305,-0.40242028,9.714741
2133744295532,0.106567025,-0.38045356,9.70277
2133764153452,0.074553184,-0.35226485,9.713419
2133784011372,-8.2740595E-4,-0.30582392,9.729307
2133803866768,-0.08746077,-0.30610996,9.77708
2133823724688,-0.10157557,-0.3251236,9.778066
2133843582608,-0.07331744,-0.31232873,9.769299
2133863440400,-0.0074243955,-0.32745683,9.778688
2133883298320,0.047798075,-0.28907534,9.776851
2133903160359,0.12669782,-0.25193024,9.789344
2133923018279,0.22073983,-0.30046484,9.781507
2133942876199,0.20734902,-0.34136313,9.728625
2133962734247,0.18683697,-0.39607173,9.704401
2133982592167,0.07999662,-0.36739224,9.728283
2134002455871,-0.09225572,-0.38292196,9.734848
2134022314047,-0.18952477,-0.35366803,9.753608
2134042172095,-0.32998267,-0.25846925,9.698555
2134062030143,-0.45259708,-0.26062086,9.678683
2134081888191,-0.5290256,-0.33756423,9.70419
2134101746367,-0.52071035,-0.30852762,9.696998
2134121601117,-0.50668484,-0.22321178,9.711099
2134141459165,-0.51956576,-0.23924848,9.699656
2134161317213,-0.46877277,-0.27168956,9.701669
2134181175261,-0.43514025,-0.2381228,9.697456
2134201033309,-0.42146248,-0.16671333,9.686692
2134220880038,-0.47249383,-0.1651329,9.692352
2134240737830,-0.44295448,-0.19636893,9.674674
2134260595622,-0.35243365,-0.24010272,9.698009
2134280453414,-0.24510978,-0.20359941,9.689466
2134300311206,-0.17531525,-0.13996306,9.682024
2134320159872,-0.14420754,-0.11432983,9.692452
2134340017536,-0.16084172,-0.063261986,9.712631
2134359875200,-0.25662583,-0.06859492,9.740736
2134379732864,-0.25306374,-0.056651358,9.714528
2134399590528,-0.27526745,-0.04867963,9.696949
2134419439439,-0.28708375,-0.15333614,9.7666
2134439296975,-0.23021367,-0.07952013,9.767661
2134459154383,-0.1777223,-0.005488851,9.746137
2134479011919,-0.21446966,-0.06745176,9.757468
2134498869327,-0.14181584,-0.07484403,9.784692
2134518726491,-0.104637936,-0.059456374,9.782008
2134538583899,-0.12963556,-0.07310718,9.764363
2134558441307,-0.20379584,-0.0929351,9.730356
2134578298715,-0.24778709,-0.13300942,9.723211
2134598156251,-0.24764678,-0.17129925,9.744018
2134618013817,-0.20251477,-0.22580725,9.793388
2134637871353,-0.11981287,-0.1437609,9.75136
2134657728761,-0.09551738,-0.10187596,9.726574
2134677586169,-0.12679721,-0.140694,9.735575
2134697443705,-0.17181972,-0.2367924,9.778715
2134717289857,-0.20893145,-0.31276107,9.819907
2134737147265,-0.17559382,-0.26406056,9.776775
2134757004545,-0.14876032,-0.15961184,9.735454
2134776861953,-0.18910912,-0.15737076,9.758651
2134796719361,-0.21638103,-0.2710231,9.700928
2134816571806,-0.21335252,-0.3678326,9.675791
2134836429086,-0.21379843,-0.38323796,9.731117
2134856286238,-0.18287611,-0.31680125,9.751737
2134876143518,-0.11506812,-0.32719406,9.734558
2134896000798,-0.03739262,-0.36533195,9.748552
2134915851190,-3.6575983E-4,-0.30825418,9.725012
2134935708342,-0.06837772,-0.27666593,9.713139
2134955565366,-0.12778421,-0.25990856,9.721385
2134975422390,-0.15022992,-0.31795588,9.737252
2134995279414,-0.1670222,-0.3845478,9.734749
2135015134969,-0.13824822,-0.34757993,9.75691
2135034991993,-0.1187399,-0.32286417,9.782903
2135054848889,-0.07342808,-0.25753272,9.750814
2135074705913,-0.063475266,-0.26136592,9.747397
2135094562809,-0.12944861,-0.33407697,9.735522
2135114422411,-0.16768265,-0.37957358,9.728848
2135134279435,-0.18179475,-0.40246558,9.737118
2135154136459,-0.15273955,-0.35380858,9.715153
2135173993355,-0.13594091,-0.30619982,9.710993
2135193850379,-0.10212731,-0.3291843,9.725831
2135213711511,-0.12919556,-0.34891823,9.72265
2135233568535,-0.15639153,-0.31166363,9.720144
2135253425559,-0.14753143,-0.30391842,9.725933
2135273282583,-0.12943304,-0.2800601,9.74946
2135293139607,-0.12619449,-0.26609647,9.778498
2135313002525,-0.13962282,-0.23789477,9.7660885
2135332859677,-0.16387242,-0.22999333,9.750352
2135352716957,-0.1903712,-0.26400322,9.745589
2135372574109,-0.19523753,-0.28602564,9.719266
2135392431261,-0.18099879,-0.29688436,9.712406
2135412292495,-0.16999125,-0.27006692,9.769282
2135432149775,-0.1737375,-0.24985757,9.743417
2135452006927,-0.13906494,-0.2851291,9.714791
2135471864207,-0.0984827,-0.28834853,9.722679
2135491721487,-0.12743303,-0.22498098,9.723724
2135511588970,-0.14134295,-0.2567166,9.739748
2135531446506,-0.13525139,-0.23880234,9.74477
2135551304042,-0.14412224,-0.21507302,9.735431
2135571161450,-0.178286,-0.22898753,9.738403
2135591018986,-0.22675914,-0.2537279,9.759152
2135610883965,-0.20974153,-0.27966714,9.742852
2135630741757,-0.17800905,-0.2560005,9.724446
2135650599549,-0.13893881,-0.1979881,9.725232
2135670457213,-0.17231506,-0.18047178,9.729596
2135690315005,-0.21027666,-0.21052538,9.732502
2135710173704,-0.22896844,-0.26228762,9.716989
2135730031496,-0.19518985,-0.29252473,9.705441
2135749889288,-0.1821662,-0.22604792,9.707291
2135769747208,-0.19940501,-0.2435848,9.739242
2135789605000,-0.18568245,-0.23299834,9.72368
2135809456843,-0.1536703,-0.23534672,9.732804
2135829314507,-0.16989964,-0.2392735,9.762061
2135849172299,-0.1452687,-0.1821017,9.758875
2135869029963,-0.16025981,-0.18633612,9.75935
2135888887755,-0.16763352,-0.18658254,9.738551
2135908739110,-0.18622258,-0.18285434,9.728575
2135928596646,-0.1963199,-0.20622072,9.730223
2135948454182,-0.19176728,-0.219877,9.731076
2135968311846,-0.18287343,-0.23002617,9.732091
2135988169382,-0.15699087,-0.22764777,9.77864
2136008029586,-0.13328087,-0.21797468,9.766633
2136027887122,-0.13427138,-0.20422405,9.719866
2136047744786,-0.13936372,-0.22465742,9.72209
2136067602322,-0.15868016,-0.2457017,9.686111
2136087459986,-0.18273133,-0.25586885,9.699953
2136107319478,-0.15606816,-0.24990448,9.732028
2136127177142,-0.12518856,-0.2339089,9.752233
2136147034678,-0.15348732,-0.27006495,9.749615
2136166892342,-0.17003082,-0.265711,9.727884
2136186750006,-0.17687835,-0.24688274,9.735954
2136206603097,-0.13663471,-0.24236985,9.753021
2136226460761,-0.10067458,-0.23024392,9.747152
2136246318297,-0.11464081,-0.22671168,9.744988
2136266175961,-0.13662712,-0.21935052,9.731938
2136286033497,-0.19247985,-0.28535867,9.714721
2136305883895,-0.19599253,-0.26414067,9.727903
2136325741431,-0.16535977,-0.25479588,9.743397
2136345598839,-0.17962693,-0.24994658,9.753301
2136365456247,-0.17565688,-0.23410103,9.748016
2136385313783,-0.16852845,-0.22486569,9.726663
2136405164443,-0.14715633,-0.22601421,9.74613
2136425021723,-0.15743692,-0.23309703,9.749656
2136444879003,-0.17668964,-0.22642413,9.746728
2136464736283,-0.17327423,-0.23137419,9.735059
2136484593563,-0.16555446,-0.22576118,9.740579
2136504452970,-0.16351083,-0.23388696,9.753129
2136524310122,-0.1836262,-0.2579128,9.736766
2136544167402,-0.16615029,-0.2310671,9.725821
2136564024682,-0.17969698,-0.19515255,9.768627
2136583881962,-0.19836134,-0.18757057,9.75624
2136603729409,-0.17487936,-0.21688671,9.72852
2136623586433,-0.16309452,-0.23795407,9.725757
2136643443585,-0.20457792,-0.21719575,9.722054
2136663300609,-0.21949327,-0.22989042,9.742226
2136683157633,-0.1761256,-0.22929905,9.742812
2136703015595,-0.13508274,-0.24412106,9.741092
2136722865009,-0.142538,-0.23873073,9.744539
2136742722033,-0.1487143,-0.2319722,9.755438
2136762579057,-0.15536009,-0.22652873,9.751775
2136782436081,-0.17853503,-0.24631709,9.742137
2136802296029,-0.13669795,-0.24758703,9.727968
2136822153053,-0.13885829,-0.25649643,9.718271
2136842010205,-0.18065225,-0.2177769,9.728568
2136861867229,-0.24544503,-0.19288062,9.7510195
2136881724253,-0.26254305,-0.20654333,9.742127
2136901563862,-0.2549206,-0.24520472,9.746915
2136921420630,-0.21513477,-0.23806144,9.734836
2136941277270,-0.17652293,-0.20582487,9.747907
2136961134038,-0.1445514,-0.25490376,9.766931
2136980990678,-0.1507023,-0.2786812,9.762105
2137000851121,-0.17394564,-0.28681988,9.749875
2137020707761,-0.20127383,-0.26569304,9.731368
2137040564529,-0.22577593,-0.2349986,9.724935
2137060421297,-0.23214313,-0.26826215,9.756671
2137080278065,-0.20531946,-0.31941396,9.763749
2137100145644,-0.17056587,-0.29253355,9.738836
2137120002540,-0.14030002,-0.23617077,9.756231
2137139859564,-0.11178609,-0.22379802,9.739443
2137159716588,-0.099802144,-0.23975407,9.717414
2137179573612,-0.06741925,-0.26560965,9.727273
2137199436187,-0.11604777,-0.23513196,9.758977
2137219293339,-0.15808964,-0.24035062,9.807224
2137239150363,-0.13288647,-0.2300773,9.805401
2137259007515,-0.109151416,-0.1923857,9.766196
2137278864667,-0.14884956,-0.20560616,9.723076
2137298725128,-0.1695571,-0.2840551,9.723279
2137318582280,-0.15770121,-0.35584676,9.71283
2137338439560,-0.1336611,-0.3193702,9.728786
2137358296712,-0.10711313,-0.25779605,9.729689
2137378153864,-0.15801895,-0.25299087,9.730436
2137397998575,-0.19457078,-0.28981042,9.765984
2137417855472,-0.16453326,-0.29210925,9.738386
2137437712367,-0.16456467,-0.28784525,9.728421
2137457569391,-0.1382458,-0.25187352,9.737682
2137477426288,-0.15726292,-0.26382723,9.759899
2137497293726,-0.13986376,-0.29115888,9.760895
2137517150750,-0.13540277,-0.30190217,9.771493
2137537007903,-0.14139177,-0.27181852,9.750344
2137556864926,-0.13995606,-0.26010168,9.757006
2137576733055,-0.14193751,-0.29035482,9.72881
2137596590336,-0.17018303,-0.30365777,9.728212
2137616447743,-0.18115982,-0.2991677,9.726845
2137636305151,-0.1742551,-0.30676135,9.7351055
2137656162432,-0.16822907,-0.29114217,9.759429
2137676019839,-0.14247273,-0.30557328,9.738866
2137695890088,-0.14498475,-0.28538716,9.75473
2137715747753,-0.15417053,-0.26142976,9.76239
2137735605416,-0.15842044,-0.2759125,9.728454
2137755463080,-0.13031694,-0.31324303,9.750074
2137775320745,-0.16065519,-0.29814756,9.736148
2137795178298,-0.16947438,-0.3155329,9.71623
2137815035962,-0.15020347,-0.2923225,9.72492
2137834893755,-0.13457212,-0.23770705,9.756274
2137854751418,-0.10447057,-0.25716805,9.755717
2137874607223,-0.11605705,-0.27747273,9.740503
2137894464888,-0.12313254,-0.2699209,9.756269
2137914322551,-0.1186917,-0.22779535,9.75774
2137934180215,-0.15698808,-0.19496325,9.7374115
2137954037880,-0.20035294,-0.21085045,9.742297
2137973895543,-0.2241875,-0.240294,9.747759
2137993750043,-0.20570822,-0.250007,9.752787
2138013607708,-0.18956625,-0.22709435,9.770877
2138033465371,-0.14078647,-0.19772029,9.756363
2138053322907,-0.14151393,-0.22638032,9.733033
2138073180572,-0.1655474,-0.27540153,9.72935
2138093040825,-0.16264781,-0.28439546,9.737001
2138112898489,-0.14730944,-0.2705057,9.750311
2138132756282,-0.15546793,-0.25868624,9.753733
2138152614073,-0.12612922,-0.2612183,9.735457
2138172471865,-0.09978684,-0.28399673,9.729358
2138192329530,-0.107605904,-0.28181332,9.733151
2138212180444,-0.16263826,-0.25481898,9.737445
2138232037980,-0.17936474,-0.2741677,9.764946
2138251895645,-0.16150016,-0.29172912,9.724259
2138271753180,-0.11539297,-0.26764172,9.7264185
2138291597903,-0.14293706,-0.2134444,9.776651
2138311455312,-0.16808084,-0.2307945,9.733057
2138331312719,-0.17463319,-0.28053913,9.719408
2138351170127,-0.1515882,-0.27674058,9.724418
2138371027536,-0.16629407,-0.22057179,9.703915
2138390883826,-0.14150362,-0.217795,9.713951
2138410741234,-0.13646768,-0.23578127,9.758563
2138430598643,-0.14261414,-0.22382899,9.764673
2138450455922,-0.14441097,-0.20405477,9.758821
2138470313330,-0.1698629,-0.22070749,9.756158
2138490170739,-0.15552704,-0.20420246,9.730847
2138510011475,-0.15613045,-0.20179936,9.725611
2138529868499,-0.16640304,-0.2005693,9.729107
2138549725396,-0.17461812,-0.20777854,9.740385
2138569582291,-0.19248158,-0.23592974,9.714835
2138589436992,-0.17522721,-0.23023044,9.726457
2138609293889,-0.163576,-0.23660052,9.732909
2138629150656,-0.1617914,-0.19430918,9.758827
2138649007552,-0.15096655,-0.19232358,9.738237
2138668864321,-0.15155934,-0.24089107,9.722768
2138688720288,-0.1871765,-0.25026903,9.75715
2138708577184,-0.16003498,-0.24117358,9.770245
2138728433953,-0.119749285,-0.20222238,9.742564
2138748287569,-0.14013717,-0.18442512,9.729907
2138768144465,-0.13778809,-0.20714822,9.738222
2138788001234,-0.1505661,-0.25549677,9.740635
2138807852710,-0.16711564,-0.25644094,9.762798
2138827709478,-0.14093198,-0.2311297,9.728775
2138847566119,-0.14069954,-0.20991097,9.718473
2138867422758,-0.14576204,-0.2228772,9.769046
2138887282549,-0.1615815,-0.27109697,9.739769
2138907139318,-0.12671833,-0.29423624,9.720645
2138926995957,-0.10628675,-0.2626123,9.729604
2138946852725,-0.14242086,-0.22868863,9.745999
2138966709494,-0.1449756,-0.23894994,9.731529
2138986561973,-0.11886634,-0.22431636,9.753966
2139006418485,-0.13351998,-0.21148072,9.766336
2139026274870,-0.16483678,-0.26091447,9.766495
2139046131381,-0.13472039,-0.24657707,9.748461
2139065987893,-0.13209589,-0.218001,9.750427
2139085844278,-0.12766555,-0.17281404,9.734978
2139105707323,-0.13482976,-0.20789932,9.752303
2139125563963,-0.1190898,-0.2638169,9.743233
2139145420604,-0.1390465,-0.2674635,9.750517
2139165277115,-0.1456434,-0.21735127,9.763149
2139185138058,-0.15145051,-0.19801266,9.752313
2139204994827,-0.1426805,-0.22927006,9.7375
2139224851466,-0.15065426,-0.28350714,9.7409115
2139244708234,-0.1418313,-0.2923055,9.74957
2139264564875,-0.1436703,-0.24407269,9.757456
2139284421642,-0.15147544,-0.2369455,9.763843
2139304279074,-0.13526703,-0.2647556,9.740327
2139324135971,-0.12975895,-0.29366773,9.729893
2139343992738,-0.12623288,-0.30096304,9.76205
2139363849506,-0.12617515,-0.29014087,9.776229
2139383706275,-0.14269856,-0.22466126,9.757533
2139403567595,-0.12630048,-0.26881546,9.72732
2139423424491,-0.109788865,-0.3033739,9.725774
2139443281388,-0.12697881,-0.31295362,9.752921
2139463138283,-0.16860507,-0.26491433,9.748613
2139483003889,-0.14439681,-0.2847667,9.733115
2139502861042,-0.10122959,-0.26013878,9.742515
2139522718193,-0.13439165,-0.24700187,9.723634
2139542575217,-0.14346834,-0.27103993,9.745255
2139562432370,-0.13238175,-0.2387083,9.755227
2139582289393,-0.116570905,-0.25233224,9.765113
2139602147976,-0.14244717,-0.25686514,9.774453
2139622005129,-0.12732436,-0.25613284,9.769079
2139641862280,-0.12737057,-0.23825829,9.758915
2139661719432,-0.09526624,-0.23474012,9.748499
2139681576585,-0.098338835,-0.25745037,9.727152
2139701436065,-0.10853085,-0.27482775,9.738549
2139721293345,-0.13168891,-0.2619907,9.744813
2139741150626,-0.12613575,-0.31667438,9.749786
2139761007905,-0.09753071,-0.2792588,9.751108
2139780863790,-0.10454543,-0.22918509,9.746334
2139800721199,-0.092484,-0.21413739,9.735316
2139820578478,-0.123603314,-0.23815675,9.735353
2139840435758,-0.14716613,-0.27166745,9.767399
2139860293039,-0.15905976,-0.285873,9.734984
2139880150318,-0.15841402,-0.265471,9.731949
2139900003703,-0.13275357,-0.26853946,9.742478
2139919860856,-0.12742919,-0.23392743,9.756486
2139939718007,-0.14507446,-0.25167933,9.752487
2139959575159,-0.103087075,-0.28374478,9.763733
2139979432312,-0.07362815,-0.2756623,9.73577
2139999295777,-0.088739984,-0.25041223,9.745059
2140019153057,-0.114734456,-0.24165551,9.760333
2140039010338,-0.14952151,-0.2932852,9.745506
2140058867617,-0.14540878,-0.2817176,9.760088
2140078721263,-0.12176453,-0.2646702,9.752768
2140098578416,-0.1523494,-0.21993662,9.733009
2140118435695,-0.16174403,-0.2285997,9.741628
2140138292847,-0.17104563,-0.2642228,9.765718
2140158150128,-0.14115638,-0.25427702,9.77159
2140178007279,-0.10899851,-0.27313146,9.761597
2140197857232,-0.105165504,-0.2632551,9.732581
2140217714385,-0.10880652,-0.26627836,9.724972
2140237571408,-0.09086244,-0.299018,9.720541
2140257428560,-0.076730855,-0.2928343,9.732132
2140277285585,-0.07292054,-0.2867625,9.756561
2140297132398,-0.088718675,-0.24650165,9.754715
2140316989294,-0.10836789,-0.21989153,9.7441025
2140336846191,-0.15065308,-0.2636332,9.766663
2140356702958,-0.13959362,-0.271522,9.765709
2140376555892,-0.12723635,-0.2505391,9.747257
2140396412533,-0.14228702,-0.23225583,9.756907
2140416269300,-0.15934779,-0.23753269,9.730498
2140436125940,-0.15481134,-0.25737143,9.731542
2140455982709,-0.13739328,-0.26453876,9.753249
2140475839476,-0.13141124,-0.24310292,9.753097
2140495698926,-0.10156289,-0.2028099,9.748479
2140515555695,-0.11031179,-0.23030223,9.740947
2140535412462,-0.14110912,-0.26865792,9.742014
2140555269230,-0.14695567,-0.2547903,9.742824
2140575125999,-0.12639947,-0.25730816,9.714062
2140594981009,-0.097681955,-0.23117164,9.740502
2140614837777,-0.11621281,-0.2098512,9.76881
2140634694546,-0.14845033,-0.215197,9.738436
2140654551313,-0.13183114,-0.22304802,9.733313
2140674407953,-0.15856719,-0.21163726,9.71027
2140694264722,-0.16742301,-0.21084356,9.742952
2140714120087,-0.14340656,-0.23707832,9.778129
2140733976855,-0.13208783,-0.21778502,9.757168
2140753833496,-0.15114798,-0.19527106,9.744427
2140773684477,-0.14232586,-0.21528842,9.752903
2140793540320,-0.121408574,-0.23876266,9.736188
2140813396961,-0.09200858,-0.22636238,9.744312
2140833253600,-0.0817533,-0.24345669,9.741062
2140853110368,-0.09649344,-0.2765119,9.732843
2140872967009,-0.09931637,-0.2664886,9.7491045
2140892824523,-0.09397485,-0.22388777,9.748293
2140912681163,-0.10358897,-0.20497525,9.741678
2140932537804,-0.105168276,-0.24198107,9.720822
2140952394443,-0.13622437,-0.2759057,9.718161
2140972251083,-0.1490857,-0.24448657,9.746988
2140992107724,-0.14113052,-0.1973141,9.770701
2141011970074,-0.12345141,-0.16663587,9.735583
2141031826842,-0.12432363,-0.19698739,9.746023
2141051683611,-0.12807558,-0.22178939,9.734216
2141071540250,-0.10628269,-0.2678115,9.750247
2141091400821,-0.10854061,-0.22312894,9.746101
2141111257590,-0.11639609,-0.21344514,9.764167
2141131114485,-0.11815219,-0.22640738,9.761838
2141150971381,-0.0854851,-0.23048472,9.722544
2141170828150,-0.12864102,-0.23956981,9.765782
2141190693950,-0.15205586,-0.22934964,9.76011
2141210550974,-0.11579582,-0.2410264,9.733516
2141230407999,-0.07464583,-0.27356187,9.737112
2141250265022,-0.12476531,-0.26071632,9.725896
2141270122046,-0.14717984,-0.2298351,9.747868
2141289979071,-0.12284446,-0.23556106,9.767911
2141309837136,-0.0932561,-0.25840145,9.76437
2141329694160,-0.114484675,-0.24956444,9.746934
2141349551185,-0.13094105,-0.25991678,9.747707
2141369408336,-0.14370757,-0.24464567,9.745506
2141389270235,-0.1549482,-0.2738895,9.737856
2141409127388,-0.16230802,-0.29777732,9.749849
2141428984539,-0.14362979,-0.2630264,9.738658
2141448841691,-0.12687127,-0.23296681,9.737133
2141468698844,-0.14998768,-0.24793625,9.756557
2141488555995,-0.15277344,-0.27599573,9.74521
2141508422942,-0.12965794,-0.27017972,9.757495
2141528280351,-0.13090904,-0.23609874,9.770664
2141548137758,-0.14344923,-0.21155354,9.773222
2141567995166,-0.14880885,-0.24189326,9.759178
2141587852447,-0.16467845,-0.25336048,9.735936
2141607710890,-0.15447544,-0.25165346,9.753752
2141627568426,-0.16054155,-0.25113907,9.748195
2141647425963,-0.13315342,-0.24739166,9.739304
2141667283370,-0.112045236,-0.2533989,9.748502
2141687146245,-0.10769572,-0.22804676,9.748102
2141707003910,-0.09198024,-0.24670531,9.731294
2141726861573,-0.10929173,-0.27412483,9.739598
2141746719237,-0.13114864,-0.25559443,9.767484
2141766576902,-0.11307458,-0.2520269,9.755078
2141786434565,-0.06916348,-0.25164562,9.738437
2141806281800,-0.076953195,-0.25888202,9.73766
2141826139209,-0.14013894,-0.26258713,9.742198
2141845996744,-0.15235707,-0.26432174,9.738336
2141865854152,-0.14477937,-0.24313319,9.743411
2141885711689,-0.11767453,-0.22274916,9.76294
2141905564378,-0.1175392,-0.26648217,9.756122
2141925421658,-0.11091176,-0.28578666,9.750543
2141945279067,-0.10259492,-0.25990307,9.728836
2141965136346,-0.094615325,-0.23862787,9.733398
2141984997734,-0.10615701,-0.26913726,9.737909
2142004855143,-0.13552484,-0.30203187,9.7380705
2142024712550,-0.14583729,-0.287629,9.741286
2142044569958,-0.1255637,-0.25978398,9.749916
2142064427367,-0.11697856,-0.2519089,9.755449
2142084284774,-0.11154656,-0.23737563,9.7630005
2142104141109,-0.12870006,-0.22312953,9.767752
2142123998646,-0.13921575,-0.22895287,9.757092
2142143856053,-0.11985288,-0.19982293,9.755928
2142163713461,-0.135153,-0.20796505,9.75689
2142183570870,-0.15052181,-0.20838416,9.764758
2142203417568,-0.14752309,-0.23160194,9.749183
2142223274720,-0.13699518,-0.22697179,9.747841
2142243131873,-0.10620461,-0.25434342,9.745316
2142262989152,-0.05744721,-0.26572582,9.717674
2142282835474,-0.055210322,-0.2605835,9.717569
2142302692371,-0.10288214,-0.2952716,9.752031
2142322549394,-0.13816248,-0.2833776,9.747474
2142342406290,-0.1156125,-0.29563063,9.731551
2142362263315,-0.13502748,-0.28967363,9.72904
2142382120210,-0.16671264,-0.25384253,9.7143545
2142401965152,-0.16136569,-0.20476276,9.720755
2142421821793,-0.13256246,-0.16830362,9.744298
2142441678432,-0.10714374,-0.18390188,9.762821
2142461535072,-0.08903454,-0.22482845,9.78043
2142481391713,-0.11058807,-0.21372347,9.808819
2142501250296,-0.11717187,-0.15097791,9.818266
2142521106936,-0.10550647,-0.16817352,9.777232
2142540963577,-0.13284169,-0.18527888,9.736046
2142560820216,-0.18768947,-0.17219678,9.732273
2142580679532,-0.22035335,-0.22212717,9.767027
2142600536173,-0.19165897,-0.28684816,9.765929
2142620392812,-0.11317335,-0.2682957,9.738684
2142640249580,-0.059240077,-0.22803234,9.7483225
2142660106221,-0.050350897,-0.22335105,9.729863
2142679962860,-0.069132894,-0.23426087,9.742988
2142699816693,-0.116710976,-0.25172848,9.723885
2142719673334,-0.16539934,-0.2571866,9.752176
2142739529845,-0.17195563,-0.22484839,9.741005
2142759386485,-0.17608464,-0.20980312,9.723248
2142779242998,-0.17554316,-0.2076732,9.759423
2142799094322,-0.15286598,-0.2213782,9.763159
2142818951638,-0.13013114,-0.25401106,9.753138
2142838808151,-0.08181121,-0.2477947,9.748838
2142858664662,-0.08726797,-0.21649204,9.804978
2142878521174,-0.15706457,-0.1973765,9.796067
2142898377559,-0.21349357,-0.20754488,9.746528
2142918239435,-0.24677654,-0.20714624,9.743053
2142938095947,-0.27778667,-0.22804631,9.728448
2142957952460,-0.23651044,-0.24544579,9.741392
2142977808971,-0.13760476,-0.23432599,9.766568
2142997654128,-0.053160682,-0.2334757,9.764089
2143017510385,-0.041095145,-0.21315563,9.725796
2143037366768,-0.057375964,-0.22296636,9.723968
2143057223024,-0.070048496,-0.22990318,9.761313
2143077079281,-0.05892723,-0.30602726,9.723204
2143096940842,-0.0045719207,-0.29775193,9.723255
2143116797354,-0.023226688,-0.2945759,9.732299
2143136653739,-0.066917956,-0.2956371,9.734711
2143156510250,-0.02182786,-0.23713367,9.7331085
2143176366634,-0.019149639,-0.34295192,9.746192
2143196223147,-0.15351243,-0.5182192,9.697909
2143216083071,-0.24350311,-0.4781928,9.743851
2143235939583,-0.14741004,-0.28984502,9.73841
2143255796096,-0.052952103,-0.22220407,9.703545
2143275652479,-0.09607475,-0.31727225,9.716737
2143295510801,-0.14842287,-0.347951,9.754733
2143315367314,-0.16461992,-0.4156615,9.735425
2143335223825,-0.16865268,-0.4459155,9.822799
2143355080465,-0.12604596,-0.39735413,9.868281
2143374936978,-0.17022417,-0.32717818,9.767742
2143394797987,-0.23335661,-0.30549264,9.71739
2143414654627,-0.25188833,-0.28876477,9.760061
2143434511140,-0.22121231,-0.287783,9.792174
2143454367779,-0.17344499,-0.34748363,9.7672
2143474224291,-0.1611961,-0.33198988,9.726375
2143494080932,-0.23962869,-0.24481401,9.722449
2143513945318,-0.23799865,-0.26456404,9.755799
2143533802086,-0.23524892,-0.3181452,9.775497
2143553658727,-0.21126287,-0.34701076,9.75799
2143573515494,-0.17805356,-0.37835768,9.767703
2143593374735,-0.11156908,-0.29484493,9.796041
2143613231632,-0.07441433,-0.20907736,9.780349
2143633088527,-0.04018053,-0.23024884,9.751118
2143652945423,0.0012009771,-0.2683803,9.743134
2143672802192,0.012347693,-0.30495214,9.688668
2143692666998,-0.034177903,-0.3040575,9.724105
2143712524150,0.008966914,-0.27356717,9.788566
2143732381175,0.015833018,-0.091720045,9.763124
2143752238326,0.0055842847,-0.25064826,9.720941
2143772095350,-0.005858195,-0.2500091,9.717014
2143791952503,0.0028731683,-0.16685018,9.734138
2143811806076,-0.0815904,-0.16306031,9.761938
2143831663100,-0.19727513,-0.16690709,9.749116
2143851520125,-0.25455955,-0.21341626,9.770912
2143871377148,-0.26299867,-0.27896437,9.80853
2143891234830,-0.18058713,-0.25558195,9.781158
2143911091855,-0.11564582,-0.17710656,9.721708
2143930948750,-0.12882558,-0.18127686,9.715914
2143950805774,-0.16742067,-0.2512753,9.746352
2143970662799,-0.19110022,-0.29268494,9.787993
2143990519822,-0.15791835,-0.2659678,9.7700815
2144010379222,-0.14043906,-0.21597941,9.744136
2144030236247,-0.12273912,-0.2079207,9.750033
2144050093142,-0.112745084,-0.25935107,9.738098
2144069950166,-0.10828346,-0.2869979,9.711814
2144089807191,-0.12341625,-0.28216,9.739016
2144109669073,-0.12242197,-0.27437016,9.77815
2144129526225,-0.09375609,-0.28856358,9.736566
2144149383378,-0.07036634,-0.3695713,9.715605
2144169240529,-0.06944171,-0.3196124,9.758938
2144189098941,-0.081918165,-0.23184067,9.778531
2144208956222,-0.09126937,-0.2839428,9.781467
2144228813501,-0.06866802,-0.30937195,9.81549
2144248670653,-0.08054966,-0.2717836,9.823956
2144268527934,-0.08691521,-0.24410868,9.789965
2144288385213,-0.10904505,-0.2677169,9.741933
2144308237227,-0.1478816,-0.33237737,9.72154
2144328094508,-0.17373116,-0.2984617,9.735907
2144347951659,-0.1517782,-0.2830497,9.734408
2144367808811,-0.11919902,-0.31880763,9.732804
2144387665964,-0.09054671,-0.3123131,9.756698
2144407516979,-0.13205262,-0.2865268,9.742008
2144427374003,-0.22413343,-0.28630722,9.738505
2144447231028,-0.20965487,-0.288233,9.77377
2144467088051,-0.09541372,-0.300013,9.761911
2144486945434,-0.005639697,-0.2738287,9.783104
2144506802587,0.0064788046,-0.26395407,9.764184
2144526659610,-0.018755414,-0.29142103,9.764432
2144546516762,0.009867495,-0.34153917,9.7469225
2144566373915,0.007507306,-0.3210486,9.735478
2144586230938,0.004732411,-0.29993883,9.762475
2144606079959,-0.040275715,-0.30251274,9.77311
2144625936728,-0.08895895,-0.28612933,9.769702
2144645793623,-0.12940754,-0.24144076,9.770229
2144665650519,-0.16553655,-0.266201,9.774031
2144685507288,-0.21802951,-0.2444547,9.750543
2144705358728,-0.23993498,-0.27333036,9.726907
2144725215368,-0.24601915,-0.24521522,9.724264
2144745072137,-0.26832432,-0.23287669,9.735681
2144764928776,-0.22201717,-0.23914604,9.755069
2144784778772,-0.14354368,-0.25845456,9.761961
2144804635413,-0.087589286,-0.20915627,9.753841
2144824488776,-0.041303415,-0.19735993,9.772516
2144844345416,-0.009045184,-0.23893271,9.78171
2144864201929,0.01809037,-0.31682393,9.761396
2144884058568,-0.008629623,-0.33718655,9.780233
2144903915165,-0.024552016,-0.29777423,9.783039
2144923771678,-0.020785352,-0.31715646,9.777666
2144943628189,-0.041892376,-0.36005622,9.733446
2144963484701,-0.1344211,-0.36104795,9.7268095
2144983341214,-0.22583242,-0.31864464,9.741139
2145003206167,-0.25893068,-0.2822818,9.757276
2145023062807,-0.24638079,-0.26612225,9.750299
2145042919448,-0.2518656,-0.24745885,9.750725
2145062776087,-0.3019729,-0.18736038,9.731413
2145082635695,-0.2432942,-0.18065444,9.763842
2145102492464,-0.14956772,-0.14983694,9.775567
2145122349231,-0.067215085,-0.22846076,9.737215
2145142205999,-0.076434426,-0.30776134,9.711746
2145162062768,-0.07807635,-0.27306518,9.720918
2145181919535,-0.0702806,-0.22500543,9.766578
2145201779765,-0.11697794,-0.30828533,9.776598
2145221636534,-0.11200121,-0.3827379,9.804767
2145241493301,-0.032013983,-0.34559605,9.805047
2145261350069,0.106606156,-0.22585526,9.792721
2145281206838,0.20335776,-0.10401734,9.737004
2145301065586,0.1417347,-0.10732816,9.683209
2145320922482,0.007993796,-0.29047784,9.745405
2145340779251,-0.03870644,-0.3818753,9.760265
2145360636146,-0.072848566,-0.31469044,9.734395
2145380493042,-0.087639324,-0.17993617,9.7582245
2145400349811,-0.111532256,-0.18178356,9.755975
2145420211521,-0.177202,-0.31422466,9.738406
2145440068417,-0.19300787,-0.38276875,9.783528
2145459925314,-0.14610456,-0.31593236,9.833694
2145479782209,-0.07329632,-0.25980198,9.766847
2145499640050,-0.070417464,-0.21990849,9.694036
2145519496947,-0.08198456,-0.26545197,9.698866
2145539353970,-0.04094297,-0.29654703,9.737188
2145559210866,0.014670178,-0.2446024,9.74618
2145579067891,0.032178126,-0.171632,9.812218
2145598922973,0.03165905,-0.14629452,9.769578
2145618779869,0.081689864,-0.2708423,9.768277
2145638636894,0.12758449,-0.26216143,9.784282
2145658493917,0.05269023,-0.26651508,9.743255
2145678350813,-0.061012194,-0.34612036,9.718803
2145698207838,-0.14966305,-0.41947654,9.752058
2145718067872,-0.15887122,-0.373277,9.799604
2145737924896,-0.13030921,-0.276157,9.799326
2145757782049,-0.0903085,-0.2302126,9.732136
2145777639072,-0.07250156,-0.26280326,9.702423
2145797498223,-0.047006737,-0.41242152,9.799049
2145817355376,-0.019427627,-0.43265527,9.79865
2145837212527,-0.010940519,-0.23478393,9.737449
2145857069679,-0.057015486,-0.20906332,9.698706
2145876926832,-0.08392288,-0.23973264,9.75378
2145896779820,-0.06215688,-0.23464571,9.750988
2145916636844,-0.1474099,-0.2877862,9.697874
2145936493869,-0.33079854,-0.18610542,9.709477
2145956351020,-0.47222295,-0.16841285,9.778281
2145976208044,-0.4049195,-0.27890897,9.791935
2145996065069,-0.26206195,-0.3176299,9.742226
2146015923841,-0.18880858,-0.22925459,9.658553
2146035780865,-0.10810041,-0.15808696,9.750338
2146055638018,-0.011100942,-0.168737,9.843525
2146075495041,0.15911531,-0.3293119,9.791999
2146095348761,0.28058636,-0.4945742,9.778634
2146115205786,0.29901367,-0.5261126,9.860255
2146135062809,0.28968346,-0.46967494,9.849132
2146154919833,0.2502654,-0.40669316,9.719303
2146174776858,0.19355658,-0.3048392,9.609138
2146194629773,0.008955361,-0.22946836,9.595691
2146214486797,-0.3048259,-0.20576471,9.664512
2146234343694,-0.5362124,-0.1550372,9.7449
2146254200717,-0.6453507,-0.053101383,9.833037
2146274057613,-0.6064671,0.051188372,9.858955
2146293914638,-0.41871613,0.11719128,9.802117
2146313763548,-0.28849673,0.12176404,9.730838
2146333620316,-0.31163996,0.09220338,9.687842
2146353477085,-0.43494874,0.026979739,9.722681
2146373333852,-0.49115396,-0.16533464,9.777599
2146393182463,-0.35941124,-0.32550603,9.796769
2146413038976,-0.040087067,-0.40603718,9.783448
2146432895487,0.19768615,-0.3299007,9.775397
2146452751999,0.27901092,-0.22377588,9.777056
2146472608512,0.23333807,-0.23235291,9.782145
2146492465023,0.13371791,-0.29281825,9.766596
2146512321919,0.010041394,-0.3676425,9.724141
2146532178432,-0.113359,-0.34299538,9.722618
2146552034943,-0.23249143,-0.22726937,9.780333
2146571891327,-0.20787752,-0.12834546,9.820079
2146591747840,-0.108270064,-0.13759622,9.803416
2146611603071,-0.014496888,-0.16155373,9.797896
2146631459583,0.053619344,-0.20713593,9.746525
2146651316096,0.033868633,-0.21192439,9.710679
2146671172479,-0.0026356075,-0.20867464,9.810556
2146691032270,-0.019107884,-0.24983764,9.822295
2146710888783,0.033318866,-0.33298683,9.77915
2146730745294,0.10244422,-0.37416023,9.716888
2146750601806,0.100596726,-0.34295863,9.687049
2146770458319,0.04850249,-0.2916273,9.69649
2146790314830,-0.06903137,-0.31212923,9.659131
2146810168654,-0.17641677,-0.36449048,9.705559
2146830025039,-0.17152034,-0.34339792,9.757827
2146849879692,-0.1219366,-0.24715905,9.790356
2146869736204,-0.06644374,-0.16433385,9.754807
2146889592717,-0.05441678,-0.18146995,9.742932
2146909447838,-0.029346643,-0.24303673,9.776969
2146929304222,-0.032876406,-0.26384714,9.773111
2146949160607,-0.0777608,-0.2234074,9.764924
2146969017118,-0.19685897,-0.2266673,9.736136
2146988878768,-0.26864415,-0.24702474,9.714587
2147008735409,-0.20117572,-0.24337605,9.734641
2147028591920,-0.0876648,-0.15882847,9.742441
2147048448560,0.022768386,-0.11475151,9.726328
2147068305073,0.036758203,-0.15052414,9.723125
2147088161584,-0.055980794,-0.16676728,9.729119
2147108020400,-0.14272927,-0.17276065,9.721165
2147127877041,-0.12031082,-0.12150589,9.756961
2147147733680,-0.09805919,-0.13961188,9.811677
2147167590320,-0.10897444,-0.12893376,9.797456
2147187446833,-0.103695184,-0.12087913,9.771021
2147207302180,-0.03769136,-0.21540189,9.753202
2147227158692,0.00386123,-0.28196383,9.781254
2147247015205,-0.017237023,-0.2291535,9.756112
2147266871716,-0.019954385,-0.2087961,9.702738
2147286728557,-0.03988886,-0.1945261,9.682695
2147306585070,-0.08953449,-0.23722622,9.70085
2147326441709,-0.11074674,-0.26497486,9.754641
2147346298221,-0.08899468,-0.17634544,9.783003
2147366154734,-0.08322385,-0.09841406,9.800993
2147386011373,-0.11602723,-0.070372015,9.785317
2147405869665,-0.085471936,-0.1361266,9.72509
2147425726306,-0.078237124,-0.20890886,9.710845
2147445582945,-0.049802963,-0.15897018,9.676927
2147465439457,-0.050221097,-0.03406373,9.626039
2147485296098,-0.12862445,-0.033862066,9.674257
2147505159344,-0.14405553,-0.0713945,9.737396
2147525015984,-0.056333005,-0.08652447,9.751943
2147544872753,0.050640028,-0.11434676,9.745123
2147564729520,0.10134905,-0.048566863,9.700055
2147584586160,0.021045653,-0.0024609948,9.670816
2147604442929,-0.19838235,-0.05132987,9.706317
2147624307071,-0.44192898,-0.12692373,9.735036
2147644163967,-0.46001893,-0.18975404,9.773586
2147664020992,-0.26627576,-0.13877517,9.81221
2147683877887,-0.1580479,-0.0058152173,9.7979765
2147703733814,-0.21730496,0.054477703,9.789659
2147723590711,-0.26240784,-0.08395017,9.782584
2147743447606,-0.26230755,-0.2364787,9.734629
2147763304630,-0.16363244,-0.28123453,9.764327
2147783161527,-0.017421003,-0.25584543,9.834634
2147803014088,0.06377947,-0.29388133,9.796066
2147822870984,0.070870034,-0.38678393,9.748229
2147842727753,0.07548264,-0.31624037,9.725164
2147862584648,0.13295953,-0.23566544,9.690204
2147882441544,0.2538257,-0.2686654,9.734699
2147902298441,0.32725915,-0.27606592,9.785694
2147922153105,0.33360252,-0.2728739,9.817346
2147942009873,0.27594402,-0.20240052,9.814039
2147961866770,0.19287187,-0.18499756,9.761395
2147981723537,0.052327707,-0.24413367,9.736491
2148001585192,-0.11289012,-0.23444271,9.773961
2148021442089,-0.35440886,-0.20086633,9.734437
2148041298984,-0.5401477,-0.13359204,9.733847
2148061155880,-0.51345617,-0.056142002,9.740386
2148081012777,-0.35710415,-0.112633266,9.72686
2148100873037,-0.16905344,-0.13857919,9.723321
2148120730061,-0.10967451,-0.16680905,9.73036
2148140587086,-0.039338563,-0.1855548,9.7426405
2148160443981,0.053819984,-0.19069923,9.784832
2148180301005,0.11431285,-0.19190992,9.782065
2148200158030,0.11899754,-0.15506311,9.754086
2148220004831,0.09601706,-0.09753899,9.749441
2148239861599,0.011136889,-0.07320104,9.720459
2148259718368,-0.07173307,-0.0635148,9.709638
2148279575135,-0.17162687,-0.040081747,9.778041
2148299427801,-0.22376771,-0.0050708423,9.781881
2148319284570,-0.24899879,-0.046849497,9.744567
2148339141337,-0.23813565,-0.108198255,9.749071
2148358998105,-0.24716398,-0.098695435,9.754672
2148378854746,-0.17034091,-0.085582376,9.722616
2148398705637,-0.025928838,-0.09910734,9.734212
2148418562277,0.0115987975,-0.11981825,9.763929
2148438418790,-0.08897593,-0.13315989,9.773666
2148458275429,-0.21533723,-0.14178285,9.755288
2148478131941,-0.2892096,-0.17441715,9.737773
2148497988582,-0.29245624,-0.18455496,9.723355
2148517847793,-0.21911278,-0.21021265,9.72617
2148537704433,-0.09706289,-0.20819375,9.731274
2148557560946,0.005964817,-0.18704449,9.721537
2148577417585,0.03519959,-0.20740625,9.706076
2148597269061,0.027876925,-0.24630097,9.735548
2148617125574,0.08486529,-0.21197122,9.729051
2148636982085,0.111974396,-0.17217377,9.754477
2148656838597,0.06506826,-0.16900733,9.748371
2148676694982,-0.003752666,-0.13583407,9.745484
2148696551493,-0.0780714,-0.107312046,9.7641115
2148716404939,-0.12446996,-0.061509997,9.7590475
2148736261324,-0.14494288,-0.060199082,9.768517
2148756117835,-0.13749075,-0.065774314,9.760238
2148775974219,-0.09432564,-0.06360574,9.743889
2148795830604,-0.09012414,-0.10137069,9.760703
2148815685676,-0.11215599,-0.15324192,9.762829
2148835542060,-0.11810627,-0.13065371,9.744097
2148855398445,-0.10852517,-0.13647635,9.781821
2148875247519,-0.057725593,-0.15256459,9.781775
2148895108072,-0.089525804,-0.15819655,9.751521
2148914964457,-0.1419987,-0.17375608,9.743299
2148934820968,-0.18353339,-0.13815928,9.726527
2148954677352,-0.18496293,-0.20670842,9.729891
2148974533737,-0.16237852,-0.25550202,9.730261
2148994390120,-0.09635068,-0.22714339,9.72746
2149014248491,-0.013930428,-0.19525775,9.711711
2149034104876,0.036871664,-0.18205433,9.734263
2149053961259,0.05830378,-0.19973892,9.7737
2149073817771,0.06726724,-0.20404896,9.791866
2149093674156,0.03950946,-0.20635545,9.819974
2149113533150,0.0037859709,-0.1934022,9.783557
2149133389662,-0.036251407,-0.19259946,9.747238
2149153246047,-0.116767794,-0.19115074,9.754199
2149173102558,-0.18598665,-0.15704781,9.748009
2149192966256,-0.22158754,-0.20208992,9.721673
2149212822897,-0.19264045,-0.21682878,9.721143
2149232679536,-0.1552934,-0.21138987,9.754597
2149252536304,-0.113975786,-0.20918497,9.78133
2149272392945,-0.10319001,-0.22655816,9.771427
2149292249584,-0.08860216,-0.20791857,9.75783
2149312104627,-0.07423801,-0.16807908,9.764655
2149331961268,-0.072872296,-0.19165716,9.77321
2149351817907,-0.06347331,-0.23650783,9.761939
2149371674547,-0.046188183,-0.22457612,9.748903
2149391531188,-0.030173888,-0.18116838,9.75601
2149411383743,-0.007928741,-0.19674134,9.776082
2149431240255,0.012274569,-0.2469389,9.754164
2149451096768,0.007775488,-0.2551881,9.732264
2149470953407,-0.005059802,-0.17572317,9.772244
2149490818257,-0.009754212,-0.15371744,9.76826
2149510674898,0.029218372,-0.18724781,9.752885
2149530531665,-0.01587059,-0.18065956,9.744634
2149550388305,-0.076510265,-0.17627096,9.722443
2149570245074,-0.0796076,-0.21311916,9.75516
2149590101713,-0.048604786,-0.17883824,9.781793
2149609960675,-0.038936608,-0.15515125,9.808626
2149629817444,-0.08503178,-0.13037427,9.787264
2149649674211,-0.099533126,-0.15757884,9.745855
2149669531107,-0.10481253,-0.19267508,9.740165
2149689387876,-0.08877344,-0.17187524,9.729
2149709251610,-0.05763018,-0.16552658,9.72963
2149729108634,-0.07511693,-0.17568003,9.735156
2149748965659,-0.06720528,-0.18800406,9.729484
2149768822682,-0.043137092,-0.23573317,9.761095
2149788679011,-0.0116643105,-0.21218544,9.763724
2149808535908,-0.004518151,-0.17380904,9.765135
2149828392931,-0.026704539,-0.16464302,9.740116
2149848249955,-0.05186206,-0.19575249,9.731297
2149868106980,-0.11286282,-0.20938596,9.73659
2149887964003,-0.13053912,-0.1746027,9.7641
2149907821946,-0.14446293,-0.1472008,9.748816
2149927678843,-0.11750914,-0.16270691,9.726294
2149947535866,-0.1079733,-0.16639335,9.771154
2149967392890,-0.15479101,-0.17223136,9.782619
2149987249915,-0.16493694,-0.17536736,9.7670355
2150007113740,-0.11944476,-0.16957426,9.731269
2150026970892,-0.111855336,-0.14199454,9.769434
2150046828045,-0.11697072,-0.17154276,9.753328
2150066685196,-0.063070804,-0.21528004,9.730483
2150086542220,-0.026550503,-0.20397869,9.725327
2150106399373,-0.063359074,-0.12716343,9.704844
2150126237537,-0.0723963,-0.13554518,9.745357
2150146094433,-0.061251983,-0.17203939,9.789597
2150165951202,-0.04777675,-0.15122737,9.782893
2150185808097,-0.022822633,-0.15247211,9.773923
2150205661527,-0.019033121,-0.1496206,9.735413
2150225518168,-0.025353137,-0.15369491,9.746933
2150245374935,-0.042189706,-0.15983626,9.756694
2150265231703,-0.057142023,-0.13283662,9.7485285
2150285088344,-0.07944936,-0.18044923,9.75532
2150304937003,-0.07247868,-0.21693458,9.769754
2150324793515,-0.07301647,-0.1908514,9.770872
2150344650028,-0.05250343,-0.14823566,9.756899
2150364506539,-0.045023933,-0.154063,9.7529545
2150384363051,-0.046310253,-0.18445712,9.761556
2150404219692,-0.037482005,-0.20400967,9.751462
2150424073453,-0.0459878,-0.19120409,9.725582
2150443929837,-0.0544065,-0.17107579,9.750213
2150463786350,-0.069247134,-0.16536814,9.772284
2150483642733,-0.0767701,-0.19697522,9.760731
2150503503871,-0.07917178,-0.185913,9.742962
2150523360384,-0.07108609,-0.15901098,9.752371
2150543216895,-0.07002968,-0.15720394,9.783828
2150563073407,-0.070628755,-0.1709188,9.736047
2150582929920,-0.057834744,-0.20444523,9.734337
2150602786114,-0.07979642,-0.15536226,9.751129
2150622642626,-0.103244,-0.1507157,9.762684
2150642499139,-0.0469945,-0.15666747,9.7771
2150662355650,-0.05232024,-0.12065169,9.755534
2150682212162,-0.078477114,-0.13255087,9.752926
2150702068675,-0.09012739,-0.15427934,9.752511
2150721924113,-0.087430485,-0.17885546,9.770988
2150741780625,-0.047429524,-0.18664442,9.783514
2150761637010,-0.052086018,-0.20200229,9.764338
2150781493521,-0.046909712,-0.1862372,9.742452
2150801343980,-0.06100848,-0.18189588,9.733086
2150821200365,-0.09302676,-0.1867224,9.739057
2150841056620,-0.113677785,-0.16945532,9.750192
2150860913004,-0.09996702,-0.15682386,9.7561035
2150880769389,-0.077393755,-0.18221167,9.772136
2150900616337,-0.09770294,-0.1598611,9.761401
2150920472593,-0.11779488,-0.15254024,9.753727
2150940328850,-0.080026075,-0.15424673,9.760835
2150960185233,-0.021998728,-0.1658508,9.770581
2150980041489,0.008837786,-0.19062822,9.765843
2150999897746,-0.019056689,-0.15067218,9.765438
2151019753641,-0.044313025,-0.18377267,9.761272
2151039609897,-0.062721744,-0.22806673,9.751287
2151059466026,-0.050439898,-0.22403435,9.728458
2151079322281,-0.01696692,-0.20197658,9.72905
2151099183308,-0.02529165,-0.20078973,9.764093
2151119039565,-0.0687975,-0.2067513,9.766274
2151138895948,-0.06874903,-0.23195988,9.762564
2151158752332,-0.07243274,-0.2081446,9.751334
2151178608589,-0.08350266,-0.15013364,9.766662
2151198464972,-0.06422935,-0.17957912,9.760566
2151218324928,-0.034883488,-0.23785079,9.740104
2151238181313,-0.077653475,-0.1896586,9.720616
2151258037696,-0.11500611,-0.16564181,9.731638
2151277894080,-0.07868271,-0.14760461,9.757464
2151297750465,-0.055862717,-0.16832606,9.770877
2151317607494,-0.04743305,-0.15878841,9.7980995
2151337463878,-0.057459366,-0.1289854,9.759252
2151357320391,-0.072226286,-0.11568502,9.739921
2151377176774,-0.099163055,-0.15002023,9.748982
2151397039454,-0.087551,-0.22504549,9.722725
2151416896095,-0.06930532,-0.203365,9.735847
2151436752606,-0.05118362,-0.15131067,9.741989
2151456609246,-0.06371246,-0.15360576,9.747792
2151476465759,-0.053611603,-0.1913336,9.762953
2151496322398,-0.04868188,-0.16603307,9.771892
2151516175777,-0.038329005,-0.14449844,9.762498
2151536032418,-0.070331395,-0.12260499,9.767225
2151555888929,-0.098930776,-0.17267299,9.741786
2151575745569,-0.08283697,-0.19896492,9.759312
2151595602082,-0.055426598,-0.16078936,9.743987
2151615467047,-0.05373255,-0.15242241,9.770608
2151635323943,-0.061692316,-0.16507286,9.760538
2151655180712,-0.045265608,-0.18961824,9.746797
2151675037607,-0.0480493,-0.18440457,9.746285
2151694886806,-0.051756576,-0.1665467,9.773966
2151714743447,-0.04494078,-0.17446071,9.758264
2151734599958,-0.035332877,-0.18864933,9.760109
2151754456598,-0.054804854,-0.15270899,9.760825
2151774313111,-0.051540557,-0.19224253,9.736556
2151794169750,-0.020196993,-0.19817229,9.75755
2151814026823,-0.04948715,-0.14470693,9.734519
2151833883464,-0.10054432,-0.18388367,9.720561
2151853740103,-0.082566425,-0.20623714,9.748052
2151873596615,-0.038282096,-0.179132,9.756983
2151893453256,-0.011503983,-0.16863075,9.774214
2151913310626,-0.018947951,-0.16763683,9.777835
2151933167266,-0.048269294,-0.16273558,9.783666
2151953023779,-0.059393764,-0.16991387,9.736768
2151972880418,-0.057453867,-0.17100962,9.737032
2151992738131,-0.06742468,-0.19630072,9.751695
2152012594644,-0.085161455,-0.21274361,9.759998
2152032451283,-0.057931617,-0.18746069,9.754738
2152052307923,-0.04977231,-0.16149478,9.747201
2152072164564,-0.047522794,-0.20920317,9.752177
2152092021075,-0.0610466,-0.1671516,9.765414
2152111879879,-0.065423645,-0.13860255,9.761078
2152131736648,-0.0728051,-0.14812802,9.763056
2152151593287,-0.073392,-0.16584234,9.751703
2152171449927,-0.082115345,-0.17109993,9.7460375
2152191306696,-0.07399947,-0.15993437,9.777881
2152211160171,-0.07738603,-0.1434897,9.771752
2152231016811,-0.060074516,-0.1352138,9.749254
2152250873452,-0.043040283,-0.18394381,9.731911
2152270730091,-0.034446064,-0.20976438,9.746202
2152290583604,-0.0071526654,-0.21701251,9.749689
2152310440117,0.051531486,-0.20026258,9.741493
2152330296756,0.038865227,-0.17253225,9.803453
2152350153396,0.016027989,-0.17449956,9.786046
2152370010037,-0.033448096,-0.18911043,9.737312
2152389866548,-0.047919225,-0.14694236,9.718845
2152409720311,-0.105176,-0.09935209,9.687937
2152429576824,-0.13655753,-0.1682588,9.755021
2152449433335,-0.10270584,-0.18465939,9.796131
2152469289719,-0.10357434,-0.13819787,9.762404
2152489146232,-0.14617258,-0.11237127,9.753647
2152509006911,-0.21461535,-0.15393925,9.74473
2152528863423,-0.25191408,-0.18736215,9.750485
2152548720064,-0.18577974,-0.19371746,9.761053
2152568576575,-0.09433392,-0.17857136,9.765904
2152588433087,-0.033314712,-0.17855273,9.748858
2152608289600,0.012218544,-0.1912934,9.750077
2152628145812,0.014350889,-0.20980492,9.733776
2152648002324,0.02317675,-0.24068509,9.726444
2152667858837,0.06385209,-0.22680558,9.73058
2152687715476,0.03984287,-0.16605455,9.75088
2152707569237,0.014402568,-0.12806833,9.753085
2152727425750,-0.005076258,-0.14944102,9.754208
2152747282261,-0.017144265,-0.18867952,9.773281
2152767138645,-0.035425413,-0.1715427,9.760602
2152786995158,-0.075516135,-0.1274627,9.744173
2152806848518,-0.043339774,-0.14816155,9.729708
2152826705030,-0.02896677,-0.16964197,9.756425
2152846561415,-0.024108434,-0.16866833,9.776279
2152866417926,-0.048619058,-0.16415343,9.768056
2152886274438,-0.0658429,-0.16857864,9.734735
2152906130823,-0.058586773,-0.10708619,9.766654
2152925990563,-0.097032145,-0.13729486,9.763435
2152945841787,-0.10971318,-0.18950944,9.737626
2152965698300,-0.07525737,-0.17195809,9.750596
2152985554811,-0.12293333,-0.13099211,9.762373
2153005419265,-0.14325665,-0.11001332,9.751722
2153025275906,-0.104069255,-0.15491757,9.768099
2153045132673,-0.035380203,-0.16625865,9.771809
2153064989313,-0.024962418,-0.13674688,9.776384
2153084845954,-0.04286465,-0.1372326,9.76463
2153104695059,-0.080796994,-0.15718901,9.760735
2153124551571,-0.063530274,-0.18423964,9.7615185
2153144408084,-0.037946388,-0.2157753,9.751493
2153164264595,0.008927122,-0.18827349,9.733842
2153184121107,0.040267084,-0.18197203,9.766055
2153203977492,-0.004701611,-0.20068987,9.780894
2153223832985,-0.04509839,-0.1986465,9.754375
2153243689369,-0.041146193,-0.16210802,9.760428
2153263545882,-0.06672006,-0.14805701,9.75194
2153283402393,-0.092469126,-0.17246667,9.762246
2153303253407,-0.11882015,-0.1744004,9.764038
2153323109792,-0.104163475,-0.18267158,9.742006
2153342966175,-0.0827852,-0.14907396,9.747741
2153362822559,-0.07903276,-0.1612682,9.741447
2153382678816,-0.077668704,-0.19921471,9.750612
2153402535595,-0.076288894,-0.17731793,9.761784
2153422391979,-0.07421759,-0.14851825,9.77025
2153442248236,-0.05616238,-0.17637046,9.739868
2153462104619,-0.039470274,-0.23111774,9.751209
2153481961003,-0.041574076,-0.21235627,9.771851
2153501817388,0.0039172717,-0.16509211,9.748533
2153521683170,-0.0044900933,-0.16646366,9.7620735
2153541539682,-0.032221597,-0.15697776,9.75354
2153561396195,-0.09630106,-0.17460877,9.746781
2153581252834,-0.12343475,-0.19320668,9.768625
2153601109224,-0.098096274,-0.16097228,9.784785
2153620965865,-0.053459078,-0.12544934,9.771525
2153640822376,-0.034828752,-0.1556193,9.772827
2153660679016,-0.05070607,-0.17210624,9.766904
2153680535529,-0.041023314,-0.16112114,9.745803
2153700392168,-0.057466872,-0.1609304,9.746079
2153720247942,-0.058373366,-0.17792134,9.753969
2153740104583,-0.055999808,-0.18030617,9.754359
2153759961094,-0.046829186,-0.15073188,9.749267
2153779817734,-0.042364378,-0.14266796,9.77116
2153799674247,-0.02935326,-0.18152234,9.762426
2153819531916,-0.033213906,-0.17633718,9.761658
2153839388428,-0.059885636,-0.1600335,9.755436
2153859244941,-0.06589822,-0.14854184,9.744546
2153879101580,-0.05633887,-0.15976162,9.755313
2153898961469,-0.05584912,-0.15979578,9.745134
2153918817982,-0.055246923,-0.14733708,9.754372
2153938674621,-0.037200913,-0.17211136,9.7583475
2153958531261,-0.00943381,-0.18457222,9.747705
2153978387902,-0.04350842,-0.17920695,9.769988
2153998244413,-0.045239635,-0.17759314,9.762464
2154018112919,-0.022268057,-0.17189035,9.728727
2154037969688,-0.013602951,-0.19283032,9.740329
2154057826583,-0.039957963,-0.20171787,9.778626
2154077683351,-0.053620536,-0.17760964,9.746946
2154097540248,-0.018478064,-0.16816236,9.733798
2154117394681,-0.02832104,-0.14070338,9.733738
2154137251577,-0.076645575,-0.18175273,9.74186
2154157108346,-0.08954489,-0.16970646,9.747048
2154176965241,-0.07110058,-0.1366002,9.7840805
2154196818322,-0.032920856,-0.13229588,9.766675
2154216675219,-0.047946732,-0.16891289,9.756832
2154236531986,-0.07327343,-0.16894086,9.758519
2154256388882,-0.067164,-0.11684651,9.764101
2154276245651,-0.061045803,-0.15534486,9.759257
2154296102418,-0.03608145,-0.19480151,9.744476
2154315949397,-0.028677814,-0.18754138,9.747366
2154335806038,-0.051897995,-0.1458841,9.774195
2154355662677,-0.06486581,-0.117965065,9.768854
2154375519317,-0.060355034,-0.15417537,9.761246
2154395375958,-0.05591285,-0.19205387,9.770654
2154415224923,-0.034109812,-0.17993093,9.760475
2154435081435,-0.02406914,-0.15300968,9.76279
2154454937820,-0.031420395,-0.13880078,9.76131
2154474794203,-0.06617073,-0.15673886,9.752874
2154494652696,-0.045821544,-0.18790245,9.751737
2154514509209,-0.039582383,-0.19928563,9.762614
2154534365720,-0.032305118,-0.18938856,9.772523
2154554222232,-0.040696986,-0.17552069,9.768393
2154574078745,-0.049551237,-0.19116172,9.743888
2154593935128,-0.02386209,-0.20779777,9.7257595
2154613795742,-0.004883294,-0.1970752,9.749202
2154633652383,-0.041291486,-0.16476631,9.786989
2154653509022,-0.0674001,-0.144817,9.746795
2154673365534,-0.03916712,-0.16898756,9.736647
2154693222175,-0.054587353,-0.1353888,9.740617
2154713073541,-0.0688823,-0.17347975,9.72364
2154732930053,-0.06258113,-0.20991863,9.759741
2154752786566,-0.05505472,-0.16520852,9.7924595
2154772643077,-0.037749138,-0.11495261,9.768106
2154792492421,-0.048569553,-0.1307134,9.767502
2154812348806,-0.06256033,-0.1724876,9.748393
2154832205061,-0.07894118,-0.177242,9.753819
2154852061445,-0.07664142,-0.15847704,9.753227
2154871917830,-0.068796396,-0.17292549,9.749946
2154891774085,-0.058504578,-0.1734721,9.751039
2154911628627,-0.042761542,-0.1758611,9.748048
2154931484884,-0.037809495,-0.16870858,9.745898
2154951335873,-0.04097175,-0.12895173,9.760554
2154971192129,-0.06404736,-0.1419941,9.780137
2154991048386,-0.06919455,-0.16906083,9.766242
2155010908322,-0.047311082,-0.16947453,9.768847
2155030764578,-0.046310835,-0.15125369,9.7415695
2155050620835,-0.06827223,-0.15144329,9.743857
2155070476962,-0.08191685,-0.17487454,9.750445
2155090333218,-0.07012398,-0.18645439,9.757112
2155110189475,-0.041764487,-0.17157777,9.759744
2155130052203,-0.02946701,-0.12996088,9.756905
2155149908587,-0.052252743,-0.15134583,9.752785
2155169765100,-0.042427212,-0.17509636,9.754967
2155189621483,-0.038363237,-0.16699529,9.7644415
2155209482868,-0.0639075,-0.1638141,9.78063
2155229339381,-0.03443361,-0.164211,9.755111
2155249195764,-0.0027204836,-0.15245686,9.755868
2155269052276,-0.043179765,-0.12304246,9.723396
2155288908661,-0.060195085,-0.15184942,9.732312
2155308758231,-0.056115735,-0.1843548,9.765709
2155328614487,-0.04711039,-0.13450837,9.781518
2155348470744,-0.04663328,-0.10293195,9.789862
2155368327127,-0.09258761,-0.12953416,9.752497
2155388183383,-0.1243096,-0.13881138,9.730121
2155408039640,-0.11450348,-0.13654499,9.728724
2155427898338,-0.0966791,-0.1575497,9.744191
2155447754594,-0.10253313,-0.16231139,9.777547
2155467610979,-0.070474505,-0.16081229,9.771471
2155487467362,-0.036933947,-0.16768786,9.7634945
2155507330627,-0.04627285,-0.17802317,9.765369
2155527187140,-0.06378421,-0.16879942,9.750858
2155547043651,-0.07262778,-0.14085567,9.743548
2155566900163,-0.057315115,-0.16062461,9.758375
2155586756676,-0.04345068,-0.17729878,9.763177
2155606616478,-0.026703581,-0.17465782,9.769878
2155626473118,-0.026046753,-0.16188894,9.764573
2155646329887,-0.03372783,-0.16164248,9.768512
2155666186526,-0.036697272,-0.187367,9.752613
2155686043294,-0.011991891,-0.1633045,9.747064
2155705899935,-0.041323774,-0.15811117,9.750704
2155725759640,-0.04642617,-0.19013098,9.771061
2155745616408,-0.055557024,-0.21706033,9.737708
2155765473177,-0.052422542,-0.21056007,9.773946
2155785329944,-0.035191443,-0.14667617,9.777637
2155805185267,-0.024239779,-0.13988324,9.7424755
2155825042036,-0.027650757,-0.16583861,9.750607
2155844898803,-0.079555854,-0.15713419,9.737169
2155864755571,-0.08481969,-0.16103472,9.734493
2155884612340,-0.07616504,-0.14045458,9.763442
2155904471856,-0.056968473,-0.110434696,9.776524
2155924328624,-0.064119235,-0.123332925,9.774053
2155944185393,-0.07709165,-0.16703807,9.762652
2155964042160,-0.05077807,-0.17905125,9.761646
2155983899056,-0.044574462,-0.14294809,9.746173
2156003755825,-0.059403386,-0.1475578,9.749524
2156023611440,-0.0643397,-0.16959615,9.754949
2156043468208,-0.05442898,-0.17265233,9.768448
2156063324977,-0.0448118,-0.14156541,9.7656145
2156083181744,-0.067813136,-0.12189932,9.752438
2156103037395,-0.10196138,-0.11881605,9.746266
2156122894164,-0.1319263,-0.15909941,9.759289
2156142750931,-0.15016788,-0.17381354,9.76299
2156162607699,-0.12846825,-0.12097348,9.7463
2156182464340,-0.07453229,-0.12714799,9.760099
2156202321107,-0.025634155,-0.1816011,9.742001
2156222182946,-0.008323046,-0.20095742,9.742143
2156242039843,0.0340241,-0.19232818,9.749079
2156261896610,0.05716025,-0.15096544,9.773905
2156281753506,0.03177139,-0.18224119,9.7703
2156301610403,-0.020234615,-0.2197268,9.773255
2156321458033,-0.040871456,-0.19877538,9.753063
2156341314673,-0.046801608,-0.14870845,9.750178
2156361171442,-0.06516136,-0.18166603,9.773751
2156381028081,-0.068763696,-0.19847766,9.738011
2156400874371,-0.029107178,-0.20011364,9.738041
2156420730756,-0.011162444,-0.14362776,9.751928
2156440587267,-0.04495046,-0.12765557,9.749855
2156460443651,-0.056722272,-0.1390508,9.756497
2156480300036,-0.04132595,-0.12957737,9.745779
2156500156547,-0.030020062,-0.15424828,9.74168
2156520010816,-0.0745695,-0.16312657,9.752147
2156539867201,-0.05707144,-0.15292113,9.768117
2156559723456,-0.02315839,-0.10620577,9.772017
2156579579840,-0.03162288,-0.1282523,9.753032
2156599436225,-0.025723267,-0.18512776,9.766366
2156619292870,0.002789616,-0.21350332,9.744817
2156639149254,-7.569609E-4,-0.17549087,9.73988
2156659005511,0.008316815,-0.14894249,9.741987
2156678861894,0.04074441,-0.17756303,9.759402
2156698719163,0.023582201,-0.17274581,9.771339
2156718575548,-0.005516187,-0.103786446,9.774134
2156738431931,0.0014427828,-0.12009588,9.778379
2156758288315,-0.015018289,-0.16664144,9.786121
2156778144700,-0.042458948,-0.15620957,9.77028
2156798001083,-0.03459377,-0.13884993,9.743842
2156817859788,-0.04744204,-0.14852194,9.754838
2156837716301,-0.041050483,-0.18924844,9.752809
2156857572684,-0.031007092,-0.2196258,9.750565
2156877429196,-0.00804702,-0.17538081,9.758169
2156897285709,-0.00585781,-0.1681312,9.758063
2156917136143,-0.04325237,-0.19964677,9.750032
2156936992399,-0.045939203,-0.22278431,9.753161
2156956848784,-0.0455705,-0.21242101,9.767179
2156976698981,-0.020591106,-0.1795435,9.773039
2156996556017,-0.0043272492,-0.17993541,9.748291
2157016412274,-0.01872961,-0.16869079,9.743625
2157036268529,-0.041308444,-0.18328115,9.734277
2157056124785,-0.040954255,-0.1675711,9.752795
2157075981170,-0.038322005,-0.1452764,9.764065
2157095837425,-0.016984986,-0.18317112,9.777977
2157115701641,-0.03300222,-0.17663802,9.7611685
2157135558154,-0.04287992,-0.14151995,9.751011
2157155414665,-0.045423377,-0.13817507,9.72856
2157175271049,-0.059546832,-0.14979227,9.739464
2157195127562,-0.056768283,-0.17231496,9.765059
2157214969371,-0.05895364,-0.13295487,9.777256
2157234825499,-0.06364846,-0.093956254,9.755241
2157254681628,-0.08275459,-0.14056042,9.745746
2157274537755,-0.053949386,-0.21540481,9.738196
2157294391274,-0.04790515,-0.18697721,9.769022
2157314247403,-0.032032665,-0.10309193,9.764033
2157334103402,-0.004852352,-0.10115604,9.757107
2157353959530,-0.014457959,-0.17287618,9.757246
2157373815531,-0.036717087,-0.170502,9.761817
2157393671658,-0.049499985,-0.12530515,9.772275
2157413527291,-0.04754477,-0.13403217,9.75364
2157433383292,-0.045809668,-0.1563128,9.740538
2157453239291,-0.054183554,-0.19354936,9.74374
2157473095291,-0.04995129,-0.14610532,9.751215
2157492951292,-0.054958366,-0.0971653,9.769779
2157512814282,-0.034002576,-0.120433085,9.744293
2157532670410,-0.06313479,-0.14394441,9.754232
2157552526667,-0.10394435,-0.1335,9.77319
2157572382794,-0.09915205,-0.13477269,9.759198
2157592239050,-0.06274696,-0.15943311,9.7428465
2157612095179,-0.075331494,-0.11022914,9.721923
2157631959516,-0.07504179,-0.09625523,9.723534
2157651815772,-0.06496373,-0.15802912,9.768994
2157671672157,-0.057350032,-0.14385588,9.764282
2157691528540,-0.047318988,-0.116014466,9.766345
2157711386791,-0.061127603,-0.14756697,9.747135
2157731243176,-0.043602522,-0.16212477,9.742647
2157751099559,-0.030358274,-0.12740847,9.746966
2157770956071,-0.04868122,-0.124052405,9.761606
2157790812456,-0.0055686375,-0.1270836,9.785956
2157810670787,-0.016488232,-0.12954462,9.755721
2157830527299,-0.028995402,-0.11542155,9.736724
2157850383812,-0.025803596,-0.11693891,9.751646
2157870240323,-0.04745239,-0.13885313,9.745561
2157890096835,-0.06432065,-0.13699746,9.772492
2157909953348,-0.09203363,-0.10632488,9.774998
2157929815881,-0.09204138,-0.12533468,9.747019
2157949672393,-0.056844562,-0.1805203,9.756279
2157969529034,-0.049376037,-0.16037749,9.770558
2157989385673,-0.060508564,-0.1212601,9.752652
2158009244452,-0.06545697,-0.14939895,9.746324
2158029101093,-0.03910131,-0.2043379,9.740117
2158048957732,-0.028724803,-0.19497056,9.774508
2158068814372,-0.04759194,-0.14943165,9.769899
2158088671013,-0.036304478,-0.14526388,9.754056
2158108527048,-0.039941687,-0.17950499,9.743668
2158128383688,-0.058590975,-0.20107143,9.769317
2158148240201,-0.048047528,-0.19667251,9.760601
2158168096840,-0.018407121,-0.15200986,9.780826
2158187953480,-0.0039335876,-0.14825918,9.741224
2158207810121,-0.031031208,-0.16371068,9.72698
2158227664066,-0.057581518,-0.17619357,9.746059
2158247520706,-0.05329395,-0.13244605,9.773362
2158267377347,-0.03154269,-0.11185663,9.78918
2158287233858,-0.030763013,-0.16748573,9.777677
2158307084054,-0.038994256,-0.19563821,9.761389
2158326940567,-0.022863006,-0.11466883,9.741977
2158346797078,-0.046813276,-0.07429654,9.76598
2158366653590,-0.062013194,-0.16202554,9.759442
2158386509975,-0.03684473,-0.18559454,9.756296
2158406362841,-0.03947143,-0.1629691,9.7522
2158426219353,-0.0043028183,-0.13730064,9.745004
2158446075738,-0.008496392,-0.16840181,9.748639
2158465932121,-0.009407225,-0.16488785,9.762691
2158485788633,-0.017730143,-0.14044733,9.755538
2158505645018,-0.0063671432,-0.14922221,9.764521
2158525501846,-0.022700943,-0.14858519,9.743209
2158545358358,-0.04676007,-0.16113484,9.733934
2158565214743,-0.053146455,-0.23141496,9.725037
2158585071126,-0.0695645,-0.22711043,9.73027
2158604931252,-0.025712704,-0.15214464,9.7258625
2158624787765,-0.005947717,-0.10943199,9.708785
2158644644276,-0.03406215,-0.09905682,9.738834
2158664500788,-0.06699692,-0.098677434,9.759422
2158684357301,-0.05674438,-0.086947694,9.750243
2158704213812,0.0029792776,-0.119920515,9.7735615
2158724072969,0.09381817,-0.085769445,9.805985
2158743929610,0.10373502,-0.06340737,9.774422
2158763786249,0.1297504,-0.09350782,9.748101
2158783642889,0.11256877,-0.069823965,9.735403
2158803499658,0.034732975,-0.12217338,9.7348175
2158823348605,0.0040764026,-0.13365172,9.7374735
2158843204989,0.019789876,-0.14135173,9.742369
2158863061374,0.06951725,-0.19525479,9.743826
2158882917757,0.029484663,-0.21765094,9.748867
2158902767113,0.032987975,-0.17746598,9.759233
2158922623370,0.0554219,-0.12531365,9.750903
2158942479625,0.06275583,-0.08731826,9.768576
2158962335753,0.052280042,-0.09238641,9.7923155
2158982192010,0.017667187,-0.13476518,9.8012905
2159002046365,0.016565124,-0.12753393,9.784018
2159021909417,-0.014409459,-0.10658439,9.781864
2159041765674,-0.02703253,-0.11254287,9.764098
2159061622057,-2.600606E-4,-0.14504062,9.800409
2159081478313,0.022462359,-0.12868379,9.791932
2159101334570,0.036757287,-0.13992701,9.770069
2159121156405,0.07505067,-0.11921276,9.745424
2159141012149,0.079575114,-0.20501283,9.7298155
2159160867766,0.049595524,-0.26482743,9.706897
2159180723381,0.05465788,-0.2682485,9.740435
2159200589932,0.0824994,-0.18384615,9.760548
2159220445677,0.07536251,-0.13435677,9.749026
2159240301548,0.11861395,-0.14293237,9.750164
2159260157420,-0.040413264,-0.1910597,9.730621
2159280013293,-0.038932454,-0.116387896,9.701137
2159299869036,0.077029765,-0.06305564,9.753603
2159319732490,-0.0023213793,-0.1521526,9.742572
2159339588491,-0.090989396,-0.14037786,9.68513
2159359444362,-0.19696519,-0.085138954,9.739906
2159379300362,-0.22211921,-0.10721138,9.755454
2159399156363,-0.17841442,-0.16537523,9.756593
2159419016836,-0.12759392,-0.12737492,9.7315855
2159438872836,-0.08645414,-0.12503366,9.7203865
2159458728837,-0.13173261,-0.11088337,9.7080145
2159478584708,-0.22181587,-0.06931803,9.712889
2159498454422,-0.34280857,-0.13635513,9.731552
2159518310679,-0.37973973,-0.26457927,9.805796
2159538166934,-0.24915928,-0.20853223,9.823154
2159558023318,-0.076627,-0.15698327,9.770896
2159577879575,0.028703926,-0.074412346,9.71991
2159597735830,2.365114E-4,-0.103165485,9.738367
2159617596645,-0.1169001,-0.2242728,9.777578
2159637453030,-0.2114471,-0.24131484,9.800546
2159657309541,-0.26994273,-0.19027746,9.781923
2159677165925,-0.2292904,-0.23736738,9.815126
2159697022438,-0.11481977,-0.23021679,9.823318
2159716884392,-0.0948305,-0.13077338,9.857192
2159736740904,-0.12545511,-0.15193868,9.796647
2159756597545,-0.024170926,-0.28586558,9.788823
2159776454184,0.11913325,-0.31029317,9.795195
2159796310696,0.05084573,-0.21230252,9.750295
2159816167337,-0.015519155,-0.13453715,9.791909
2159836032808,0.0144242775,-0.08411143,9.812956
2159855889576,-0.009756828,-0.1611209,9.745331
2159875746345,0.03659359,-0.08148188,9.794459
2159895603112,-0.0027005319,-0.022416068,9.8026495
2159915464177,-0.10020973,-0.041599307,9.6658
2159935321074,-0.15890716,-0.07105766,9.720523
2159955177969,-0.19369002,-0.06836895,9.786633
2159975034737,-0.2268603,-0.15590642,9.824863
2159994891634,-0.23265257,-0.1976994,9.794791
2160014747968,-0.1734548,-0.19245338,9.735445
2160034604736,-0.14271992,-0.22938839,9.752696
2160054461633,-0.13037115,-0.2731126,9.743078
2160074318528,-0.18622088,-0.34117323,9.764231
2160094175296,-0.17518641,-0.35308522,9.7853
2160114032193,-0.12348467,-0.3033486,9.753914
2160133881175,-0.07610938,-0.24747188,9.805581
2160153737943,-0.10349455,-0.221094,9.85463
2160173594584,-0.10809161,-0.36251962,9.887594
2160193451351,-0.09865431,-0.46450475,9.883306
2160213310973,-0.08376742,-0.45022485,9.869935
2160233167870,-0.04854647,-0.37813863,9.80644
2160253024637,-0.062495463,-0.36094284,9.764015
2160272881533,-0.056124974,-0.44377837,9.754456
2160292738430,-0.103566214,-0.45751774,9.756493
2160312586381,-0.12509929,-0.3602706,9.799954
2160332443149,-0.1546793,-0.37667894,9.862415
2160352299918,-0.16660035,-0.40154868,9.809053
2160372156557,-0.21391761,-0.3581369,9.739902
2160392013325,-0.21183859,-0.35840702,9.818652
2160411870094,-0.1504875,-0.17505455,9.802941
2160431728043,-0.11997248,-0.054450262,9.72649
2160451584811,-0.17674688,-0.11809886,9.803336
2160471441580,-0.15133661,-0.18544446,9.8223095
2160491298347,-0.03297663,-0.111083426,9.782431
2160511158674,-0.0069052777,-0.0933151,9.706466
2160531015571,-0.03343504,-0.06433194,9.664719
2160550872466,-0.03596683,-0.044765178,9.722906
2160570729234,0.030325921,-0.036173157,9.790546
2160590586131,0.083089575,-0.040491503,9.801366
2160610442533,0.07173408,0.0339433,9.77518
2160630299429,-0.029558424,0.004128346,9.747641
2160650156454,-0.12065803,-0.09372345,9.782093
2160670013349,-0.1068571,-0.10152023,9.7599125
2160689870373,-0.06229775,-0.09817027,9.731377
2160709727270,-0.035818066,-0.10511631,9.811828
2160729563630,-0.04902066,-0.060379,9.794668
2160749419886,-0.1280204,-0.06590452,9.702511
2160769276143,-0.20361634,-0.15019755,9.736214
2160789132398,-0.2279593,-0.123621404,9.814783
2160808985588,-0.24758023,-0.055445444,9.829693
2160828841845,-0.1922099,0.07209546,9.808449
2160848697972,-0.08461722,0.0051166373,9.737023
2160868554228,-0.0013372338,-0.175964,9.753315
2160888410357,0.057071984,-0.21874131,9.741286
2160908266484,0.13132578,-0.13611485,9.758763
2160928128506,0.18248841,-0.11079197,9.810032
2160947984763,0.16596416,-0.047936294,9.798892
2160967841018,0.08514237,0.009739595,9.824682
2160987707314,0.01266613,-0.031950027,9.898247
2161007563571,-0.04403451,-0.10756136,9.8593445
2161027423282,-0.07150649,-0.13953722,9.792737
2161047279666,-0.08971514,-0.10582732,9.769744
2161067135923,-0.13622612,-0.14895336,9.742059
2161086992306,-0.17235655,-0.25900236,9.745056
2161106847648,-0.20488198,-0.22307798,9.702392
2161126704033,-0.20183185,-0.20749207,9.758663
2161146560416,-0.12588856,-0.2232155,9.80965
2161166416672,-0.065045625,-0.22373182,9.813792
2161186273057,-0.06717438,-0.25098616,9.785179
2161206129312,-0.13812381,-0.29297763,9.782323
2161225985580,-0.21292739,-0.3407338,9.800931
2161245841837,-0.15611218,-0.26490247,9.767677
2161265698220,-0.12252828,-0.16180032,9.729531
2161285554476,-0.05468365,-0.18274198,9.796018
2161305410733,0.049226508,-0.19131002,9.832407
2161325264808,0.041270625,-0.1852126,9.8179035
2161345121064,0.06091002,-0.13697457,9.762856
2161364977321,0.07950763,-0.15394059,9.76735
2161384833576,0.14518389,-0.22271778,9.778425
2161404691693,0.18584144,-0.27669612,9.803918
2161424548078,0.16537504,-0.22221106,9.790704
2161444404461,0.15302077,-0.17731561,9.814421
2161464260717,0.13560434,-0.15605131,9.790384
2161484117102,0.113712616,-0.19133848,9.757426
2161503973485,0.062384702,-0.2299327,9.741149
2161523840188,0.08299143,-0.1693197,9.785896
2161543696829,0.10588245,-0.10181893,9.801104
2161563553340,0.07031936,-0.17311102,9.74739
2161583409980,-0.005057324,-0.26669303,9.726677
2161603266621,0.03313931,-0.2674945,9.794863
2161623124034,0.07532752,-0.23469675,9.837925
2161642980802,0.18220611,-0.13620985,9.793772
2161662837443,0.25237674,-0.15886307,9.758805
2161682694082,0.22776371,-0.22914894,9.741435
2161702550472,0.15455621,-0.28855914,9.767177
2161722407113,0.13369223,-0.18787101,9.80227
2161742263752,0.12634772,-0.16699955,9.756608
2161762120392,0.033081546,-0.2714534,9.747715
2161781977033,0.048130505,-0.25806773,9.78997
2161801833544,0.10454034,-0.19739237,9.796629
2161821693262,0.033738833,-0.14299594,9.76527
2161841550031,-0.11748183,-0.12694347,9.7392025
2161861406670,-0.27781698,-0.15344426,9.789337
2161881263438,-0.35937425,-0.20895624,9.8200445
2161901120079,-0.36362725,-0.1720504,9.806624
2161920975345,-0.32039893,-0.09494848,9.785121
2161940831857,-0.25781655,-0.14233074,9.795853
2161960688498,-0.13408798,-0.27164337,9.811187
2161980545137,-0.03836224,-0.24425429,9.834229
2162000405745,-0.01074637,-0.15676734,9.799532
2162020262386,-0.032710362,-0.19395754,9.769163
2162040119025,-0.04620515,-0.28247058,9.794678
2162059975793,-0.038697135,-0.2835271,9.8018
2162079832434,0.006851588,-0.2535833,9.770574
2162099689201,0.011628852,-0.206466,9.767819
2162119545158,0.018681,-0.1954017,9.800515
2162139401927,0.014188143,-0.27899683,9.811282
2162159258694,0.07334388,-0.3279732,9.75104
2162179115462,0.11622039,-0.24909596,9.793738
2162198972231,0.110944405,-0.13361135,9.770137
2162218823725,0.12155625,-0.1829712,9.766834
2162238680365,0.089401186,-0.2581998,9.7490635
2162258537006,0.008039051,-0.26257458,9.75093
2162278393645,-0.030958623,-0.23961051,9.744105
2162298250285,-0.030112188,-0.15789992,9.7428665
2162318106926,-0.09186561,-0.1657576,9.737834
2162337958689,-0.09450833,-0.2759607,9.778695
2162357815201,-0.028653268,-0.27584478,9.798967
2162377671842,0.09342016,-0.20069765,9.87112
2162397528353,0.16766188,-0.15244214,9.862577
2162417381287,0.20758085,-0.1560936,9.774276
2162437237672,0.20068575,-0.15821046,9.762317
2162457094055,0.116482094,-0.24101642,9.766772
2162476950567,-0.05498183,-0.32613537,9.746241
2162496806952,-0.16355187,-0.32785323,9.754013
2162516664466,-0.14679801,-0.34563142,9.786548
2162536520978,-0.103243835,-0.27498546,9.818327
2162556377491,-0.10285178,-0.19000553,9.818134
2162576234002,-0.15461196,-0.14200135,9.756003
2162596090514,-0.27132234,-0.20769449,9.755934
2162615946899,-0.3544397,-0.30811688,9.79384
2162635798991,-0.34204322,-0.30861452,9.818645
2162655655375,-0.31823462,-0.27482346,9.82275
2162675511760,-0.33360788,-0.15437834,9.865307
2162695368271,-0.34398198,-0.0714033,9.859733
2162715222954,-0.24354604,-0.11609947,9.769304
2162735079339,-0.11303708,-0.2260637,9.711945
2162754935594,-0.03501091,-0.23963195,9.770917
2162774791978,0.082479954,-0.23754047,9.809249
2162794648363,0.23421742,-0.22541235,9.7523985
2162814503161,0.34535158,-0.22846787,9.727931
2162834359417,0.440151,-0.15375082,9.774875
2162854215802,0.45502937,-0.12455789,9.741876
2162874072057,0.39369035,-0.18423644,9.680715
2162893928441,0.30883712,-0.33083832,9.712087
2162913784698,0.19913459,-0.343873,9.853805
2162933642355,0.10268829,-0.31083784,9.892812
2162953498611,0.022174878,-0.22431915,9.857363
2162973354868,-0.022946198,-0.13795422,9.849891
2162993211123,-0.07752612,-0.090959355,9.834463
2163013067388,-0.07922689,-0.15153974,9.787666
2163032923645,-0.09113188,-0.24166976,9.7523775
2163052779900,-0.16359551,-0.2396517,9.735586
2163072636156,-0.22729082,-0.24000299,9.710136
2163092492285,-0.23954509,-0.25392103,9.71773
2163112348729,-0.17933427,-0.30619183,9.752564
2163132204985,-0.09808903,-0.29035512,9.76612
2163152061242,-0.06504494,-0.22249754,9.828247
2163171917497,-0.04985913,-0.21261173,9.8603325
2163191773753,-0.04814731,-0.21841651,9.814322
2163211630010,-0.04916404,-0.23751019,9.860966
2163231490617,-0.08600066,-0.30603275,9.8587675
2163251346873,-0.10135809,-0.32437715,9.785514
2163271203258,-0.13172802,-0.2815374,9.71734
2163291059513,-0.18919945,-0.32495308,9.6654005
2163310916201,-0.26531285,-0.3768074,9.701343
2163330772586,-0.30224597,-0.3412637,9.847084
2163350628969,-0.31326753,-0.23551083,9.865162
2163370485225,-0.33798516,-0.10906672,9.858132
2163390341610,-0.23338082,0.07614075,9.846047
2163410203570,-0.1727046,0.2541854,9.849366
2163430060082,-0.1658565,0.1338914,9.817338
2163449916467,-0.21635514,0.23806742,9.766562
2163469772978,-0.29459408,0.34455162,9.767608
2163489629490,-0.3278128,0.39838102,9.834723
2163509486003,-0.34312624,0.38977626,9.839015
2163529349499,-0.27417192,0.21583067,9.767422
2163549206139,-0.17279029,0.02650785,9.7011
2163569062780,-0.18976639,-0.026731864,9.720202
2163588919547,-0.32571867,-0.2066602,9.714733
2163608775649,-0.42011642,-0.28784832,9.688233
2163628632418,-0.38913795,-0.29881844,9.721135
2163648489057,-0.4245407,-0.39901105,9.721253
2163668345825,-0.25349957,-0.6748741,9.793359
2163688202594,-0.05020015,-0.67785245,9.832208
2163708059233,-0.04482553,-0.2609176,9.818418
2163727924406,-0.053781617,-0.14188041,9.866257
2163747781303,0.08225721,-0.33884192,9.848238
2163767638070,0.18531431,-0.57819945,9.824313
2163787494966,0.25551826,-0.7879544,9.665162
2163807351863,0.12428308,-1.1195005,9.685937
2163827207236,-0.45989907,-1.1634376,10.150449
2163847064132,-0.6102287,-1.3304515,10.370624
2163866921029,0.027909648,-1.3294747,10.121351
2163886777924,0.7078621,-0.9067557,9.674656
2163906635453,1.0799166,-0.19735155,9.194792
2163926492350,1.7264732,0.35442162,9.204567
2163946349245,2.0631378,0.9429159,9.546838
2163966206141,0.8443763,1.1598527,10.088981
2163986062910,0.05577854,0.47799936,10.301425
2164005919805,0.28620055,-0.160604,10.220079
2164025779601,0.7990316,-0.12915379,10.172714
2164045636497,1.1282847,-0.18859497,10.309435
2164065493521,1.2092636,-0.11692588,10.197544
2164085350417,1.3147737,0.47610474,10.003911
2164105207441,1.4604144,1.0228156,9.96145
2164125055299,1.0565652,1.1757684,9.9696455
2164144912195,0.26690203,1.0591149,9.880183
2164164768963,-0.3051284,0.82165754,9.9860735
2164184625731,-1.0589204,0.50916237,9.924745
2164204482627,-1.564051,-0.20529458,9.594703
2164224335249,-1.5010045,-0.07247393,9.154918
2164244191889,-1.3712944,0.9067875,9.020553
2164264048657,-1.3532166,1.1874955,9.123721
2164283905297,-0.91918296,0.8196358,9.190446
2164303762065,-0.49624074,0.24460842,8.655058
2164323610787,-0.18488571,-0.13356799,8.201681
2164343467299,-0.100058466,-0.13529545,8.508667
2164363323939,0.11890926,0.09221307,8.83146
2164383180451,0.6597196,0.6286937,9.095049
2164403036963,1.1360848,1.4773661,9.57034
2164422889891,0.99617153,1.230042,9.818824
2164442746275,0.43682423,-0.11361591,9.442503
2164462602659,0.09575638,-0.7465309,9.129568
2164482459171,0.5709045,-0.3872712,9.401575
2164502315555,1.3243103,-0.5544158,9.715114
2164522167032,1.6130562,-0.5968203,9.812905
2164542023416,0.78306544,0.13297191,9.581195
2164561879800,0.08970072,0.9646045,10.314984
2164581736056,0.29080847,1.0073475,12.066222
2164601592440,0.40424502,0.9329347,13.226515
2164621444179,0.25325733,1.2928584,12.825807
2164641300435,-0.14092763,0.98518765,10.7575865
2164661156691,-1.1092606,-0.33240086,8.225987
2164681012819,-1.260858,-1.5361912,7.583429
2164700869075,-1.0317428,-2.9253144,8.557591
2164720721381,-1.8070153,-3.1581569,9.477525
2164740577381,-2.565235,-2.8330274,9.413819
2164760433509,-2.146934,-3.3610568,9.524096
2164780289637,-0.8492973,-2.8484159,10.110347
2164800145765,-0.30624583,-1.6676017,10.177107
2164820000880,-0.21234061,-0.45675352,10.112758
2164839857008,-0.60457784,0.51868474,10.204498
2164859713008,-1.5352648,1.2360274,9.91654
2164879569136,-2.5604331,1.5549693,9.617883
2164899425136,-2.7092729,-0.002847982,9.672986
2164919284110,-2.0022233,-1.6577266,9.561432
2164939140110,-1.074458,-2.302221,9.459371
2164958996238,-0.12897192,-1.7062694,9.483065
2164978852238,0.47094232,-0.7081217,9.385526
2164998708366,0.433209,-0.08627663,9.563215
2165018568535,0.21290252,0.26862064,9.979011
2165038422467,0.17084683,0.44246197,9.910377
2165058278595,0.008178613,0.05114969,9.727843
2165078134723,-0.34244436,-0.16758436,9.732242
2165097990851,-0.57067394,-0.056008425,9.891261
2165117849691,-0.2750755,-0.31606168,10.077213
2165137705947,0.05547384,-0.6066012,9.812219
2165157562075,0.08074714,-0.8104553,9.464117
2165177418331,-0.22581,-0.6057801,9.572437
2165197274459,-0.29671356,-0.08967099,9.810523
2165217130779,-0.0393794,0.24659552,9.853869
2165236986907,0.0058674766,-0.080520235,9.794574
2165256843163,-0.26348418,-0.50046176,9.775255
2165276699291,-0.668383,-0.5382179,9.738241
2165296555419,-1.1490612,-0.32714003,9.735399
2165316414316,-1.5766882,-0.32673508,9.75856
2165336270700,-1.768067,-0.13901222,9.766563
2165356126956,-1.680732,0.012029628,9.830691
2165375983212,-1.155661,0.11277685,9.928986
2165395839468,-0.4825878,0.2683555,10.042298
2165415702008,-0.19857433,0.34505555,10.035103
2165435558392,-0.33958936,0.07724564,9.9596405
2165455414776,-0.4825713,-0.26571473,9.838151
2165475271160,-0.27890733,-0.3209139,9.828675
2165495127544,-0.012959845,-0.41957334,9.754484
2165514983928,0.19702674,-0.3048869,9.777924
2165534848399,0.28278926,-0.24054113,9.696176
2165554705039,0.38728586,-0.045751903,9.671191
2165574561551,0.28421366,-0.20571703,9.753094
2165594418191,-0.019893637,-0.4629335,9.767623
2165614274831,-0.107787795,-0.6409425,9.762022
2165634086731,0.14873691,-0.243839,9.771566
2165653942603,0.31553918,0.007616095,9.844516
2165673798347,0.41117105,-0.14067125,9.782771
2165693654219,0.47135028,-0.35745975,9.65156
2165713510091,0.3838702,-0.23661768,9.657607
2165733372422,0.24093844,0.042552248,9.7481985
2165753228294,0.15301238,0.18116707,9.84641
2165773084166,0.08484948,0.07740134,9.899691
2165792940038,0.12820417,-0.097609624,9.901752
2165812795910,0.21716218,-0.05231141,9.815054
2165832646253,0.19369131,0.085812315,9.678957
2165852502125,0.20765096,0.17065814,9.657739
2165872357869,0.19991426,0.10792312,9.683077
2165892213613,0.31274426,0.025399042,9.739979
2165912069357,0.21277389,-0.0066900086,9.726681
2165931934742,0.042509004,0.035138365,9.734446
2165951790614,0.04403942,0.06357006,9.77369
2165971646486,0.17594971,-0.027064512,9.760663
2165991502486,0.24803801,0.021907484,9.789791
2166011358358,0.2644444,0.22210124,9.842357
2166031224079,0.19017924,0.29346925,9.808802
2166051080207,0.15947363,0.21203607,9.777326
2166070936335,0.17137566,0.049758285,9.767381
2166090792463,0.075303085,0.023019342,9.760689
2166110648463,-0.019200161,0.113785125,9.737686
2166130515006,0.02265219,0.17286588,9.684311
2166150371262,0.13818741,0.09272312,9.716138
2166170227518,0.26820207,-0.024331976,9.793545
2166190083774,0.4160435,-0.004023991,9.772679
2166209940030,0.5198058,0.04738729,9.729387
2166229802277,0.55017954,0.054359872,9.734212
2166249658533,0.51374304,-0.042278435,9.732491
2166269514917,0.39628613,-0.09103496,9.687102
2166289371301,0.2407662,-0.04644844,9.68307
2166309227557,0.11307963,-0.033921596,9.7247095
2166329080325,0.085753925,-0.015166076,9.758387
2166348936581,0.07081477,0.06278349,9.775572
2166368792837,-3.2569905E-4,0.14469637,9.76403
2166388649093,-0.03617921,0.22544785,9.766892
2166408505349,-0.078334205,0.25052986,9.786288
2166428366578,-0.16792834,0.19560091,9.754751
2166448222962,-0.22058876,0.16424723,9.720887
2166468079218,-0.1903512,0.2025726,9.758647
2166487935602,-0.10374833,0.19982985,9.8022585
2166507791986,-0.03086641,0.12222623,9.777348
2166527652435,0.059399236,0.041401565,9.739555
2166547508947,0.121674664,0.023800436,9.734477
2166567365331,0.22609045,0.027338339,9.788625
2166587221843,0.2609936,0.027432293,9.782148
2166607078355,0.23364392,-0.033281058,9.754796
2166626942606,0.19715649,-0.024728736,9.724636
2166646799374,0.11405684,0.012745688,9.731288
2166666656014,0.06498144,0.00943327,9.734979
2166686512654,0.10995321,-0.07169507,9.758708
2166706369422,0.1940962,-0.081079096,9.766505
2166726233559,0.22265936,0.005179397,9.774992
2166746090455,0.22171162,0.11646541,9.752128
2166765947351,0.2083504,0.14166564,9.698282
2166785804247,0.16091725,0.0592418,9.765879
2166805661143,0.14033234,0.044992976,9.763457
2166825514406,0.17831849,0.050816532,9.73213
2166845371302,0.23219441,0.06432132,9.723235
2166865228198,0.25787386,0.09764931,9.743681
2166885085094,0.27413994,0.08118634,9.753931
2166904941862,0.30104125,0.05437561,9.763752
2166924796984,0.34542,0.048428215,9.806846
2166944653880,0.31000668,0.06553791,9.814822
2166964510776,0.24417746,0.097174056,9.763438
2166984367800,0.15199123,0.107882805,9.727017
2167004224696,0.100898005,0.054177526,9.719199
2167024089608,0.08218253,0.03029418,9.713235
2167043942424,0.054098886,0.024565201,9.728809
2167063799576,0.12626444,0.044862244,9.757491
2167083656728,0.20900449,0.093646385,9.788847
2167103514008,0.25292355,0.14076808,9.783185
2167123371500,0.27416757,0.12203616,9.794376
2167143228780,0.26411858,0.09918955,9.815593
2167163086188,0.23861724,0.099075384,9.760094
2167182943596,0.18560869,0.12012864,9.773164
2167202800876,0.15397665,0.0979077,9.7730875
2167222637176,0.16607885,0.02339318,9.75538
2167242493688,0.1661143,0.031797495,9.749953
2167262350328,0.13656953,0.12375051,9.725878
2167282206840,0.11721636,0.13698286,9.754324
2167302063480,0.10671709,0.105482385,9.752137
2167321882590,0.09583282,-0.018253576,9.754859
2167341738590,0.07981931,-0.041827705,9.797363
2167361594462,0.11933576,0.058756277,9.848317
2167381450334,0.20739065,0.13347046,9.821444
2167401306206,0.2713983,0.112486385,9.783369
2167421162303,0.26393914,0.10826344,9.77844
2167441018047,0.12242611,-0.040653896,9.7050295
2167460873663,6.619173E-4,-0.1540733,9.725789
2167480729407,0.0699806,-0.10981582,9.714431
2167500585151,0.17753586,-0.07836311,9.746504
2167520454127,0.21452986,-0.061667074,9.738036
2167540310127,0.2279468,-0.055782296,9.728958
2167560166127,0.22783296,-0.032139193,9.726681
2167580021999,0.17394687,-0.08007924,9.739429
2167599877999,0.14396954,-0.06512603,9.80089
2167619744969,0.13628328,-0.010896858,9.809449
2167639601097,0.111247465,0.07236385,9.767458
2167659457353,0.079750955,0.09669191,9.714144
2167679313481,0.077198304,0.048587035,9.7289295
2167699169609,0.04744109,0.0038819294,9.755509
2167719039756,0.035324126,-0.023975039,9.7623625
2167738896140,0.065529235,0.027613841,9.75241
2167758752652,0.11403861,0.039731044,9.764772
2167778609036,0.1445769,-0.005476851,9.801221
2167798465548,0.1451696,-0.023230648,9.79855
2167818327100,0.123955935,0.009034363,9.725714
2167838183612,0.09953402,0.04422629,9.719784
2167858040252,0.044357054,-0.0017625064,9.729886
2167877896892,0.009491143,-0.09641766,9.742098
2167897753404,0.07407933,-0.0868047,9.773118
2167917613547,0.12794289,0.049246266,9.799137
2167937470187,0.20871192,0.10460667,9.734631
2167957326827,0.21813715,0.069163434,9.72258
2167977183467,0.16518216,0.022825863,9.735738
2167997040107,0.12012567,-0.0132539915,9.772402
2168016898953,0.12521523,0.045655485,9.795529
2168036755721,0.18692224,0.13290715,9.745418
2168056612361,0.18630664,0.12398178,9.749171
2168076469129,0.13290593,0.028380811,9.784537
2168096325769,0.07430715,-0.039297704,9.7918
2168116185267,0.07383645,0.0054426338,9.777411
2168136042035,0.14872934,0.082369484,9.77082
2168155898803,0.20147905,0.10490437,9.7488
2168175755571,0.15239869,0.079914995,9.732836
2168195612339,0.09550496,-0.010052484,9.752163
2168215468874,0.09078977,-0.041630767,9.762333
2168235325770,0.117414705,-0.006688587,9.767981
2168255182538,0.19229291,0.07273221,9.753598
2168275039434,0.20729369,0.06541934,9.755621
2168294896202,0.19736333,0.027370786,9.758886
2168314752427,0.166323,-0.0021715504,9.759435
2168334609451,0.13216503,0.009610009,9.774545
2168354466347,0.15554205,0.08219792,9.778353
2168374323243,0.15521322,0.07221415,9.747978
2168394180139,0.12707256,0.01834061,9.761065
2168414032224,0.1094192,0.0015906566,9.727442
2168433888992,0.08735126,-0.01331673,9.712576
2168453745888,0.1305912,0.031404696,9.759667
2168473602656,0.15481745,0.049850456,9.781415
2168493459552,0.18049759,0.01596774,9.76297
2168513309773,0.20826201,0.033769578,9.773069
2168533166541,0.16801421,0.082990035,9.7425165
2168553023181,0.10550896,0.058112755,9.737312
2168572879949,0.095079444,0.017648144,9.750324
2168592736589,0.09208763,0.010438825,9.743454
2168612588389,0.094450265,-0.021515487,9.761387
2168632445029,0.11168633,0.033339508,9.761932
2168652301669,0.14019205,0.089300364,9.772869
2168672158437,0.14761814,0.035935685,9.757267
2168692015077,0.15446182,0.016565386,9.747698
2168711873989,0.14421235,0.0058779977,9.745348
2168731730757,0.12715614,0.03418648,9.723715
2168751587397,0.10994375,0.018537065,9.745329
2168771444165,0.12318375,0.016725818,9.760922
2168791300805,0.13817881,-0.009966186,9.762411
2168811159084,0.12074196,0.013583428,9.77041
2168831015980,0.16856885,0.039147526,9.7759905
2168850872748,0.19082847,0.074914604,9.742584
2168870729644,0.12745431,0.052772988,9.73451
2168890586412,0.09605324,0.019263286,9.730263
2168910417422,0.09829085,-0.01279422,9.721571
2168930273294,0.122208975,-5.4786575E-4,9.770372
2168950129294,0.13549463,0.02946934,9.780179
2168969985294,0.17568603,0.056648724,9.73931
2168989841166,0.1996827,0.013483947,9.707142
2169009691278,0.17880778,0.003279142,9.754618
2169029547022,0.15349734,-5.465654E-4,9.774424
2169049399462,0.1435401,-0.0021018249,9.761428
2169069255206,0.1761142,0.054425657,9.748483
2169089110950,0.17525128,0.12243674,9.712311
2169108966822,0.13096961,0.09442359,9.7212
2169128826400,0.104348905,0.0338691,9.759213
2169148682272,0.12322229,0.0012955542,9.778612
2169168538144,0.13504037,0.09326607,9.772158
2169188393889,0.15682888,0.16687568,9.758903
2169208255495,0.16285141,0.09902634,9.756812
2169228111495,0.098600775,0.033187147,9.731736
2169247967368,0.079742834,0.03236416,9.7254505
2169267823367,0.107808456,0.06966972,9.757297
2169287679367,0.13558328,0.08593857,9.772165
2169307535368,0.16613264,0.061186794,9.75308
2169327402684,0.15410899,0.055602007,9.749807
2169347258940,0.13122407,0.059402734,9.749764
2169367115197,0.11429323,0.045345742,9.759516
2169386971324,0.10992928,-0.002193465,9.739574
2169406831206,0.13353634,0.008290701,9.742567
2169426687463,0.12661599,0.008826606,9.739537
2169446543718,0.11853423,0.012206897,9.747918
2169466399974,0.13742961,0.009787721,9.737551
2169486256231,0.11140301,0.015223664,9.763868
2169506103311,0.11913271,0.054288536,9.796764
2169525959439,0.13237043,0.07357672,9.762127
2169545815696,0.12472304,0.0045325393,9.739694
2169565671823,0.14813016,0.040212102,9.788763
2169585527951,0.111380935,0.06924967,9.78756
2169605384080,0.12152171,0.02661146,9.759007
2169625241797,0.17984,0.06486963,9.7644205
2169645098053,0.13922362,0.08019913,9.747986
2169664954182,0.09867138,0.052079476,9.745088
2169684810437,0.093700334,0.07043395,9.771814
2169704675310,0.112586156,0.08114051,9.757738
2169724531695,0.14571397,0.079291575,9.763137
2169744388078,0.13566454,0.07385117,9.76486
2169764244462,0.13522357,0.06432849,9.7705
2169784100847,0.11601099,0.016517444,9.759232
2169803957496,0.11383838,0.01086081,9.737424
2169823813880,0.15152188,0.06711544,9.746273
2169843670393,0.14000441,0.103589684,9.758472
2169863526776,0.09780752,0.08930579,9.768912
2169883383288,0.05803489,0.047246873,9.743378
2169903239673,0.035507407,0.0027719657,9.760597
2169923098859,0.09952825,0.04344809,9.8148365
2169942955371,0.1432952,0.071863286,9.764768
2169962811884,0.16628888,0.062427282,9.74102
2169982668267,0.17410469,0.05093693,9.742746
2170002533385,0.17348693,0.009707123,9.737027
2170022390026,0.15816714,-0.032975405,9.754706
2170042246665,0.14586636,0.006441442,9.754348
2170062103433,0.16591863,0.036264967,9.764766
2170081960074,0.21477717,0.040743217,9.763368
2170101816713,0.18304645,-0.02168947,9.740747
2170121675253,0.1536162,0.024425447,9.767375
2170141531894,0.11645775,0.104736164,9.782686
2170161388661,0.11508288,0.07705849,9.744358
2170181245301,0.16068695,-0.0043619117,9.74199
2170201102070,0.16230449,0.052624103,9.75795
2170220951912,0.10411221,0.062255602,9.749831
2170240808424,0.09395717,0.02015555,9.762985
2170260664937,0.116699435,-0.0022867725,9.755031
2170280521448,0.15641665,0.016840758,9.7369375
2170300377184,0.1536679,0.05105931,9.752566
2170320233697,0.14513077,0.03773471,9.782224
2170340090336,0.13794237,0.0041105356,9.77285
2170359946848,0.1276788,-0.005331442,9.746346
2170379803489,0.15601799,0.016222445,9.746406
2170399660128,0.1537217,0.03880226,9.736609
2170419516938,0.12245658,0.02272185,9.752507
2170439373579,0.09764084,0.0021689367,9.7429285
2170459230218,0.088629484,0.043762226,9.742591
2170479086858,0.13293904,0.0594575,9.744586
2170498943371,0.14846756,0.070109785,9.768915
2170518799429,0.1081575,0.036809515,9.795682
2170538655941,0.092598125,0.018443054,9.793843
2170558512582,0.110455,0.031240225,9.767405
2170578369221,0.13986777,0.06688268,9.749504
2170598216426,0.15609807,0.10219652,9.7474
2170618072683,0.1370915,0.0518033,9.760585
2170637929066,0.10678115,-0.019740388,9.777327
2170657785450,0.11413136,0.014565021,9.769631
2170677641835,0.15015642,0.068599485,9.757479
2170697498090,0.16555941,0.08090804,9.757404
2170717355405,0.14037728,0.051615775,9.780017
2170737211790,0.102950476,0.017152058,9.768351
2170757068045,0.14001016,-0.0065124296,9.732712
2170776924429,0.18943301,0.055992007,9.7375765
2170796780814,0.15015993,0.08630563,9.7434
2170816628715,0.0974447,0.029306246,9.744791
2170836484971,0.08500948,-0.014946285,9.777364
2170856341100,0.12380039,0.010000885,9.768346
2170876197355,0.14346172,0.041521963,9.769308
2170896059401,0.14325337,0.06371114,9.767073
2170915915786,0.14461006,0.06465057,9.752597
2170935772169,0.11447911,0.03626833,9.745833
2170955628553,0.10604738,0.016240317,9.759315
2170975484810,0.10206077,0.020858947,9.753693
2170995341193,0.08178709,0.011027142,9.757879
2171015209199,0.09584733,0.019254757,9.760642
2171035065712,0.105789565,0.002403317,9.743834
2171054924730,0.10969229,0.04702686,9.768764
2171074781370,0.14426878,0.061171763,9.763066
2171094638011,0.12660168,0.016781349,9.763654
2171114491304,0.1167668,-0.01193694,9.760954
2171134347816,0.10098081,0.022822132,9.770594
2171154204201,0.091155075,0.03448355,9.756534
2171174060712,0.09612494,0.025271054,9.745994
2171193917096,0.10948786,0.018468266,9.740614
2171213773481,0.104746,0.01367207,9.762444
2171233629006,0.11997609,0.027735647,9.752684
2171253485390,0.1270491,0.044764057,9.787843
2171273341775,0.11255154,0.022429667,9.767185
2171293198158,0.13350296,-0.0061088507,9.709179
2171313049896,0.12364551,0.028108463,9.76761
2171332906281,0.11615285,0.042631,9.811409
2171352762536,0.14519002,0.04286056,9.743821
2171372618920,0.16543081,0.018894305,9.752968
2171392475177,0.15207773,0.05061785,9.717244
2171412329140,0.12492796,0.049962144,9.732173
2171432185396,0.12834473,0.036879584,9.772614
2171452041653,0.15391806,0.0617508,9.779449
2171471897908,0.16517588,0.075396396,9.76024
2171491754164,0.14284481,0.086899616,9.747664
2171511610421,0.10829346,0.05958229,9.7619915
2171531472424,0.11491213,0.07163846,9.766288
2171551328808,0.13156861,0.052334566,9.740678
2171571185065,0.15101595,0.047899406,9.73552
2171591041448,0.14387944,0.035877448,9.745714
2171610902564,0.13049631,0.0022099349,9.76243
2171630759077,0.11255109,0.025660735,9.765805
2171650615588,0.12657788,0.056369614,9.764
2171670472100,0.14569011,0.061092753,9.767667
2171690328613,0.12703224,0.06718695,9.765475
2171710185844,0.12037837,0.025657704,9.759333
2171730042484,0.11187664,-0.014298767,9.7603245
2171749899125,0.120658666,0.017426737,9.772321
2171769755636,0.12711178,0.054054286,9.759467
2171789612276,0.15030241,0.044756066,9.762319
2171809468789,0.13995208,-0.008823308,9.747582
2171829317960,0.1330193,-0.057175487,9.732613
2171849174344,0.12208566,-0.004262696,9.767418
2171869030857,0.14482486,0.07919564,9.7777405
2171888887240,0.13166471,0.053929377,9.745414
2171908745349,0.11081076,-0.003436956,9.73739
2171928601862,0.10844698,-0.01375033,9.779318
2171948458245,0.13282593,-0.024443053,9.76792
2171968314757,0.17296205,0.0025765633,9.7540245
2171988171142,0.18938796,0.057076637,9.759459
2172008027653,0.1375016,0.05952281,9.747759
2172027894045,0.11954747,0.010162885,9.758733
2172047750686,0.12228464,-0.006384366,9.7654915
2172067607325,0.14973806,0.023077203,9.776852
2172087463965,0.14203942,0.030895712,9.763429
2172107320606,0.14487307,0.03543414,9.763197
2172127174886,0.12476813,0.027832892,9.762354
2172147031526,0.1261809,0.01861546,9.770368
2172166888167,0.13513753,0.0073763803,9.7650175
2172186744806,0.13100472,-0.020041725,9.750652
2172206597801,0.1554239,0.014627776,9.761117
2172226454314,0.14294414,0.030044746,9.756087
2172246310825,0.09993274,0.02486629,9.748304
2172266167337,0.101966046,0.006071694,9.752916
2172286023850,0.122332714,0.026708717,9.76451
2172305880361,0.12840718,0.0266068,9.7578125
2172325728778,0.14002271,0.0490232,9.766144
2172345585163,0.13821141,0.040425867,9.74998
2172365441546,0.13192289,0.010928,9.76715
2172385297930,0.12349756,0.037531886,9.756453
2172405154315,0.13171628,0.062370725,9.74728
2172425002503,0.12815292,0.038348205,9.76163
2172444858631,0.14137422,0.03241336,9.772885
2172464714760,0.13757364,0.03716921,9.767248
2172484570887,0.12261693,0.0076327934,9.764349
2172504426814,0.1609703,0.013950585,9.7522335
2172524282815,0.14731933,0.036605466,9.743924
2172544138942,0.11074816,0.020795265,9.7763815
2172563995070,0.11173653,-0.015431139,9.743925
2172583851071,0.16652267,-0.019622372,9.722148
2172603707198,0.17327327,0.02704105,9.737069
2172623566184,0.13157573,0.02212543,9.758461
2172643422441,0.112596124,0.01886361,9.750047
2172663278568,0.11601354,0.032380197,9.768364
2172683134824,0.13027954,0.03969885,9.766627
2172702991081,0.12930225,0.054408617,9.767427
2172722850064,0.105852656,0.044186004,9.754492
2172742706320,0.103308514,0.06555886,9.754851
2172762562705,0.11374818,0.031691294,9.739887
2172782418960,0.1378652,0.0020810799,9.76444
2172802267318,0.15800081,-0.005485624,9.7595005
2172822123447,0.15921022,0.016514016,9.7380295
2172841979574,0.13597627,0.0026664913,9.749509
2172861835830,0.13164517,-0.015958816,9.755847
2172881691959,0.16095532,-6.937035E-4,9.764007
2172901548086,0.12579595,0.033020332,9.755206
2172921405713,0.11868132,0.025230518,9.753069
2172941261842,0.110971764,0.0030289297,9.766766
2172961117969,0.11160868,-0.022923721,9.767097
2172980974097,0.12407184,0.04429994,9.766156
2173000830098,0.12508516,0.035349607,9.774402
2173020689455,0.14682615,0.012189838,9.775559
2173040545583,0.1349868,-0.020976486,9.768352
2173060401712,0.11803317,-0.024311313,9.738347
2173080251904,0.14991517,0.011270557,9.732128
2173100110964,0.15500335,0.03217625,9.759241
2173119967221,0.1419826,-0.0029710063,9.781202
2173139823348,0.13372944,-0.015702667,9.764826
2173159679604,0.14361666,0.010413453,9.745917
2173179535861,0.1039728,0.052184064,9.779434
2173199392116,0.11539727,0.037576325,9.750335
2173219249925,0.15384607,-0.024379998,9.7382765
2173239106182,0.14150238,-0.0014979601,9.737321
2173258962437,0.11422772,0.064124025,9.728213
2173278818693,0.1238823,0.08939343,9.750573
2173298674950,0.1496286,0.061080113,9.784587
2173318525536,0.15835062,0.037598275,9.824194
2173338381664,0.1526765,0.05854112,9.775728
2173358237793,0.14013374,0.081554174,9.750582
2173378093920,0.14735506,0.059547916,9.758232
2173397950048,0.122916564,0.03507918,9.765898
2173417806177,0.13541332,0.022558678,9.748888
2173437665638,0.13882445,0.028509889,9.743462
2173457521766,0.13871448,0.030354854,9.745616
2173477378023,0.13563403,-4.892535E-4,9.748541
2173497234150,0.13750853,0.004766586,9.762554
2173517098830,0.14284013,0.026830336,9.772844
2173536955087,0.15387148,0.034721404,9.765687
2173556811342,0.1570694,0.01708684,9.758205
2173576667726,0.13265534,0.01228269,9.756711
2173596523983,0.10852911,0.02816528,9.745854
2173616390214,0.106074326,0.007464359,9.747663
2173636246854,0.11013371,0.04148881,9.75899
2173656103495,0.109826244,0.047115777,9.74148
2173675960134,0.10506547,-0.014966901,9.757029
2173695816774,0.12169832,0.009854651,9.758241
2173715673415,0.13054366,0.017728554,9.748497
2173735530883,0.12846972,0.035426807,9.758591
2173755387651,0.105358884,0.015838226,9.753904
2173775244292,0.13418779,0.00748696,9.720896
2173795100931,0.122189336,0.027633796,9.761429
2173814956198,0.10541969,0.04148132,9.770671
2173834812839,0.13957281,-0.01562517,9.738261
2173854669606,0.18602213,0.003922794,9.737793
2173874526246,0.14529282,0.055729955,9.729186
2173894382887,0.11333582,0.0676566,9.720496
2173914239184,0.09514642,0.054475754,9.766326
2173934095824,0.081534326,0.027169907,9.79946
2173953952465,0.102692164,0.04934701,9.774777
2173973809104,0.124963656,0.047957122,9.745208
2173993665872,0.11967782,0.07832352,9.739252
2174013522513,0.11738268,0.08118822,9.741183
2174033378841,0.0759815,0.036466055,9.747373
2174053235481,0.09348071,-0.012980574,9.7611685
2174073092122,0.13317554,0.021442173,9.76322
2174092948761,0.119052,0.028299158,9.746768
2174112804986,0.10468764,0.007601013,9.750295
2174132661627,0.12327207,0.006005456,9.756784
2174152518266,0.14582635,0.022549635,9.762136
2174172374906,0.17444362,0.021672435,9.767113
2174192231547,0.18074302,0.035417,9.766192
2174212085009,0.15287216,0.020945469,9.751113
2174231941649,0.10841364,-0.020446893,9.766418
2174251798290,0.11238611,-0.036135845,9.7587185
2174271654929,0.11161033,-0.003384044,9.743466
2174291511441,0.14038117,0.045143012,9.762679
2174311368082,0.16904092,0.03467682,9.756476
2174331213079,0.15603983,0.04061713,9.747802
2174351069463,0.14616853,0.004431023,9.772608
2174370925976,0.13923444,0.004775299,9.76958
2174390782359,0.12241066,0.008367261,9.746241
2174410632958,0.12572509,0.031579934,9.758638
2174430489215,0.14039028,0.04844847,9.772583
2174450345342,0.1547,-0.028201632,9.750574
2174470201598,0.17682593,-0.050497495,9.745101
2174490057727,0.15515198,0.024099303,9.742712
2174509913811,0.13783538,0.025635352,9.748315
2174529769939,0.13679282,0.0016971473,9.77526
2174549626196,0.13258246,0.00692755,9.7743635
2174569482323,0.12826537,0.070125856,9.772469
2174589338579,0.1070339,0.049950454,9.768275
2174609194708,0.10287023,0.0281092,9.763021
2174629048775,0.111523956,0.032770053,9.746593
2174648905031,0.1182463,0.027347382,9.742969
2174668761160,0.120902345,0.00791206,9.745264
2174688617287,0.13661298,0.0041333805,9.747036
2174708474396,0.13818501,0.030791527,9.761319
2174728330525,0.12804234,1.4390737E-5,9.756571
2174748186652,0.12491943,-0.005833654,9.75491
2174768042908,0.13397044,0.021619838,9.76012
2174787899037,0.13088232,0.041557696,9.762559
2174807755164,0.12248802,0.021585813,9.747389
2174827613529,0.10936047,-0.026141308,9.754039
2174847469658,0.12882495,-0.0015444491,9.7795515
2174867325785,0.12819733,0.017665043,9.777685
2174887182041,0.146225,0.04494177,9.74249
2174907038170,0.13221338,0.032698866,9.749927
2174926887502,0.12354349,0.006614479,9.757065
2174946743374,0.13320354,0.005715687,9.7532015
2174966599375,0.09177479,-0.0075346944,9.76819
2174986455374,0.11073289,-0.014883256,9.780617
2175006313386,0.16730295,0.02260351,9.749888
2175026169387,0.14225261,0.0023283726,9.740327
2175046025386,0.11128031,0.016627355,9.770206
2175065879220,0.10193704,-0.042224303,9.732283
2175085735221,0.14951831,-0.11269027,9.75109
2175105591092,0.18717967,-0.032357268,9.745448
2175125439508,0.1801295,0.03925471,9.742004
2175145295381,0.15386721,0.015340658,9.764223
2175165151252,0.14918312,-0.009477134,9.778943
2175185007124,0.14096315,0.0052750832,9.771899
2175204862997,0.1275149,0.029843722,9.760861
2175224725542,0.105185926,0.031019496,9.761489
2175244581542,0.11086185,0.008565595,9.74508
2175264437543,0.106677905,3.606677E-4,9.7553005
2175284293542,0.112281844,-0.014380423,9.769489
2175304150517,0.13920206,-0.008124559,9.770976
2175324006518,0.15063727,0.004624801,9.765692
2175343862517,0.13434264,0.024391893,9.749938
2175363718645,0.10563341,-0.0113613745,9.749149
2175383574646,0.12695491,-0.046333812,9.764395
2175403430645,0.15335,0.004562389,9.765936
2175423293715,0.14717405,0.06871038,9.746352
2175443149844,0.12080212,0.020406919,9.742207
2175463005971,0.130121,-0.03685414,9.758936
2175482862099,0.11401869,-0.052515585,9.747166
2175502718228,0.10615599,0.0055058547,9.737789
2175522580005,0.121784054,0.016016342,9.754787
2175542436261,0.14972527,-0.0011680387,9.746776
2175562292518,0.13599832,-0.011087348,9.75396
2175582148901,0.09003755,7.744235E-4,9.760899
2175602005674,0.08279642,0.009703407,9.749585
2175621862059,0.12624988,-0.017030613,9.722254
2175641718314,0.1307087,-0.026808638,9.735731
2175661574698,0.12537405,0.019875154,9.785887
2175681430955,0.11534766,0.0213601,9.765552
2175701287338,0.114719376,-0.02459953,9.743897
2175721153084,0.14719221,-0.0041223615,9.7468405
2175741009725,0.10135837,0.036043696,9.736261
2175760866236,0.08990398,0.030812923,9.7576685
2175780722748,0.10173838,0.020153426,9.788897
2175800579389,0.13696182,0.025198534,9.779238
2175820436076,0.14804226,0.03559896,9.759772
2175840292716,0.12110471,0.026894616,9.744237
2175860149229,0.13659003,0.034810655,9.739904
2175880005868,0.11861089,-0.012528598,9.731133
2175899863233,0.124510504,-0.027307643,9.7524185
2175919719746,0.14270902,0.014067461,9.7714
2175939576385,0.14346138,0.015428347,9.727558
2175959432897,0.123876944,0.0056694457,9.721939
2175979289410,0.12758851,0.01180147,9.738539
2175999146049,0.11350451,-0.005842528,9.760629
2176019009230,0.116445266,-0.008798925,9.768441
2176038865999,0.13701046,0.008866379,9.7731495
2176058722638,0.13179113,0.05159599,9.7681055
2176078579406,0.1440666,0.04794112,9.740308
2176098436047,0.14691007,0.02246836,9.731197
2176118296849,0.119996734,-0.023998018,9.745639
2176138153617,0.10782964,-0.01638972,9.748572
2176158010514,0.12880845,0.012042873,9.747175
2176177867281,0.16182159,0.053313967,9.747727
2176197724049,0.15949437,0.069465645,9.758009
2176217580946,0.1273863,0.07519705,9.771673
2176237435500,0.13969767,0.04319321,9.730479
2176257292268,0.11931143,6.914474E-4,9.735607
2176277149165,0.08335183,0.023967901,9.783275
2176297005932,0.08394543,0.016644511,9.757191
2176316850665,0.12185081,0.010277428,9.753718
2176336707306,0.14299512,0.05702324,9.736101
2176356563817,0.13348714,0.082774945,9.734416
2176376420457,0.111977026,0.02812467,9.782089
2176396276970,0.09635263,0.012397572,9.775181
2176416135074,0.099726066,0.022469213,9.771916
2176435991842,0.111435905,0.052842855,9.762337
2176455848483,0.100734636,0.044566847,9.738136
2176475705122,0.08416343,0.013518521,9.734937
2176495561762,0.08215354,-0.008911215,9.758769
2176515418531,0.09866815,-0.0024067843,9.744995
2176535267770,0.13454892,0.006404191,9.768636
2176555124282,0.16052817,0.039621316,9.772057
2176574980795,0.12773892,0.015558209,9.759699
2176594837306,0.11286473,-0.022204198,9.733196
2176614687307,0.12647244,-0.023077795,9.741676
2176634543692,0.16202985,0.021864321,9.747274
2176654400075,0.13367733,0.034864992,9.767603
2176674256459,0.12519345,0.006106438,9.757729
2176694112844,0.12485425,-0.028546607,9.749215
2176713959974,0.12740344,-0.005575039,9.759057
2176733816102,0.13356523,0.06275613,9.753004
2176753672231,0.111422144,0.07834652,9.7446575
2176773528230,0.10954287,0.036524005,9.7488785
2176793384358,0.10721286,0.0068211253,9.756538
2176813240487,0.081375465,0.011056214,9.778025
2176833092518,0.08058668,0.048885666,9.764448
2176852948518,0.14237596,0.026434006,9.747874
2176872804519,0.1282405,0.027503677,9.770718
2176892660518,0.10660604,0.012072267,9.77239
2176912513031,0.13934387,0.0064362497,9.756744
2176932368904,0.18342696,-0.018143738,9.750936
2176952224775,0.18585038,0.010324705,9.72872
2176972080647,0.14287268,-0.010921295,9.736922
2176991936520,0.112842135,-0.014263566,9.744434
2177011801430,0.10820083,0.0064427173,9.77821
2177031657558,0.12676485,0.0019838684,9.765738
2177051513559,0.13452055,0.043628633,9.754718
2177071369558,0.11767586,0.05688696,9.793227
2177091220166,0.10500408,0.0425883,9.769527
2177111076167,0.12303598,0.012060372,9.750094
2177130922645,0.14825872,7.7120366E-4,9.7484455
2177150778517,0.1832901,-0.00855056,9.740099
2177170634262,0.1394885,-0.021614911,9.754818
2177190490133,0.13183892,-0.015441928,9.767916
2177210345363,0.14225952,0.02173245,9.755149
2177230201108,0.16022517,0.026435776,9.748869
2177250056851,0.15571131,0.013749524,9.754756
2177269912595,0.14366719,0.007984821,9.764058
2177289768340,0.12975149,-0.009799468,9.764825
2177309624083,0.15193027,-0.0039809523,9.761101
2177329484971,0.12983878,9.263622E-5,9.7515545
2177349340844,0.13237278,-0.02458836,9.749571
2177369196715,0.13639024,-0.016239032,9.756427
2177389052587,0.14707318,-0.020836614,9.752998
2177408908460,0.14368725,-0.006483306,9.748793
2177428753311,0.13869579,0.011932943,9.782543
2177448608927,0.13486718,-0.0029625946,9.76214
2177468464544,0.13167697,-0.017730916,9.732016
2177488320159,0.1187459,0.007357242,9.771779
2177508187063,0.12430413,-0.022434266,9.746289
2177528042936,0.15241295,-0.049439814,9.736976
2177547898679,0.16848546,-0.011594427,9.751383
2177567754551,0.12688892,0.044335514,9.737167
2177587610424,0.109913506,0.032989137,9.758632
2177607466295,0.11744652,0.010170341,9.790765
2177627328316,0.12807664,0.018641606,9.783578
2177647184317,0.11363754,0.04230441,9.770234
2177667040316,0.09119832,0.04294603,9.763311
2177686896316,0.09640694,0.045005903,9.743846
2177706752317,0.091738455,0.018879736,9.719634
2177726626078,0.117782645,-0.02439516,9.738277
2177746482462,0.13440081,0.008863158,9.772373
2177766338847,0.11678149,0.032571092,9.775667
2177786195358,0.108805455,0.022636564,9.7519865
2177806057919,0.095940575,0.026563287,9.760173
2177825914432,0.10779364,-0.00826777,9.759984
2177845771071,0.10883577,-0.004015856,9.742679
2177865627711,0.10072425,0.005323433,9.736133
2177885484352,0.10848166,0.027656062,9.748932
2177905340863,0.11195363,0.034865104,9.772632
2177925198934,0.12339777,0.019285334,9.7656145
2177945055575,0.12394477,-0.0022719782,9.767926
2177964912086,0.10591535,0.01655216,9.740379
2177984768726,0.08870082,0.01279997,9.739332
2178004625367,0.106069855,-0.023218077,9.756642
2178024486882,0.080999404,-0.028399011,9.762297
2178044343650,0.10506577,4.7271483E-4,9.758846
2178064200419,0.15521072,0.0014566431,9.738742
2178084057186,0.15130314,0.015219326,9.766081
2178103913954,0.13001823,0.020265123,9.7928295
2178123770723,0.12418486,-0.027995907,9.763594
2178143627459,0.1294091,-0.071670115,9.756567
2178163484227,0.14460629,0.012227867,9.744087
2178183340996,0.12582316,0.056040365,9.728227
2178203197763,0.106918775,0.03859164,9.745648
2178223055707,0.10975041,-0.0023237611,9.772088
2178242912604,0.123432904,-0.016205423,9.767439
2178262769371,0.116948344,0.017883299,9.760932
2178282626139,0.11988464,0.022217792,9.753568
2178302483036,0.11709005,0.046674006,9.728984
2178322335518,0.111994885,-0.0021235773,9.731287
2178342192286,0.11617261,-0.024763294,9.755868
2178362049055,0.112070754,-0.009087529,9.763526
2178381905822,0.09796508,0.004316803,9.743988
2178401762590,0.107924215,-0.008216009,9.743881
2178421619231,0.12767375,0.021078588,9.742379
2178441455414,0.1498746,0.039902743,9.751976
2178461311670,0.15006231,0.019230394,9.751923
2178481168055,0.113108985,0.02687281,9.767398
2178501024438,0.10582422,-0.015728585,9.747201
2178520883350,0.12120779,0.0015116112,9.746655
2178540739735,0.12387346,0.03022473,9.746226
