UPTIMENANO,Ax,Ay,Az
86447372051453,-0.52303743,-0.23782955,11.119564
86447391908222,-0.40451354,0.21125206,10.806134
86447411765117,-0.11085346,-0.2687872,11.373801
86447431629731,-0.11690961,-1.0114694,11.467904
86447451486628,-0.12410892,-1.7449093,11.675425
86447471343523,0.13489899,-2.851817,12.401867
86447491200419,0.5803852,-3.215201,12.674613
86447511057316,0.7138292,-2.1034486,10.8929
86447530928337,-0.16494541,-0.07970205,8.9670925
86447550785361,-1.2512875,0.34675565,6.983375
86447570642514,-0.2781352,-0.5587898,8.779057
86447590499665,0.6043841,-0.18507133,11.347787
86447610356689,0.8493205,-0.83944815,10.997763
86447630213842,-0.18548833,-1.2530618,9.89239
86447650076657,-1.0479169,-1.1292728,9.26028
86447669933809,-0.848902,-1.100505,9.140784
86447689790962,1.1239874,0.69785863,8.540728
86447709648113,1.431606,2.1203287,7.6408734
86447729515315,-0.17212202,1.2932439,7.5902734
86447749372596,-0.89845586,-0.22716023,8.647766
86447769230003,0.43987235,-0.471661,9.304157
86447789087283,1.6904559,0.22332746,9.605649
86447808944692,2.3704739,2.0855522,8.891095
86447828813948,0.14879677,1.560582,8.093501
86447848671484,-1.5051919,0.7255978,8.424121
86447868529149,-0.23390289,-0.09889389,9.525986
86447888386684,1.0864807,0.763312,9.657609
86447908244348,0.17518725,0.9692522,9.571519
86447928102013,-0.115840405,0.25647548,9.307273
86447947970184,0.24049489,0.42290762,9.356279
86447967827976,-0.466419,-0.49033394,10.463454
86447987685897,-0.991351,-1.8131427,12.393156
86448007543816,0.62361294,-0.7416385,12.846053
86448027407295,1.4337684,0.27028015,11.279636
86448047265344,0.91878414,-1.884295,11.34475
86448067123391,2.289228,-0.953794,12.003546
86448086981311,2.0978906,0.36505535,11.954561
86448106839360,1.2964735,0.21249314,10.561414
86448126697407,0.95506465,-0.33503807,9.631766
86448146562513,1.7911263,-0.12655453,10.0902815
86448166420690,2.6088908,0.2546678,10.307822
86448186278993,1.3171034,-0.6174556,9.636488
86448206137169,0.35621616,-0.3698406,8.936689
86448225995346,-0.13120463,0.3919951,8.138516
86448245863383,-0.4955646,0.57843274,7.7438545
86448265727080,-1.0429661,-0.5329286,8.251365
86448285585641,-0.24301514,-1.2556077,9.038161
86448305444072,0.55677825,-0.9615296,8.3763
86448325300188,0.9244248,-0.6062645,8.129191
86448345158621,1.3725209,0.98126215,9.790776
86448365017180,2.2305071,4.888988,12.420263
86448384875612,0.7299798,-0.3721529,5.3321943
86448404734173,-2.4261746,-7.925497,8.471683
86448424592604,2.127677,6.7258325,11.923824
86448444442393,2.8717384,4.4152684,7.1405764
86448464300698,0.2662051,-0.5325059,5.681708
86448484159129,-0.4259684,-0.72904783,9.813241
86448504017433,1.2857717,0.2963086,9.724409
86448523875738,4.1181803,1.2105546,7.1167326
86448543732824,2.8459258,0.04387803,8.602964
86448563591256,2.326784,-0.12977602,9.909409
86448583449561,1.7362679,-0.741488,10.657223
86448603307864,1.6707768,0.041583333,10.586251
86448623162652,1.8300035,0.74056476,9.716469
86448643020957,2.6767724,0.5703387,8.224172
86448662879388,-7.5504007,-2.8734238,8.397392
86448682737692,-18.135319,6.1606383,11.793254
86448702595997,8.291584,-3.2177546,6.9143424
86448722454428,7.8591595,-7.02628,13.006515
86448742317857,5.0253043,-2.4680235,8.432242
86448762176418,7.4351826,-3.5058208,9.368114
86448782034977,4.2381153,-2.5512483,5.414444
86448801893409,1.2787588,-3.04145,11.179005
86448821751970,0.24201715,-3.6173017,17.573803
86448841599053,0.15992884,-2.0696156,14.405662
86448861457357,1.8647456,-2.1994405,8.071118
86448881315790,-0.46081296,-2.041748,9.442441
86448901174221,-6.2151318,0.12943897,0.78014
86448921000458,2.0698953,0.9492411,1.5429897
86448940857739,10.22166,7.1413136,0.0069654877
86448960715146,10.698987,-2.2711248,-0.07938721
86448980572426,-0.3950088,0.053300306,10.548246
86449000429835,-2.5089648,4.9732914,12.542199
86449020287114,4.4743233,3.6130638,5.3105307
86449040148429,7.6363873,-1.6537611,2.4653926
86449060005838,9.767818,-4.7639875,2.7179906
86449079863117,9.721998,-9.473439,7.3153367
86449099720525,8.29854,-9.789692,12.265996
86449119577933,4.0737686,-9.105564,11.176562
86449139436199,1.9763663,-9.564775,11.2926445
86449159293479,-3.983892,-11.623235,16.696552
86449179150887,-5.453154,-9.309792,19.53643
86449199008295,-6.076463,-5.0873523,19.066637
86449218865703,-5.7763467,-1.7828093,17.765356
86449238721130,-6.3218846,0.81604946,17.005041
86449258578538,-8.500955,0.898373,16.581999
86449278435818,-9.835863,0.8933033,16.574265
86449298293098,-13.166245,2.9161522,17.653704
86449318150378,-11.328718,9.523444,15.837977
86449338007658,12.858499,17.7514,12.183185
86449357860098,3.2170637,2.958009,18.491323
86449377717250,-0.8852298,-0.035063192,17.068386
86449397574402,0.521483,4.530614,14.28666
86449417431554,0.28505263,3.6461208,12.276597
86449437288834,3.5183194,-0.27402124,6.988019
86449457144395,-1.9705665,-1.3407756,6.626385
86449477001547,-0.4359959,0.4003515,4.9689074
86449496858571,-2.0815487,2.1957324,8.620638
86449516715723,-1.5254905,0.88656116,6.332465
86449536572875,-1.192781,4.0974245,5.2250576
86449556438755,-0.8744175,4.9504943,4.2135253
86449576296035,-2.6567016,2.8195918,3.7446709
86449596153443,-3.9854572,2.8285978,3.122525
86449616010723,-4.2099166,1.3555322,1.1914725
86449635868003,-4.095052,2.8506742,5.3076344
86449655734621,-2.5412495,3.5568533,5.258807
86449675592157,-1.6527213,5.523871,5.066042
86449695449565,-3.379508,1.4771059,9.546711
86449715307101,0.31462193,0.34295228,10.978209
86449735164509,2.0908413,0.32931384,11.028358
86449755032144,1.2912933,-1.6831177,11.989967
86449774889808,-3.407637,-4.4713264,14.263864
86449794747472,-2.9147882,-6.4912224,17.27709
86449814605136,-0.51582974,-9.280636,19.097883
86449834462928,0.4403876,-12.499881,16.370655
86449854326297,2.359395,-9.343077,15.866744
86449874184217,2.717263,-4.6646385,17.021952
86449894042137,-0.40922913,9.145399,13.118894
86449913899929,4.926857,30.18526,5.2180104
86449933757849,1.6094595,-3.4153028,5.982493
86449953619115,-2.210958,-7.7094913,8.491785
86449973477163,2.0848558,0.42106897,2.9880478
86449993335083,-0.24969877,2.3157232,-3.4830291
86450013193131,-5.2269893,-2.5459101,0.011906822
86450033051051,-3.8567898,-2.0905285,3.921895
86450052909026,-1.3650904,-1.6117232,6.9541802
86450072767074,-1.2240316,-0.5721685,8.87461
86450092624994,0.18348964,0.5065222,9.104769
86450112482914,1.3348323,-1.0134814,13.957504
86450132340962,2.0046506,-1.1087679,17.768066
86450152196863,4.831607,0.21291068,15.3020735
86450172054911,4.691529,1.1869166,12.85281
86450191912831,2.6775153,0.5907436,13.644591
86450211770879,0.46981704,0.4079607,12.728372
86450231628799,0.10223903,0.081855565,10.307306
86450251487444,0.07786367,-0.590435,11.008096
86450271345492,-0.12243376,-0.8442089,11.2483635
86450291208855,1.943959,3.3715777,5.787753
86450311066903,-6.5023756,-1.4609208,5.330361
86450330924823,-1.1989478,-2.761722,5.691933
86450350785638,-1.7869028,-0.45914826,6.311797
86450370643814,-4.676919,0.16015857,7.360194
86450390501990,-2.9853394,-0.6981061,6.5808115
86450410360166,-0.7856656,-0.8121819,5.116918
86450430218342,2.5786896,-0.3167667,5.8344097
86450450068466,4.039328,-1.2747462,8.051016
86450469926386,4.031351,-0.07730109,10.981282
86450489784306,2.427105,3.6953425,11.536661
86450509642226,1.482146,5.888077,10.911161
86450529500274,1.7056938,6.446867,9.292026
86450549353598,4.589125,4.5420375,10.080719
86450569211390,6.239072,2.4229882,17.566849
86450589069182,0.8850641,-2.5264983,17.687355
86450608926974,-5.011936,-4.2470126,14.550476
86450628784766,-4.2628794,-3.128766,12.575085
86450648640589,-0.46855325,1.5374163,11.412338
86450668498381,1.1906428,2.4964037,10.105926
86450688356173,0.97499454,0.49993986,8.731528
86450708214093,2.215636,-1.2703358,10.683588
86450728071885,-0.62255573,0.36946446,9.907219
86450747927524,-1.3742806,0.13149011,7.59123
86450767785316,0.22246806,0.050796688,7.978805
86450787643108,-2.4455287,0.93112254,7.2835455
86450807500900,-1.1981976,-1.986096,10.203661
86450827358564,1.0040524,-3.9840484,9.826519
86450847212652,-3.0078368,-2.2357535,5.224097
86450867070316,-3.1523726,-0.85965663,4.7564487
86450886927980,-1.2825596,0.41863194,10.200175
86450906785644,-1.5945444,-0.29375607,13.364203
86450926643436,-0.4332334,-1.4759125,8.225596
86450946499978,1.8606632,-0.74818873,5.5192866
86450966357642,2.9144938,-0.19515936,7.087168
86450986215178,9.128321,-1.3854299,13.329126
86451006072842,4.803915,0.8872312,15.652165
86451025930378,-4.4966836,-0.17461203,7.5980897
86451045783970,-2.3130693,0.8721702,9.721802
86451065641378,-2.064866,1.3690755,11.183308
86451085498786,-1.3683447,-0.04061189,11.205997
86451105356194,1.9875194,0.8383194,11.338118
86451125213602,2.6810524,0.329083,10.276747
86451145073887,2.3432343,0.56078035,9.107824
86451164931295,0.7781565,2.9606917,8.570627
86451184788831,-0.580189,3.09843,8.81286
86451204646239,-0.4776571,0.4415892,9.197639
86451224503647,0.5286602,-1.1668956,9.291974
86451244364172,1.6181473,-0.8576429,7.6779895
86451264221708,0.7209141,-1.2064774,8.407955
86451284079244,-0.88333744,-1.6930609,10.003224
86451303936780,-1.1731247,-1.4680878,10.601625
86451323794316,-1.1200962,-0.7246346,10.282148
86451343660213,-0.6825983,-0.43942788,10.207556
86451363518005,-1.5996982,0.5856549,10.379153
86451383375669,-3.6461997,2.7376082,10.609522
86451403233461,-2.0099993,0.46888468,10.227598
86451423091253,0.1512422,-1.541645,9.641288
86451442947039,0.89810216,-0.6210522,9.875058
86451462804703,0.76814646,0.13398501,9.958803
86451482662495,0.02952174,0.46105063,9.770346
86451502520159,0.24115461,0.34182343,9.752678
86451522377823,0.529878,-0.40057516,9.56375
86451542240386,0.013599668,-0.413176,9.669221
86451562098178,-0.71022004,-0.041789975,9.79513
86451581956098,-0.79952,-0.08051389,9.8420515
86451601813890,-0.45590904,-0.30074155,9.761068
86451621671682,-0.2683808,-0.37765062,9.711709
86451641532576,-0.3729927,-0.25343657,9.779202
86451661390496,-0.590739,-0.12869897,9.769347
86451681248416,-0.60778135,-0.17662124,9.815128
86451701106336,-0.594581,-0.24172105,9.750827
86451720964384,-0.6061395,-0.15191291,9.740447
86451740822157,-0.6355013,-0.12840463,9.782004
86451760680077,-0.6134457,-0.09273296,9.790127
86451780537997,-0.563084,-0.23097491,9.77793
86451800395917,-0.6750974,-0.2799879,9.644711
86451820253837,-0.63674897,-0.24583623,9.548919
86451840109666,-0.5871912,-0.39626318,9.579958
86451859967587,-0.6268928,-0.44192314,9.557523
86451879825508,-0.5129427,-0.44889906,9.750004
86451899683297,-0.47069773,-0.25057396,10.121877
86451919541217,-0.41621876,0.104460776,10.227292
86451939401666,-0.25442448,0.24924746,9.782401
86451959259586,-0.10764157,-0.008773574,9.507993
86451979117506,-0.06588603,-0.25589266,9.492077
86451998975554,-0.23647189,-0.14279428,9.671942
86452018833474,-0.36564368,0.2029593,9.911943
86452038695709,-0.32645634,0.1111261,10.017829
86452058553757,-0.13830863,-0.22897208,9.806799
86452078411805,-0.12639089,-0.37203172,9.58873
86452098269853,-0.3003455,-0.19133161,9.454069
86452118127901,-0.39014953,-0.20672968,9.61458
86452137983151,-0.4984914,-0.09392434,9.779156
86452157841199,-0.53862673,0.26010767,9.80482
86452177699247,-0.5303301,0.15944286,9.69831
86452197557295,-0.45060077,-0.17443502,9.715436
86452217415215,-0.5196667,-0.124231845,9.796334
86452237273899,-0.48228732,-0.066560686,9.759207
86452257131948,-0.24402879,-0.19677873,9.665328
86452276989869,-0.26437005,-0.11286137,9.704985
86452296847915,-0.29990655,-0.16687655,9.9058075
86452316705835,-0.27540898,-0.37069392,9.910672
86452336563883,-0.27891728,-0.24586697,9.744897
86452356425563,-0.34675062,-0.15736987,9.581268
86452376283611,-0.45229253,0.0023492994,9.632285
86452396141659,-0.61814624,0.20957272,9.732928
86452415999707,-0.6213134,0.21873392,9.753635
86452435857755,-0.5044351,-0.09224615,9.658293
86452455708773,-0.3666744,-0.48145235,9.567206
86452475566693,-0.36767754,-0.39691776,9.670866
86452495424613,-0.44782537,-0.20200656,9.891788
86452515282533,-0.611111,0.018553415,9.865775
86452535140453,-0.5361999,0.114692695,9.832221
86452554994081,-0.4910478,-0.013327122,9.72837
86452574852001,-0.46447453,0.09926644,9.697117
86452594709793,-0.42517388,0.18268424,9.91259
86452614567713,-0.44636708,0.109815344,9.944056
86452634425505,-0.39393872,0.017677825,9.870663
86452654267478,-0.4291336,0.096620515,9.82508
86452674124886,-0.42771164,-0.0014971461,9.775503
86452693982422,-0.3865887,-0.085431464,9.74372
86452713839959,-0.41528112,0.15894794,9.7357645
86452733697494,-0.33016425,0.09370217,9.680385
86452753553352,-0.28418547,0.11527902,9.719092
86452773410760,-0.3407767,0.12539814,9.83618
86452793268296,-0.35626984,0.03761644,9.896887
86452813125704,-0.40645844,-0.0013139958,9.854816
86452832983112,-0.45709363,0.021730952,9.761851
86452852835728,-0.42433614,0.009062733,9.6906185
86452872693008,-0.3781169,0.008788934,9.641776
86452892550416,-0.44799575,0.07364507,9.823083
86452912407696,-0.5020861,0.042327166,9.893251
86452932264976,-0.48985305,0.039847795,9.834895
86452952113593,-0.45735046,0.07315625,9.750517
86452971970745,-0.3941552,0.064687274,9.709679
86452991827897,-0.3557484,-0.09426504,9.740671
86453011685049,-0.36893976,-0.15181842,9.732676
86453031542202,-0.49024415,0.01832003,9.754
86453051404455,-0.5010103,0.09246719,9.668737
86453071261606,-0.39792755,-0.17358838,9.629629
86453091118758,-0.3979099,-0.25708708,9.8083515
86453110975910,-0.4466743,0.056705482,9.880938
86453130833190,-0.40370464,-0.0138434265,9.827913
86453150698776,-0.3921838,-0.14617366,9.748447
86453170556185,-0.53957295,-0.13751127,9.721696
86453190413466,-0.55247146,0.004666897,9.753459
86453210270875,-0.44612554,0.14435194,9.84553
86453230128156,-0.40110883,0.054509267,9.856383
86453250002319,-0.37548825,0.09784711,9.739982
86453269859856,-0.35180274,0.09344086,9.703048
86453289717521,-0.39038798,-0.0520313,9.674692
86453309575186,-0.40272355,-0.124853544,9.727653
86453329432851,-0.36849764,0.019535722,9.796827
86453349300438,-0.3762176,0.095409244,9.788882
86453369158231,-0.3993686,-0.0022870672,9.817684
86453389016152,-0.37289783,0.046443146,9.852298
86453408873945,-0.30852833,-0.033627022,9.729031
86453428731866,-0.3043827,0.042793166,9.693841
86453448598343,-0.29524335,0.01534796,9.653898
86453468456264,-0.30201548,0.06500893,9.69721
86453488314313,-0.37711936,0.21877773,9.817072
86453508172234,-0.3799623,0.2453498,9.892372
86453528030283,-0.3961639,0.16259483,9.872287
86453547896170,-0.35978916,-0.12373754,9.732688
86453567754347,-0.31209344,-0.049731545,9.715155
86453587612524,-0.38334265,0.17514959,9.746533
86453607470701,-0.41867253,0.23354891,9.75232
86453627328856,-0.30430052,0.26584756,9.787827
86453647192933,-0.28911343,0.14583085,9.797609
86453667051366,-0.36702454,0.05383853,9.786777
86453686909799,-0.45570773,0.116442904,9.802418
86453706768232,-0.4429269,0.23570831,9.770487
86453726626537,-0.47834715,0.29985538,9.77279
86453746487992,-0.4807397,0.23477887,9.720444
86453766346553,-0.43108693,0.26639333,9.7181015
86453786204986,-0.42467263,0.26872486,9.694528
86453806063547,-0.34765074,0.27314126,9.6701765
86453825921980,-0.3453835,0.07118214,9.673934
86453845784110,-0.394192,0.0050772205,9.71191
86453865642670,-0.43727836,0.08886475,9.667025
86453885501358,-0.36702338,0.25744525,9.7495775
86453905359918,-0.35393012,0.17019193,9.831037
86453925218606,-0.35309327,0.12553623,9.81366
86453945081127,-0.26454216,0.16132575,9.782789
86453964939943,-0.3121487,0.11563838,9.760086
86453984798887,-0.4103953,0.16653983,9.7807455
86454004657703,-0.401795,0.24407497,9.750135
86454024516519,-0.27941382,0.25854638,9.733587
86454044375755,-0.28914624,0.13318336,9.720438
86454064234699,-0.32554784,0.10976194,9.776446
86454084093643,-0.30280107,0.24392231,9.818555
86454103952459,-0.3291151,0.27818212,9.851869
86454123811403,-0.35941127,0.19559297,9.8213005
86454143664032,-0.30708387,0.18492737,9.73259
86454163522848,-0.30387178,0.0016787797,9.670237
86454183381664,-0.3123386,0.07570173,9.667001
86454203240480,-0.310986,0.22267684,9.675603
86454223099424,-0.35433552,0.23752783,9.701791
86454242947424,-0.3370055,0.19092262,9.693332
86454262806112,-0.348532,0.10862376,9.72523
86454282664672,-0.31932908,0.2444064,9.824824
86454302521163,-0.3449055,0.37576967,9.819767
86454322379723,-0.37875867,0.38557303,9.836636
86454342226567,-0.3734204,0.32694668,9.7379265
86454362084999,-0.32476208,0.25088695,9.688135
86454381943303,-0.2507965,0.30161947,9.72825
86454401801607,-0.22732648,0.37228152,9.817536
86454421659911,-0.2304904,0.3711101,9.8365965
86454441505938,-0.22740114,0.37952918,9.787019
86454461363986,-0.26094028,0.23857175,9.800248
86454481221906,-0.27998677,0.22358486,9.694998
86454501079955,-0.30608618,0.25218296,9.719147
86454520938004,-0.27172744,0.33322495,9.807575
86454540781139,-0.20172727,0.4322603,9.850744
86454560638676,-0.15200958,0.29339826,9.827592
86454580496341,-0.2421733,0.117314726,9.772639
86454600353878,-0.28033665,0.1820144,9.679716
86454620211415,-0.2967651,0.19573118,9.658544
86454640065300,-0.26592153,0.27147442,9.681515
86454659922709,-0.24756517,0.3105258,9.77981
86454679780118,-0.20922555,0.314199,9.812857
86454699637527,-0.16562352,0.3066514,9.88982
86454719494936,-0.29675937,0.21422343,9.931422
86454739354119,-0.370832,0.24373223,9.771768
86454759211400,-0.25784883,0.2588753,9.6502905
86454779068809,-0.18761024,0.21420445,9.650836
86454798926204,-0.18293822,0.25052968,9.697171
86454818783484,-0.19747412,0.27602264,9.825935
86454838640447,-0.19409367,0.31058013,9.879356
86454858497855,-0.25540575,0.23717582,9.867066
86454878355263,-0.390165,0.14070868,9.704381
86454898212671,-0.30047408,0.21750256,9.724011
86454918070079,-0.25661397,0.2646523,9.733818
86454937927487,-0.21646337,0.30770117,9.741138
86454957783920,-0.19214639,0.22780445,9.722761
86454977641328,-0.20660755,0.28577733,9.755453
86454997498608,-0.22935517,0.39146194,9.801479
86455017356016,-0.28260946,0.26387894,9.835701
86455037213296,-0.25745156,0.23062539,9.761219
86455057076252,-0.24874409,0.19664197,9.71397
86455076933788,-0.24438079,0.23436676,9.695786
86455096791196,-0.18654764,0.3388532,9.774294
86455116648604,-0.27061492,0.28543207,9.839947
86455136506140,-0.25616607,0.30048242,9.828873
86455156363091,-0.26085404,0.19981267,9.744721
86455176220627,-0.30420125,0.20859836,9.728721
86455196078035,-0.2943419,0.25422186,9.711665
86455215935571,-0.2114177,0.30877593,9.710868
86455235792979,-0.22357076,0.24176674,9.749765
86455255651332,-0.24453208,0.25479075,9.76461
86455275508740,-0.3197801,0.25278032,9.77701
86455295366276,-0.25087872,0.35907948,9.750364
86455315223684,-0.20975785,0.22930908,9.8195095
86455335081221,-0.25798523,0.24778421,9.804937
86455354942456,-0.23563303,0.19445719,9.698767
86455374799993,-0.21124835,0.1640643,9.730297
86455394657530,-0.12200166,0.3850178,9.825688
86455414515067,-0.26983386,0.30503583,9.804159
86455434372604,-0.23514001,0.3376722,9.731102
86455454233071,-0.22837287,0.2525703,9.779918
86455474090736,-0.2174273,0.35690814,9.770876
86455493948401,-0.2223984,0.38583812,9.704729
86455513805938,-0.35674402,0.22378376,9.719914
86455533663603,-0.33693215,0.30436164,9.817925
86455553531470,-0.23436712,0.3492922,9.763355
86455573389263,-0.22414431,0.3223245,9.776028
86455593247056,-0.20337106,0.3302414,9.732663
86455613104977,-0.28105688,0.30073893,9.806331
86455632962770,-0.29465002,0.33787206,9.767314
86455652825711,-0.27135795,0.2801332,9.749676
86455672683760,-0.28225425,0.3159913,9.737908
86455692541809,-0.23788849,0.4152376,9.759422
86455712399730,-0.2676671,0.30739143,9.738167
86455732257779,-0.29642612,0.30484393,9.811623
86455752123818,-0.24543723,0.37675297,9.726161
86455771981995,-0.27179608,0.39893693,9.710441
86455791840151,-0.23667109,0.3638004,9.733726
86455811698327,-0.18755314,0.4501738,9.82784
86455831556503,-0.14838201,0.3685514,9.788312
86455851417879,-0.2110743,0.28440145,9.722153
86455871276183,-0.39438057,0.15843105,9.635541
86455891134487,-0.30203587,0.4149593,9.716217
86455910992791,-0.28168422,0.47016737,9.787159
86455930851095,-0.27595466,0.39612707,9.8497715
86455950711599,-0.24828352,0.24205555,9.7466755
86455970569903,-0.31749263,0.09314482,9.621288
86455990428207,-0.29342672,0.2547317,9.639737
86456010286639,-0.23894536,0.4060596,9.8111925
86456030144943,-0.11075831,0.443287,9.843405
86456050003485,-0.18072791,0.2819929,9.794867
86456069861789,-0.2532321,0.21596625,9.761702
86456089720093,-0.24407832,0.35346404,9.706952
86456109578525,-0.28088084,0.471987,9.689883
86456129436829,-0.35088062,0.48977676,9.747098
86456149294286,-0.29541057,0.4815149,9.789779
86456169152590,-0.2773128,0.35201567,9.779844
86456189010895,-0.20648484,0.3249817,9.78025
86456208869198,-0.3205484,0.2430505,9.709642
86456228730752,-0.32569703,0.29870206,9.750789
86456248589185,-0.23924026,0.3134208,9.736396
86456268447490,-0.24544536,0.19232056,9.723139
86456288305920,-0.25817025,0.21216035,9.730935
86456308164225,-0.19036806,0.37173608,9.82367
86456328022656,-0.2082144,0.3742736,9.90947
86456347877124,-0.23343581,0.30670387,9.906064
86456367735429,-0.23880497,0.1908016,9.736727
86456387593860,-0.29505932,0.19132723,9.616792
86456407452165,-0.26852262,0.32243916,9.667393
86456427310598,-0.21378914,0.37387252,9.738261
86456447157451,-0.15115236,0.29659948,9.811771
86456467015500,-0.1851322,0.25310177,9.909083
86456486873677,-0.23357469,0.34382856,9.831925
86456506731854,-0.3165696,0.31139475,9.729028
86456526582477,-0.346352,0.24366178,9.71871
86456546440526,-0.26009387,0.3036607,9.717412
86456566298447,-0.104484886,0.35417548,9.75442
86456586156368,-0.13380618,0.33569112,9.7797165
86456606014417,-0.22912723,0.31748006,9.846398
86456625872338,-0.3138616,0.31687337,9.879258
86456645728241,-0.32986826,0.19438407,9.813375
86456665586162,-0.33455595,0.12837447,9.712087
86456685444083,-0.30844525,0.19899334,9.704612
86456705302004,-0.24113032,0.31312817,9.70504
86456725159925,-0.1540864,0.41739768,9.769428
86456745020672,-0.20774338,0.21091904,9.797627
86456764878593,-0.2502774,0.12784244,9.7597275
86456784736642,-0.2713953,0.3071975,9.827987
86456804594563,-0.2992632,0.34210727,9.766543
86456824443901,-0.25752515,0.28527188,9.758144
86456844301694,-0.30216575,0.1999365,9.783948
86456864159357,-0.3058264,0.14403321,9.816701
86456884017149,-0.31202126,0.17483465,9.794994
86456903874814,-0.32178813,0.10824901,9.754673
86456923732605,-0.34698358,0.10345095,9.7674265
86456943587831,-0.28554317,0.09192094,9.789285
86456963445496,-0.26523674,0.20035575,9.784331
86456983303159,-0.31191224,0.20316665,9.717222
86457003160823,-0.35889572,0.07045468,9.730788
86457023018360,-0.33738482,0.081876785,9.768396
86457042880291,-0.31867954,0.16999051,9.777323
86457062737827,-0.29773682,0.13227297,9.828825
86457082595492,-0.26916426,0.12166875,9.758424
86457102453155,-0.27785394,0.13339186,9.731281
86457122310819,-0.34005865,0.06520866,9.709867
86457142168484,-0.36142364,0.1237153,9.765195
86457162022041,-0.34382176,0.15178001,9.7590065
86457181879703,-0.3067266,0.15062687,9.739717
86457201737240,-0.29688755,0.08339246,9.766817
86457221594775,-0.33134392,0.13711086,9.7724695
86457241450190,-0.35256937,0.22599484,9.834051
86457261307599,-0.36584598,0.14540336,9.792779
86457281165134,-0.36104265,0.065291844,9.742022
86457301022670,-0.29158983,-0.043068487,9.717188
86457320880079,-0.30044323,0.028505333,9.692384
86457340737616,-0.35355884,0.072717495,9.770005
86457360598244,-0.34857258,0.09501778,9.817543
86457380455781,-0.34805918,0.0630784,9.788793
86457400313316,-0.3292848,0.013972487,9.700871
86457420170980,-0.35410804,0.05678387,9.712045
86457440028517,-0.38337478,0.0671115,9.721034
86457459884636,-0.35670376,0.06093318,9.746777
86457479742172,-0.3212568,0.029057376,9.737312
86457499599709,-0.29377738,0.023577536,9.739851
86457519457244,-0.3437124,0.045015197,9.853822
86457539319296,-0.3693388,0.18073101,9.862939
86457559176961,-0.33741376,0.19252965,9.852487
86457579034624,-0.32619426,0.08062115,9.788228
86457598892288,-0.31515327,0.08285288,9.66859
86457618749953,-0.36545238,0.05878503,9.702115
86457638607616,-0.3699921,0.19150172,9.785253
86457658466034,-0.36755377,0.10732914,9.757311
86457678323827,-0.3474632,0.063793205,9.807844
86457698181490,-0.32319453,0.055695135,9.7729435
86457718039154,-0.28729463,-0.042697992,9.746604
86457737896819,-0.2788216,0.046473302,9.7556505
86457757760676,-0.33270347,-0.0070936373,9.754365
86457777618469,-0.37504902,0.07254706,9.814699
86457797476390,-0.38626406,0.18872863,9.775353
86457817334180,-0.37426627,0.028711366,9.715735
86457837196166,-0.35780326,-0.06627849,9.775742
86457857054087,-0.40159845,0.05024558,9.767963
86457876912134,-0.42919305,0.06429136,9.713732
86457896770054,-0.4131746,0.13410103,9.723613
86457916627975,-0.4086551,0.08764681,9.752967
86457936486022,-0.4321977,0.11910915,9.854347
86457956342740,-0.4253243,0.09551305,9.873384
86457976200661,-0.4301947,0.065368086,9.776915
86457996058708,-0.39955518,0.11043525,9.648149
86458015916628,-0.4166705,0.00586732,9.602034
86458035774549,-0.43201244,0.13120058,9.719304
86458055635077,-0.3864908,0.19287147,9.787766
86458075493125,-0.36685532,0.08906341,9.868011
86458095351046,-0.33973697,0.07912346,9.84638
86458115208965,-0.3523822,0.011264768,9.782966
86458135068214,-0.40480998,0.056752138,9.725159
86458154926135,-0.3850648,0.13504596,9.669691
86458174784182,-0.360506,0.08815751,9.633132
86458194642102,-0.37479413,0.09642148,9.683197
86458214500023,-0.34472182,0.057162017,9.743912
86458234358072,-0.400676,0.115429305,9.899151
86458254220769,-0.45352384,0.13822342,9.930335
86458274078818,-0.44040793,0.116386816,9.848592
86458293936993,-0.36055902,-0.03308503,9.672061
86458313795041,-0.3032235,-0.16970882,9.618071
86458333653090,-0.34615552,-0.011022655,9.70068
86458353516306,-0.39379206,0.2882846,9.877501
86458373374483,-0.3462579,0.0900716,9.834471
86458393232788,-0.31497502,0.06785193,9.792484
86458413091093,-0.35025725,0.001130572,9.683468
86458432949270,-0.445547,0.011940802,9.690906
86458452807575,-0.35088855,0.09836983,9.726078
86458472656524,-0.34348315,0.12124127,9.820863
86458492514701,-0.33650687,0.17191648,9.848151
86458512372750,-0.29693472,0.08422307,9.7969885
86458532230799,-0.31418824,0.023876466,9.690653
86458552089110,-0.3034751,0.0058760615,9.71062
86458571947287,-0.3300241,0.01855763,9.719923
86458591805336,-0.35769132,0.120818846,9.769788
86458611663385,-0.31961498,0.018502122,9.748474
86458631521434,-0.3090496,0.028712131,9.730177
86458651376125,-0.2855167,0.028961306,9.785284
86458671234302,-0.3327607,-0.0064491746,9.772103
86458691092351,-0.33346486,0.15515251,9.82049
86458710950528,-0.32534674,0.117068514,9.790133
86458730808577,-0.33331004,0.02190584,9.736195
86458750666626,-0.30892736,0.06650508,9.740049
86458770519397,-0.33443925,0.015493146,9.799679
86458790377318,-0.3422678,0.092459954,9.774155
86458810235367,-0.3395558,0.035303917,9.709969
86458830093264,-0.29999453,-0.07382777,9.70573
86458849948601,-0.37280658,0.005444222,9.850648
86458869806522,-0.390857,0.07057098,9.927652
86458889664441,-0.33351845,0.031416573,9.815567
86458909522361,-0.28330582,-0.014628464,9.730698
86458929380154,-0.34284163,-0.03790975,9.720656
86458949236159,-0.39016044,-0.0056045675,9.684504
86458969093951,-0.3523913,-0.13660358,9.768127
86458988951872,-0.33257014,-0.016866438,9.812099
86459008809663,-0.35187277,0.02924602,9.829036
86459028667455,-0.33574218,-0.08137179,9.74238
86459048525376,-0.3163151,-0.050762273,9.783924
86459068384270,-0.27601764,-0.19639881,9.70564
86459088242190,-0.34582683,0.056501813,9.702981
86459108099983,-0.3388872,0.008616737,9.69104
86459127957774,-0.35761133,0.01868563,9.765469
86459147793093,-0.39192438,0.009946848,9.89346
86459167650502,-0.3321245,-0.046665993,9.859604
86459187507909,-0.31268665,0.006772352,9.763738
86459207365317,-0.33414763,-0.06606443,9.751737
86459227222598,-0.40364543,-0.07971486,9.74201
86459247084255,-0.33178157,0.020175928,9.751795
86459266941664,-0.20446025,-0.1044522,9.7577305
86459286799073,-0.27618867,-0.09815852,9.793347
86459306656479,-0.2805929,-0.12514094,9.801285
86459326513887,-0.22752284,-0.23893861,9.72458
86459346371296,-0.24081187,-0.14911634,9.698821
86459366225893,-0.21791147,-0.19367144,9.726797
86459386083173,-0.2727473,-0.12145992,9.796673
86459405940454,-0.23460616,-0.17806546,9.814721
86459425797861,-0.2942552,-0.22183211,9.79168
86459445662009,-0.25754136,-0.20432405,9.716192
86459465519418,-0.1863605,-0.3090462,9.77601
86459485376825,-0.36956877,-0.1678272,9.763202
86459505234233,-0.27875072,-0.18942541,9.679156
86459525091642,-0.2265212,-0.22863999,9.6754875
86459544949049,-0.42399746,-0.06827436,9.792813
86459564818673,-0.41012308,-0.14898875,9.987346
86459584676210,-0.38316393,-0.11015896,9.930748
86459604533873,-0.14838481,-0.19112857,9.815645
86459624391409,-0.09783581,-0.2895107,9.690521
86459644249074,-0.25772592,-0.19367942,9.604162
86459664109125,-0.2222919,-0.1516658,9.6056185
86459683966789,-0.21108888,-0.028611746,9.719797
86459703824454,-0.18395416,-0.11996097,9.800338
86459723682117,-0.2939731,-0.15276352,9.852167
86459743550194,-0.27600697,-0.26359668,9.807912
86459763408115,-0.26801202,-0.2934868,9.712951
86459783266034,-0.38052884,-0.17186731,9.773
86459803123954,-0.33395886,-0.12604646,9.709676
86459822981875,-0.2969719,-0.1779298,9.69357
86459842839666,-0.3567902,-0.16636406,9.729292
86459862698055,-0.23447599,-0.27963042,9.858805
86459882555976,-0.28405505,-0.27273852,9.87887
86459902414023,-0.2972945,-0.1924443,9.784123
86459922271943,-0.11120266,-0.31790844,9.679779
86459942129992,-0.16419049,-0.3111749,9.684926
86459961983029,-0.11974507,-0.354876,9.710387
86459981840949,-0.3553629,-0.16953786,9.788601
86460001698998,-0.54527956,-0.045899056,9.843742
86460021556917,-0.21505843,-0.293529,9.7857
86460041417549,-0.05031869,-0.45917654,9.754761
86460061275470,-0.13555434,-0.39905983,9.690079
86460081133517,-0.32712638,-0.2564706,9.693463
86460100991437,-0.31991896,-0.24927089,9.746432
86460120849486,-0.24530157,-0.23063363,9.741763
86460140707405,-0.27303657,-0.22215663,9.76351
86460160568112,-0.1931904,-0.23081951,9.724785
86460180426161,-0.23944436,-0.26691866,9.831378
86460200284208,-0.29813293,-0.26218605,9.84825
86460220142384,-0.29856643,-0.29082248,9.777545
86460240000433,-0.24737497,-0.3204772,9.780792
86460259859285,-0.19875869,-0.28318712,9.684618
86460279717333,-0.31423247,-0.29652733,9.682982
86460299575382,-0.401125,-0.3204051,9.844096
86460319432841,-0.32342622,-0.28648874,9.809443
86460339290890,-0.3369229,-0.21573971,9.783802
86460359148939,-0.27536538,-0.24937494,9.720338
86460379005980,-0.31259325,-0.3708415,9.745712
86460398864029,-0.33112094,-0.30347133,9.684986
86460418722078,-0.18436414,-0.2594363,9.66101
86460438580255,-0.26843455,-0.18743597,9.764552
86460458439784,-0.31137666,-0.23672701,9.840854
86460478297961,-0.3473672,-0.32602623,9.901537
86460498156138,-0.26940632,-0.3193244,9.8228445
86460518014315,-0.08663861,-0.318083,9.7115
86460537872364,-0.18865609,-0.26732522,9.654699
86460557726987,-0.2862024,-0.20843564,9.65288
86460577585164,-0.34560904,-0.20840095,9.7178
86460597443213,-0.35583222,-0.20366512,9.857942
86460617301390,-0.17298974,-0.32376373,9.901002
86460637159439,-0.1129981,-0.33885226,9.834505
86460657017488,-0.114141785,-0.2466961,9.776419
86460676876317,-0.18506265,-0.23058374,9.705416
86460696734494,-0.32045767,-0.21683232,9.742145
86460716592671,-0.19726586,-0.28486025,9.637024
86460736450848,0.04406952,-0.31510925,9.622497
86460756303149,0.086887345,-0.24927871,9.67198
86460776161070,-0.09713795,-0.18676896,9.814478
86460796018841,-0.27447194,-0.22382917,9.94985
86460815876762,-0.29102707,-0.29099616,9.891639
86460835734555,-0.15106301,-0.25920844,9.729719
86460855592473,0.029258788,-0.26427665,9.686526
86460875448546,-0.045825034,-0.22188474,9.6989155
86460895306339,-0.18860576,-0.22670951,9.762458
86460915164258,-0.1321436,-0.275522,9.834746
86460935022050,-0.09387615,-0.29781553,9.772642
86460954879971,-0.049063217,-0.25025016,9.742875
86460974729375,-0.022086037,-0.24572216,9.781969
86460994586911,-0.22172728,-0.2244561,9.809919
86461014444576,-0.23697531,-0.23627606,9.879462
86461034302111,-0.18213338,-0.26736,9.81557
86461054161189,-0.011996918,-0.2863899,9.786353
86461074018854,0.084552705,-0.29845437,9.737357
86461093876517,-0.13270234,-0.28046215,9.76158
86461113734181,-0.19674511,-0.33345273,9.749805
86461133591718,-0.20059416,-0.31107417,9.720171
86461153449381,-0.119445235,-0.2550903,9.750237
86461173315894,-0.077751264,-0.24890417,9.81252
86461193173687,-0.029268846,-0.33208907,9.880298
86461213031606,0.05438877,-0.3315709,9.848072
86461232889526,-0.12172262,-0.2540656,9.695177
86461252747319,-0.1349933,-0.31378382,9.647966
86461272602495,-0.14076643,-0.3854847,9.681025
86461292460287,-0.11793096,-0.3248284,9.759643
86461312318080,-0.08556462,-0.22955237,9.789542
86461332175999,-0.23410848,-0.25848696,9.856843
86461352033442,-0.20535341,-0.38877195,9.829121
86461371891363,-0.048403233,-0.44150093,9.757837
86461391749154,0.06851555,-0.3712501,9.677353
86461411607074,-0.048240673,-0.24587993,9.706062
86461431464995,-0.25249216,-0.21277665,9.741664
86461451322914,-0.19048956,-0.27106053,9.76716
86461471182792,-0.040256955,-0.26152813,9.828912
86461491040713,-0.06731503,-0.24210596,9.827057
86461510898634,-9.913633E-4,-0.3020873,9.762305
86461530756555,-0.15176955,-0.28048182,9.714088
86461550614476,-0.16121513,-0.24718283,9.742843
86461570467837,-0.105593584,-0.22405748,9.745704
86461590325502,-0.15630978,-0.18574877,9.776444
86461610183295,-0.102285385,-0.21174696,9.832479
86461630040960,-0.108423956,-0.2211051,9.8209505
86461649898753,-0.13408484,-0.21584828,9.7741165
86461669756418,-0.09414469,-0.25474256,9.749092
86461689621561,-0.15252349,-0.2461907,9.756318
86461709479482,-0.12220159,-0.25795165,9.769127
86461729337403,-0.21655987,-0.24286254,9.757362
86461749195324,-0.17741174,-0.29476348,9.774669
86461769054103,-0.17403701,-0.3305028,9.7934265
86461788912024,-0.1315272,-0.3108142,9.772222
86461808769931,-0.1092282,-0.27923793,9.768794
86461828627851,-0.21912706,-0.2609812,9.745167
86461848485772,-0.16106166,-0.24718484,9.7110405
86461868348203,-0.026249189,-0.32442135,9.656098
86461888206123,-0.1961896,-0.31297362,9.758939
86461908064172,-0.23084617,-0.29136032,9.743948
86461927922219,-0.21345067,-0.3246597,9.754109
86461947780267,-0.0536956,-0.3373586,9.745789
86461967638316,-0.055692818,-0.32870388,9.741473
86461987495783,-0.25440785,-0.3242332,9.8219185
86462007353831,-0.12188116,-0.3761017,9.71827
86462027211880,-0.056784295,-0.38493806,9.651183
86462047069799,-0.1849849,-0.26156846,9.683482
86462066927985,-0.17256421,-0.23103529,9.758006
86462086786034,-0.33752495,-0.2507459,9.869478
86462106644209,-0.40310848,-0.21708727,9.980007
86462126502257,-0.35025343,-0.25473848,9.920477
86462146360306,-0.3044113,-0.21810654,9.799162
86462166211923,-0.14007372,-0.21303277,9.722619
86462186069843,-0.14712615,-0.3066245,9.722614
86462205927764,-0.30925727,-0.18068874,9.815141
86462225785685,-0.34597704,-0.16235608,9.875128
86462245643603,-0.3035038,-0.22362772,9.867547
86462265501524,-0.02443255,-0.33806017,9.777301
86462285360687,0.0927811,-0.3411332,9.7519655
86462305218607,-0.013907162,-0.25676492,9.71664
86462325076528,-0.14218105,-0.2484247,9.618085
86462344934447,-0.16005194,-0.2015859,9.614991
86462364796663,-0.11284454,-0.24662624,9.710994
86462384654840,-0.23881897,-0.2647648,9.882117
86462404512887,-0.18792284,-0.31545135,9.946467
86462424370935,-0.068741456,-0.34405527,9.917876
86462444228984,-0.14996032,-0.30806917,9.80661
86462464086570,-0.24293193,-0.32040328,9.703324
86462483944618,-0.22189046,-0.34597147,9.664511
86462503802667,-0.033296477,-0.29669416,9.664836
86462523660714,-0.14577952,-0.20257646,9.7785635
86462543518762,-0.30115327,-0.17186351,9.850016
86462563376939,-0.17772812,-0.32901055,9.841708
86462583224185,-0.064553075,-0.43491468,9.753121
86462603081977,0.0069555403,-0.37559512,9.688727
86462622939770,-0.18915576,-0.26528767,9.698583
86462642797689,-0.30273253,-0.21168974,9.803821
86462662650440,-0.10070148,-0.27216768,9.820372
86462682508105,-0.14977492,-0.24702932,9.833045
86462702365768,-0.117218845,-0.2555435,9.787163
86462722223560,-0.17843202,-0.3546553,9.750569
86462742081225,-0.078595325,-0.32647058,9.666987
86462761939016,-0.089185506,-0.25960633,9.627905
86462781801148,-0.3037011,-0.22267054,9.765278
86462801658941,-0.2422382,-0.24903846,9.91888
86462821517394,-0.1315837,-0.33290917,9.932511
86462841375186,-0.07221828,-0.2282794,9.7633
86462861232979,0.059088826,-0.26391312,9.631619
86462881089033,-0.2220999,-0.22661546,9.634512
86462900946825,-0.34547833,-0.20655735,9.702636
86462920804618,-0.20613281,-0.2322623,9.783987
86462940662409,-0.07745874,-0.19331917,9.850464
86462960513502,-0.04000977,-0.2465302,9.898544
86462980371039,-0.24575517,-0.30578855,9.883012
86463000228574,-0.164429,-0.3137617,9.766706
86463020086238,-0.051929295,-0.3189279,9.710655
86463039943775,-0.20732327,-0.22628199,9.6554165
86463059801310,-0.15652072,-0.2206792,9.599465
86463079659206,-0.22626655,-0.18985741,9.70495
86463099516743,-0.17324705,-0.24562539,9.845355
86463119374278,-0.27901623,-0.3205534,9.950411
86463139231814,-0.2396372,-0.2600765,9.837233
86463159089351,-0.047030002,-0.33260608,9.727857
86463178944859,-0.18433584,-0.31352744,9.759644
86463198802267,-0.2047464,-0.21218424,9.678207
86463218659804,-0.109742485,-0.19074914,9.687907
86463238517211,-0.17033409,-0.18525952,9.735655
86463258385023,-0.112520464,-0.30771086,9.7753
86463278242688,-0.17832774,-0.30856377,9.747175
86463298100351,-0.115030035,-0.25478783,9.8165045
86463317958143,-0.19994728,-0.2365916,9.823472
86463337815808,-0.26335567,-0.20950513,9.812718
86463357673471,-0.063849285,-0.24313249,9.731469
86463377532969,-0.17437351,-0.20876423,9.73167
86463397390634,-0.07297559,-0.25073496,9.668372
86463417248425,-0.2080326,-0.23109895,9.732714
86463437106089,-0.18697612,-0.25274494,9.83249
86463456963882,-0.1876946,-0.23881857,9.787549
86463476829577,-0.13806462,-0.23788233,9.837842
86463496687497,-0.2402075,-0.22840591,9.800771
86463516545418,-0.1988692,-0.29408783,9.7663965
86463536403337,-0.19851753,-0.24594921,9.721988
86463556262482,-0.11460259,-0.21662065,9.744724
86463576120531,-0.23516092,-0.24854957,9.81587
86463595978450,-0.3085929,-0.28444132,9.873135
86463615836370,-0.12750451,-0.33124483,9.860445
86463635694419,-0.094989,-0.30553403,9.699669
86463655552338,0.009792551,-0.30110958,9.567819
86463675407509,-0.22291577,-0.24235597,9.661371
86463695265430,-0.24543221,-0.23707426,9.755929
86463715123349,-0.08024281,-0.30640185,9.833556
86463734981397,-0.09213023,-0.3145863,9.889322
86463754839318,-0.15033226,-0.25072628,9.824768
86463774696099,-0.22852321,-0.27769572,9.778625
86463794554019,-0.2749142,-0.27117753,9.700741
86463814411812,-0.22392212,-0.27724877,9.706739
86463834269731,-0.2621865,-0.23032403,9.742402
86463854131308,-0.27496377,-0.15226753,9.859373
86463873989357,-0.24223422,-0.14552622,9.837511
86463893847404,-0.26175353,-0.13952741,9.818615
86463913705324,-0.22170992,-0.21041274,9.815772
86463933563373,-0.30403414,-0.2344433,9.812543
86463953421292,-0.14399065,-0.23295923,9.589096
86463973284021,-0.09044407,-0.2054204,9.591055
86463993142070,-0.30706277,-0.15193628,9.768025
86464013000245,-0.36147705,-0.12889095,9.925113
86464032858421,-0.2313683,-0.20468353,9.906566
86464052716470,-0.06412048,-0.20357054,9.792724
86464072577612,-0.06503669,-0.24958712,9.675206
86464092435788,-0.23986815,-0.2305486,9.648863
86464112294093,-0.33620507,-0.20331156,9.713825
86464132152268,-0.3110714,-0.13461354,9.793434
86464152010572,-0.21311636,-0.16087659,9.792129
86464171868749,-0.1363759,-0.21256465,9.826717
86464191729703,-0.20269887,-0.264637,9.8475065
86464211588007,-0.1483097,-0.2950549,9.718246
86464231446312,-0.14747027,-0.22269425,9.702901
86464251304487,-0.28106293,-0.09621663,9.691968
86464271162714,-0.2722126,-0.1688144,9.791047
86464291020891,-0.19688465,-0.18681563,9.826023
86464310879194,-0.16788666,-0.14170192,9.848403
86464330737370,-0.14000128,-0.20733567,9.83888
86464350595675,-0.10682698,-0.28707767,9.676235
86464370450295,-0.14826387,-0.25472972,9.644433
86464390308471,-0.24104394,-0.17473747,9.690338
86464410166648,-0.2362844,-0.14983967,9.814346
86464430024823,-0.25957382,-0.12898105,9.939115
86464449883127,-0.13904604,-0.16919157,9.873963
86464469741304,-4.629237E-4,-0.27954835,9.695963
86464489592712,-0.16104294,-0.26772112,9.705141
86464509450760,-0.27651986,-0.20029595,9.688091
86464529308937,-0.22479218,-0.12118467,9.733308
86464549166984,-0.13830273,-0.10196165,9.794987
86464569013731,-0.11277797,-0.22528921,9.79741
86464588871652,-0.22574441,-0.2159496,9.831706
86464608729445,-0.16970757,-0.24612735,9.790515
86464628587235,-0.17255121,-0.2434573,9.787835
86464648445156,-0.21339099,-0.14056434,9.771847
86464668299997,-0.1293032,-0.22712468,9.72002
86464688157661,-0.20568778,-0.19623154,9.74652
86464708015454,-0.16519351,-0.21281703,9.769885
86464727865228,-0.20390739,-0.19986776,9.855803
86464747723021,-0.28400877,-0.17257972,9.881219
86464767580814,-0.18837489,-0.22943686,9.731804
86464787435607,-0.1296697,-0.28600737,9.720497
86464807293141,-0.2099143,-0.18515146,9.739824
86464827150806,-0.2649459,-0.1644368,9.835961
86464847008469,-0.21904744,-0.13644414,9.797936
86464866865188,-0.18647712,-0.11574853,9.847733
86464886722853,-0.2109282,-0.19919537,9.818319
86464906580388,-0.16742614,-0.22987498,9.765404
86464926438052,-0.24905899,-0.2060614,9.748709
86464946295717,-0.28577444,-0.1262538,9.77213
86464966157415,-0.12761284,-0.20805654,9.732887
86464986015079,-0.17850664,-0.11335918,9.754982
86465005872872,-0.18200931,-0.17001353,9.725817
86465025730535,-0.17948058,-0.21731092,9.740698
86465045588199,-0.2728425,-0.18412185,9.8538475
86465065445864,-0.2805751,-0.17341128,9.885128
86465085303082,-0.24664891,-0.17789437,9.814186
86465105160746,0.07687935,-0.30168575,9.639395
86465125018539,0.13593704,-0.32876843,9.65065
86465144876202,-0.20182121,-0.07083133,9.673007
86465164732604,-0.29897788,-0.09967355,9.686979
86465184590141,-0.3877659,-0.06894895,9.841733
86465204447804,-0.4206671,-0.08671721,10.021812
86465224305468,-0.18026523,-0.35395327,10.016805
86465244163133,0.12210424,-0.67200226,9.715562
86465264020798,0.20125039,-0.4920453,9.472077
86465283883915,-0.0976579,-0.17891409,9.5529175
86465303741580,-0.47559828,0.07129383,9.572422
86465323599371,-0.6375286,0.23156552,9.849223
86465343457035,-0.5163615,0.08419197,9.993147
86465363314700,-0.27448094,-0.21851316,9.927948
86465383166998,-0.29514015,-0.4156594,9.909041
86465403024663,-0.28808466,-0.48192158,9.695831
86465422882200,-0.34438124,-0.098530844,9.704923
86465442739737,-0.3080609,-0.082632385,9.65561
86465462601382,-0.2939373,-0.029615283,9.667634
86465482459047,-0.5335748,0.0990327,9.885638
86465502316712,-0.49202326,-0.10588673,9.802486
86465522174377,-0.32638863,-0.21193883,9.950076
86465542032042,-0.2685532,-0.43904015,9.805349
86465561889707,-0.28224403,-0.17298812,9.706445
86465581748774,-0.36018533,0.00711938,9.714665
86465601606439,-0.26704872,-0.047038537,9.496293
86465621464104,-0.29072613,0.05687634,9.810596
86465641321897,-0.39213136,-0.009823504,10.024393
86465661179562,-0.3453474,-0.22127727,9.762115
86465681042365,-0.47493955,-0.13391498,10.0782175
86465700900158,-0.49574333,-0.113467425,9.998184
86465720757951,-0.49747187,-0.022263912,10.053184
86465740615744,-0.610735,-0.008031166,10.217923
86465760479193,-0.47057772,-0.039487217,9.966824
86465780337242,-0.2087162,-0.049031794,10.092984
86465800195143,-0.3366078,-0.03219379,9.971908
86465820053191,-0.4590388,-0.016540878,9.948303
86465839911112,-0.4271073,-0.21463847,10.028952
86465859769159,-0.36441052,-0.17241073,9.839909
86465879627896,-0.25061452,-0.15535414,9.93649
86465899486073,-0.4070262,-0.11606386,9.998432
86465919344120,-0.37422478,-0.14016654,10.012222
86465939202168,-0.25952038,-0.19613284,10.009259
86465959060217,-0.25933173,-0.097050875,9.770795
86465978918349,-0.2331218,-0.21355258,9.94519
86465998776525,-0.38856387,-0.25780705,9.858647
86466018634574,-0.47388074,-0.26143897,9.866491
86466038492621,-0.5978161,-0.1177495,10.249105
86466058345397,-0.7212268,-0.055146355,10.099035
86466078203318,-0.5682225,-0.022385722,10.06747
86466098061365,-0.56072986,-0.06688647,9.895907
86466117919285,-0.6834533,0.030584421,9.835128
86466137777334,-0.82518953,-0.007819756,10.130693
86466157635253,-1.0100794,0.21562226,10.157299
86466177496477,-0.91631186,0.45025098,10.175647
86466197354398,-0.7630272,0.38520187,10.117611
86466217212445,-0.6919425,0.46455655,10.232227
86466237070493,-0.65036565,0.5970522,10.353562
86466256928414,-0.7977166,0.8254057,9.928469
86466276794891,-0.7143316,0.8593072,9.992014
86466296653067,-0.8486297,0.77193475,9.909817
86466316511244,-0.98836535,0.37755108,10.156427
86466336369291,-0.8244648,-0.10319845,11.018938
86466356227467,-0.6838146,0.15487222,11.724271
86466376085644,-0.8315116,0.3900842,11.478842
86466395945068,1.9114132,-2.286494,10.4150915
86466415803245,1.9189484,-2.715176,9.5789795
86466435661422,0.71456766,-1.9578164,9.851075
86466455519599,1.0341349,-0.87151146,10.017977
86466475377776,1.4268844,-0.94402444,9.251286
86466495228869,1.4435384,-0.69049513,8.750847
86466515086918,1.2540857,-0.1491854,9.145859
86466534944967,0.9760282,-0.2516167,9.61414
86466554803016,0.74174535,-0.5930885,9.937477
86466574660937,0.60063434,-0.7714191,9.999399
86466594515748,0.4555651,-0.9562669,9.901808
86466614373669,0.72528476,-0.77320904,9.630235
86466634231718,0.5822361,-0.5636518,9.366958
86466654089767,0.22377864,-0.08628656,9.59045
86466673947816,-0.011177827,0.16109608,9.687798
86466693796709,-0.08670275,0.3677652,9.98545
86466713654630,-0.056435283,0.3788619,10.704991
86466733512423,0.011532659,-0.07340156,11.066782
86466753370216,-0.9267,0.8130826,11.433153
86466773228009,-2.13802,1.6214097,11.292638
86466793089808,-3.0008638,1.4714534,10.187112
86466812947711,-2.9640443,1.6673511,9.424145
86466832804765,-0.009483846,2.5773313,9.316051
86466852662685,0.55369073,2.3158598,8.530969
86466872520477,-2.5877817,1.252937,7.5407767
86466892378196,-3.4302008,-1.0367433,3.228781
86466912236116,-1.7483364,-1.4510057,3.4041073
86466932094036,2.1170235,-3.5517592,13.824264
86466951951956,7.6295867,2.3619056,23.38292
86466971809876,6.8723397,2.0608692,8.032228
86466991664384,1.7830318,0.91667384,2.579555
86467011522176,1.7104919,1.3720393,6.814219
86467031379968,4.97737,-2.1056864,10.470116
86467051237760,4.2442813,-3.6769612,11.398869
86467071095552,2.285762,-6.662394,10.928601
86467090946103,-0.74306077,-6.983142,11.530032
86467110803767,-2.4526262,-1.5531315,11.892932
86467130661431,-0.4820377,0.89429873,10.226282
86467150519095,-0.13428067,2.0407083,8.095289
86467170376759,0.5278016,0.8805021,8.955724
86467190233692,0.46765444,-0.6090584,8.5114765
86467210091356,0.17465813,-1.6800783,8.807421
86467229948893,-2.1200187,-0.3997403,9.644826
86467249806558,-1.2565826,0.17325988,9.482735
86467269664092,-0.25275928,-0.0028134908,8.9867525
86467289525895,0.10380635,0.43514845,8.458686
86467309383559,0.2620665,-9.0207416E-4,8.316777
86467329241351,-0.35109022,1.2423795,8.63539
86467349099015,-1.0278771,1.8966872,9.205588
86467368956679,-1.2019327,1.8124605,9.3144655
86467388812433,-1.6718712,1.2557966,9.671546
86467408670097,-3.2473075,0.97382456,10.57692
86467428527761,-3.5062854,0.94353825,11.080232
86467448385425,-3.8954778,1.0276902,10.826117
86467468243089,-4.2018366,0.42031857,11.418095
86467488053315,-2.6908104,-0.006246916,13.522373
86467507909955,-0.35584417,-0.77319866,15.030739
86467527766723,1.1753798,1.052642,13.950496
86467547623491,2.909153,2.4030316,11.92951
86467567480131,4.921287,-0.39340013,12.003019
86467587345798,5.316856,-3.0802932,14.691969
86467607202566,9.635677,0.13471624,14.816092
86467627059462,7.4296837,4.2425046,13.522565
86467646916230,1.8928549,1.7085032,10.341447
86467666772998,1.6148578,-0.31531805,7.920443
86467686639852,2.023642,-3.4390898,7.48704
86467706496748,1.790209,-6.619976,5.678913
86467726353644,0.043818917,-5.9128036,4.889214
86467746210540,-1.9612204,-2.0569885,4.823825
86467766067436,-1.6743863,-0.10002814,4.8665695
86467785941736,1.3822998,1.2246976,5.1142144
86467805799016,1.8685645,1.3120868,4.603128
86467825656168,1.8919517,1.1943204,4.9963884
86467845513448,1.4857665,0.0055688717,4.2902164
86467865370600,1.1879698,-0.57542956,4.1510324
86467885244990,1.0739379,-0.94511896,4.9208856
86467905102654,0.71506155,-0.6744098,9.53308
86467924960318,-2.1725001,7.2435174,21.020643
86467944817854,-7.180171,11.344474,25.34995
86467964675518,-6.3173347,5.9733796,15.2016735
86467984547616,2.9365587,-2.6562915,7.4970565
86468004405536,7.0037904,-2.4996142,7.0032406
86468024263456,4.189291,-0.80444175,11.622624
86468044121504,11.340702,-11.186609,12.344495
86468063979424,8.518537,-9.792289,10.1289215
86468083837978,0.22012292,5.1600633,6.60388
86468103695898,6.6382084,1.1374503,5.8512516
86468123553946,5.4122066,-5.308354,8.160704
86468143411994,3.276069,-6.9341507,9.982921
86468163269914,1.9712603,-8.050267,9.422942
86468183134417,-1.7164721,-7.9471736,8.905075
86468202992593,-3.2424433,-3.71656,9.754499
86468222850769,-1.6892716,5.9639807,10.865542
86468242708817,-1.2303375,2.149474,9.548485
86468262566993,0.075602874,-2.9254897,9.632045
86468282429314,-0.19578987,-2.6963859,7.4655104
86468302287618,1.1507401,-0.7198909,8.371511
86468322145794,1.322311,1.3966988,9.691395
86468342003970,-1.3634735,-0.19928285,8.529439
86468361862146,0.035134006,1.38001,9.154583
86468381724641,1.9534203,2.985593,10.291658
86468401583073,0.8106768,1.2060703,10.111925
86468421441505,1.5995136,1.1471707,9.197884
86468441299937,3.1193714,2.0035,10.015585
86468461158369,2.37971,2.2134788,11.132004
86468481016586,2.2124987,2.5968184,11.698796
86468500875018,2.1681314,3.664055,11.43863
86468520733578,1.4754277,4.0614614,10.595664
86468540592010,1.256727,2.5440633,11.016611
86468560450442,2.4433486,0.087239936,12.160931
86468580301681,4.456896,-0.5910491,13.70137
86468600160113,4.236312,-1.9876869,14.359819
86468620018417,0.9629787,-5.7745323,14.5329895
86468639876849,2.3513348,-7.12153,15.591807
86468659735281,10.455534,-5.250126,15.245824
86468679585143,7.0167446,-0.94506127,11.811714
86468699443447,0.8934666,-1.7578282,9.135982
86468719301623,-2.3132234,-2.3151934,8.1101465
86468739159927,-3.9582694,-2.7887015,7.246744
86468759018103,-3.2548678,-1.1896607,7.064242
86468778876287,-2.2422543,-0.5016759,6.3824806
86468798734591,-2.40989,-1.0560906,6.550097
86468818592895,-1.9209858,0.93434024,6.237779
86468838448886,-0.230341,0.62107944,4.614553
86468858307190,1.8150653,-2.2057297,3.8792245
86468878168083,2.3384788,-3.1093554,5.177964
86468898026643,2.3590987,-0.45270187,6.3972664
86468917885075,2.1905925,0.6932265,6.1561294
86468937743507,1.0162303,-0.3506904,5.6291466
86468957601939,1.4211513,-1.2802223,7.456851
86468977456341,4.991958,-1.1460204,14.053145
86468997314773,7.523465,1.9577761,21.899565
86469017173205,4.063374,7.8861604,18.54141
86469037031637,2.5724263,2.2066677,9.0163555
86469056890069,3.488138,-5.064686,2.7118948
86469076719712,3.8615773,-3.2185137,4.5435123
86469096577120,-6.900767,-2.573914,10.039644
86469116434528,-17.04439,-9.685662,15.494715
86469136291936,0.55743563,-12.060607,23.95172
86469156149344,9.894834,-3.908612,6.37405
86469176004527,-4.2215724,-2.849475,-0.6602514
86469195861807,-5.3238673,-2.3654058,5.294673
86469215719215,-5.7530174,-3.1285572,10.12298
86469235576495,-8.724444,-1.0051969,11.756007
86469255433775,-6.4666038,2.0617967,10.717447
86469275296808,2.9856138,0.23281321,10.203819
86469295154216,5.1869006,-2.2355804,10.489498
86469315011624,0.7360717,0.9666616,8.730218
86469334869032,-1.8632063,1.4509901,9.715172
86469354726440,-1.6790466,0.054655876,7.937263
86469374590411,0.08860598,-1.9416357,7.762429
86469394447947,1.7707317,-1.4036999,9.170829
86469414305483,1.5190669,0.046356566,10.058908
86469434163019,-2.3565013,1.8503124,9.080691
86469454020555,2.633226,-1.8909147,7.8579264
86469473886758,4.2371755,-3.4554949,8.373419
86469493744550,-0.010110757,-0.7588161,9.459048
86469513602214,0.04697249,0.30138445,10.149621
86469533460006,2.4326968,-0.53084016,10.426776
86469553317670,3.3816495,-1.1443168,10.510733
86469573177959,3.379157,-1.4994489,10.758006
86469593035879,2.112591,-1.5475391,10.759953
86469612893671,1.5275728,-0.915494,11.354584
86469632751463,0.7069373,-1.029665,12.548655
86469652609383,0.15373391,-1.2440048,12.968515
86469672467175,-0.85076416,-3.091942,12.542575
86469692324247,-3.6965926,-2.227229,11.639472
86469712182039,-3.5577009,-2.6117265,11.195176
86469732039831,-1.746242,-3.1527562,11.880792
86469751897623,-1.57594,-1.0446913,11.063775
86469771755543,-0.9152988,-0.79106796,10.622725
86469791627006,-0.69017357,-1.1604893,10.586524
86469811485054,-2.022374,-1.67114,9.038226
86469831343230,-1.8181607,-2.0433698,9.056366
86469851201278,-2.5641954,-1.3860546,9.209001
86469871059454,-2.4959404,1.3702289,7.5584707
86469890913051,0.38334623,1.3863416,6.485488
86469910771099,-0.02331956,0.20795175,7.0240364
86469930629147,-0.49200913,-0.14412613,8.055561
86469950487323,-0.42586756,-0.45916465,8.532465
86469970345371,-0.73114157,-0.49867555,7.093821
86469990208691,-0.4335677,-1.2573216,5.6866517
86470010066867,-0.6194022,-2.0414877,5.53832
86470029925171,-0.77412224,-0.55371875,6.256359
86470049783347,0.6857869,-0.2767059,7.9760833
86470069641651,1.9628468,-1.6896168,10.730173
86470089497882,2.819339,-2.242112,12.355692
86470109356187,1.7911476,-0.6859938,10.619197
86470129214492,0.367489,0.6021793,9.177027
86470149072669,0.95242035,-0.37003735,9.168646
86470168930970,2.6122186,-2.6606693,10.196278
86470188781557,1.8328917,-2.9058645,12.072761
86470208639604,-0.9120674,-2.1496353,14.850929
86470228497652,-3.1631413,-1.3096191,16.40868
86470248355700,-2.5371857,-2.4150114,14.409882
86470268213748,0.60834736,-2.399658,8.830289
86470288069266,-1.4579217,0.37151337,6.137509
86470307927187,-3.3976386,1.2562671,6.3679905
86470327785236,-3.3055704,1.2729255,9.289325
86470347643157,-2.3236775,1.0217379,11.566192
86470367501206,-0.15619704,0.16681,11.608597
86470387356963,1.3984457,-1.2780652,9.826164
86470407214884,1.4796627,-1.7529207,9.0707035
86470427072805,-0.07689411,-1.8214352,9.343825
86470446930854,-1.691463,-0.048536357,8.803631
86470466788775,-2.0919738,1.582534,9.370757
86470486640954,-0.7764427,0.9069163,9.982638
86470506498747,-0.0016973952,-0.17343014,9.824875
86470526356668,-0.42782697,-0.43247166,9.847098
86470546214461,-0.4172792,-0.30642644,9.773985
86470566072382,-0.17802148,-0.34337395,9.746532
86470585924103,-0.12045687,-0.2595106,9.630548
86470605781768,-0.1722524,-0.29727724,9.572637
86470625639433,-0.16571313,-0.4087642,9.422175
86470645497098,0.068896815,-0.6260075,9.545877
86470665354891,0.19788949,-0.78148234,9.569242
86470685209250,0.27648202,-0.890844,9.537186
86470705066915,0.25834703,-0.9428188,9.579674
86470724924452,-0.010075456,-1.2523118,9.665006
86470744781989,-0.34732944,-1.31451,9.857545
86470764639632,-0.15920137,-0.29352418,10.111584
86470784498979,-0.27703196,0.94894207,10.012157
86470804356514,-0.059115063,0.9857203,10.004134
86470824214050,0.11773358,0.2126243,9.590127
86470844067768,-0.39432883,-0.81601435,9.24706
86470863925304,-0.6645122,-1.033672,8.9270315
86470883784577,-0.22843108,-0.7065792,9.101667
86470903642241,0.15852033,-0.6597964,9.709241
86470923499777,0.1263133,-0.40959767,9.875666
86470943357313,-0.05287947,-0.08456401,9.734338
86470963214977,0.17201188,-0.008944889,9.637966
86470983074347,0.48516914,-0.058735095,9.527574
86471002932011,0.45326945,-0.2950302,9.628344
86471022789547,0.47618392,-0.669258,9.586307
86471042647211,0.4521489,-0.6305216,9.537891
86471062504747,0.52546805,-0.461621,9.686917
86471082358484,0.53954077,-0.20904563,9.717025
86471102216148,0.5397129,-0.19214459,9.7884035
86471122073684,0.51625484,-0.24695379,9.776436
86471141931220,0.28390563,-0.42862365,9.69743
86471161788756,-0.10942769,-0.38154158,9.497563
86471181648541,-0.1688505,-0.33969134,9.343833
86471201506078,-0.037718553,-0.40969718,9.4401655
86471221363612,-0.056835067,-0.41436267,9.638517
86471241221276,-0.04962922,-0.41098356,9.783443
86471261078812,-0.089897834,-0.37125015,9.663535
86471280940297,-0.105752535,-0.5265039,9.52398
86471300797961,-0.084414355,-0.6477424,9.454061
86471320655497,-0.06247324,-0.61365896,9.423481
86471340513162,-0.085845925,-0.5787878,9.540171
86471360370827,-0.07669172,-0.58512723,9.563561
86471380236184,-0.14888923,-0.5332655,9.566389
86471400094105,-0.1746904,-0.54638046,9.626883
86471419951898,-0.21480457,-0.5530184,9.59468
86471439809819,-0.19445804,-0.61957663,9.580204
86471459667740,-0.20760402,-0.5844969,9.570824
86471479522807,-0.31508422,-0.41236007,9.554337
86471499380600,-0.4069176,-0.3825297,9.622147
86471519238393,-0.24014178,-0.39848274,9.655305
86471539096186,-0.07389837,-0.39895368,9.668836
86471558953851,-0.023564897,-0.44256556,9.607646
86471578815484,0.0028933915,-0.45179132,9.586208
86471598673405,0.046296198,-0.32189935,9.6772585
86471618531326,0.082839146,-0.21356891,9.627576
86471638389247,0.03573761,-0.24668573,9.52938
86471658247040,0.06593906,-0.26017195,9.517339
86471678104363,0.052100968,-0.21790159,9.589632
86471697962284,-0.076457486,-0.25121394,9.677016
86471717820205,-0.043052696,-0.3039369,9.68742
86471737677998,0.109281495,-0.32152772,9.765269
86471757535919,0.094402894,-0.30075872,9.773288
86471777396990,-6.083568E-4,-0.26801366,9.887028
86471797254890,0.008397629,-0.21721254,9.82223
86471817112939,0.010980306,-0.21576078,9.622244
86471836970858,0.04973485,-0.36596346,9.53843
86471856828778,0.14146827,-0.37339798,9.512432
86471876689685,0.16512169,-0.25554585,9.598411
86471896547733,0.06673482,-0.25285545,9.772771
86471916405781,-0.005546021,-0.25419673,9.806922
86471936263829,0.014031254,-0.2846127,9.83908
86471956121877,0.07025117,-0.3610555,9.806943
86471975981961,0.10910336,-0.35220557,9.746077
86471995840009,0.032625396,-0.26679942,9.7086115
86472015698185,-0.004563812,-0.30258334,9.747789
86472035556233,0.014577002,-0.4498649,9.782027
86472055414409,-0.012392639,-0.3917638,9.765137
86472075264504,-0.0018104506,-0.27495775,9.7334795
86472095122552,0.064285,-0.3079326,9.780681
86472114980472,0.055295613,-0.26574248,9.751568
86472134838392,0.08989731,-0.293642,9.775543
86472154696312,0.17431107,-0.32770115,9.753252
86472174551849,0.09924902,-0.38020334,9.750788
86472194409769,0.109901845,-0.40338215,9.755252
86472214267561,0.114423804,-0.35870722,9.782392
86472234125481,0.06642775,-0.39323208,9.759308
86472253983273,0.06213558,-0.35873973,9.752354
86472273848606,0.09852487,-0.32470605,9.755
86472293706655,0.0817181,-0.3800934,9.714359
86472313564576,0.043146245,-0.46534395,9.7609625
86472333422621,0.13500784,-0.40743175,9.856203
86472353280541,0.12573594,-0.3365041,9.783924
86472373140470,0.08865306,-0.33944944,9.694396
86472392998518,0.1071781,-0.3130145,9.670387
86472412860873,0.232338,-0.4272161,9.85156
86472432718922,0.23470083,-0.43431467,9.962232
86472452576971,0.21110885,-0.40466648,9.813032
86472472435020,0.1481888,-0.3250393,9.709394
86472492291557,0.1917965,-0.34041607,9.699445
86472512149606,0.22891572,-0.39694965,9.697565
86472532007655,0.18533267,-0.3967305,9.770242
86472551865704,0.18891194,-0.46256894,9.733757
86472571723753,0.18237089,-0.47312805,9.763488
86472591572254,0.11741441,-0.39399877,9.744502
86472611430175,0.18123904,-0.38285136,9.729705
86472631287968,0.26017296,-0.2933014,9.739516
86472651145889,0.33853778,-0.21375594,9.727706
86472671003810,0.3136172,-0.15202595,9.679901
86472690850205,0.31595057,-0.14288868,9.597612
86472710707742,0.34455758,-0.28758448,9.683711
86472730565407,0.2931999,-0.29188785,9.815197
86472750422944,0.23590721,-0.19082598,9.809736
86472770280609,0.17945497,-0.24518391,9.81409
86472790137944,0.090099156,-0.38730472,9.745308
86472809995609,0.10133199,-0.12898198,9.7170105
86472829853126,0.29886737,-0.074358486,9.878687
86472849710662,0.31327048,-0.23563583,9.837112
86472869568326,0.18749866,-0.17129916,9.763028
86472889428465,0.043007325,-0.24918875,9.731304
86472909286129,-0.12843733,-0.48069343,9.8119545
86472929143793,-0.23032144,-0.12872754,9.867717
86472949001329,0.3574475,-0.5682395,9.645016
86472968858993,0.36096817,-0.4662464,9.651186
86472988714140,0.055967573,-0.2805987,9.770728
86473008571676,-0.031260744,-0.3823368,9.798817
86473028429212,-0.0070478944,-0.36164007,9.888527
86473048286876,0.014718211,-0.37298542,9.77326
86473068144412,-0.22748491,-0.3833,9.757073
86473088001162,-0.16921408,-0.43490872,9.788149
86473107858698,-0.055228252,-0.5374338,9.879424
86473127716234,-0.10971808,-0.5137241,9.9472275
86473147573770,-0.13263969,-0.42971367,9.738821
86473167431306,-0.076790065,-0.46481454,9.807379
86473187287812,0.0016642371,-0.3616154,9.71183
86473207145220,0.067238756,-0.23324287,9.668186
86473227002756,0.14029434,-0.23229243,9.711813
86473246860165,0.034048665,-0.2305921,9.882593
86473266717702,0.27477154,-0.160718,9.686441
86473286576123,0.18491706,-0.11869362,9.732297
86473306433528,-0.12457392,-0.4110123,9.84331
86473326291064,0.30493554,-0.53004754,9.7361965
86473346148472,0.77464664,-0.4258518,9.715459
86473366006008,0.5096785,-0.09249264,9.827917
86473385871815,-0.08751498,-0.091075525,9.8189
86473405729480,-0.017264204,-0.18739802,9.6569
86473425587145,0.6084581,-0.31755593,9.687561
86473445444810,0.5589301,-0.38403574,9.947097
86473465302475,0.10554806,-0.37878525,10.069475
86473485163234,-0.020034308,-0.34447187,9.921248
86473505021027,0.05531841,-0.32140625,9.671037
86473524878692,0.033551496,-0.35488862,9.6837015
86473544736357,-0.02920482,-0.46644574,9.742893
86473564594150,-0.24368006,-0.46193612,9.730415
86473584454337,-0.062780365,-0.2541136,9.670422
86473604312130,-0.05855309,-0.4101974,10.033208
86473624169923,-0.29573685,-0.48413497,9.789696
86473644027716,0.54525536,-0.46479338,9.789799
86473663885509,0.9324923,0.105611,9.649374
86473683744442,0.17409094,0.23769344,9.845071
86473703602235,0.016163114,-0.09485885,9.660528
86473723459900,0.3299714,-0.099027425,9.634476
86473743317693,0.3608859,-0.21658367,9.740972
86473763175486,-0.22537847,-0.4426553,9.82734
86473783038599,-0.5984742,-0.6442796,9.754556
86473802896392,-0.26367444,-0.6855393,9.641609
86473822754313,-0.06363325,-0.60944533,9.73594
86473842612085,-0.1613284,-0.489378,9.856794
86473862470005,-0.18901359,-0.43329915,10.007512
86473882331807,-0.31779584,-0.30846205,9.862993
86473902189855,0.16238834,-0.19815132,9.429282
86473922047903,0.6119741,-0.5175998,9.819081
86473941905951,0.3466913,0.056205258,9.818669
86473961763999,0.25787616,-0.067943886,9.816067
86473981622609,0.0093280105,-0.12543727,9.811557
86474001480785,0.3395695,-0.1326106,9.727072
86474021338961,0.47380748,-0.17631517,10.05827
86474041197009,0.24230833,-0.33539474,9.907698
86474061055185,0.06264696,-0.38059026,9.737793
86474080917059,0.10552015,-0.2752411,9.71222
86474100775235,0.18608391,-0.3684328,9.594336
86474120633539,0.052035663,-0.2532123,9.737183
86474140491715,0.061732084,-0.23774625,9.759875
86474160350019,0.1682179,-0.06699126,9.85449
86474180205233,0.101630494,-0.061773647,9.596187
86474200063410,0.18998286,-0.34843263,9.653792
86474219921587,0.19547352,-0.33855483,9.784442
86474239779761,-0.0027780903,-0.30424297,9.781538
86474259637937,-0.23920697,-0.33036616,9.849491
86474279490201,-0.34844998,-0.4535735,9.861211
86474299348249,-0.20524041,-0.557316,9.621415
86474319206297,-0.20464249,-0.5797896,9.830831
86474339064217,-0.1864559,-0.54470426,9.927521
86474358922266,-0.25429076,-0.38792092,9.783851
86474378778961,-0.1880544,-0.4034647,9.679839
86474398636882,-0.0804791,-0.25904852,9.805128
86474418494931,-0.07995505,-0.12697564,9.57379
86474438352852,0.0638265,-0.43781394,9.796678
86474458210901,-0.081024274,-0.27313423,9.8752165
86474478059672,-0.086691625,-0.21297099,10.045875
86474497917465,0.10540066,-0.2539054,9.676824
86474517775258,0.16181865,-0.3548597,9.74168
86474537633179,0.10913932,-0.328948,9.746559
86474557490972,0.21142836,-0.39216232,9.814693
86474577339561,0.13791987,-0.3467604,9.792145
86474597197226,0.024280073,-0.37194592,9.722936
86474617054763,0.12167785,-0.4385503,9.748037
86474636912428,0.24191847,-0.38955894,9.865541
86474656769965,0.33396393,-0.34146276,9.810368
86474676619304,0.21589546,-0.26414797,9.699195
86474696476713,0.2638445,-0.30550814,9.590097
86474716334122,0.37968463,-0.29167023,9.843238
86474736191531,0.4295611,-0.18478821,10.030429
86474756049068,0.3130576,-0.08156264,9.949029
86474775906477,0.3924472,-0.16316737,9.514947
86474795761510,0.39887038,-0.23985429,9.494265
86474815618896,0.44927967,-0.30681318,9.612311
86474835476583,0.2701011,-0.18812227,9.852032
86474855333863,0.079815626,-0.22281101,9.860326
86474875191143,-0.12306847,-0.42199188,9.834461
86474895048874,-0.2191244,-0.6370594,9.748075
86474914906154,-0.109067194,-0.5275723,9.807872
86474934763434,-0.050961908,-0.28589696,9.762416
86474954620714,-0.054288514,-0.22826427,9.802491
86474974477994,-0.050162926,-0.35820702,9.812197
86474994335507,0.008311207,-0.36518866,9.755558
86475014192787,0.055347856,-0.22167571,9.756793
86475034050067,0.1469834,-0.19970164,9.745108
86475053907347,0.26553166,-0.28959092,9.82368
86475073764627,0.3101131,-0.29566526,9.806657
86475093622925,0.21480514,-0.25662512,9.743815
86475113480205,0.20461524,-0.2391292,9.7219925
86475133337485,0.2146721,-0.23292181,9.745062
86475153194765,0.07127547,-0.25210962,9.863766
86475173052045,-0.08422665,-0.43137845,9.881386
86475192917566,-0.2263891,-0.43639234,9.803466
86475212774974,-0.35356396,-0.4526252,9.742392
86475232632254,-0.41818535,-0.557287,9.722416
86475252489663,-0.29659182,-0.58780473,9.759989
86475272354287,-0.17584822,-0.49012178,9.784251
86475292211823,-0.21283883,-0.38076857,9.727411
86475312069360,-0.19027446,-0.35802385,9.737006
86475331926895,-0.122447625,-0.34128407,9.737236
86475351784431,0.02195156,-0.41179442,9.764534
86475371641968,0.039408132,-0.37102523,9.71562
86475391504950,0.05192541,-0.23251048,9.686537
86475411362615,0.15103331,-0.29686022,9.70219
86475431220280,0.21095698,-0.28442916,9.811789
86475451077945,0.238501,-0.2890074,9.817189
86475470940162,0.13785127,-0.2232616,9.804208
86475490797955,0.032948248,-0.26622903,9.686763
86475510655748,0.086249515,-0.3131995,9.692675
86475530513541,0.09959135,-0.28064415,9.756321
86475550371334,0.035685707,-0.2923985,9.768521
86475570224507,0.031452227,-0.29163006,9.832193
86475590082172,-0.025009563,-0.33822238,9.789632
86475609939965,-0.004250646,-0.37231314,9.720704
86475629797630,0.123884104,-0.35816485,9.7228365
86475649655295,0.10941476,-0.28642595,9.769297
86475669513088,0.07065094,-0.3052532,9.746046
86475689377197,0.1301324,-0.34190327,9.780172
86475709235118,0.22014493,-0.33804744,9.817191
86475729093039,0.22572252,-0.2644576,9.792711
86475748950832,0.197659,-0.27243602,9.748508
86475768819517,0.18517588,-0.3363087,9.703856
86475788677694,0.20164782,-0.3717139,9.764027
86475808535724,0.23691566,-0.37662932,9.772228
86475828393900,0.084893815,-0.34936866,9.79803
86475848252077,0.011527736,-0.41469744,9.820446
86475868110252,0.02241394,-0.4545973,9.97375
86475887971177,0.035638843,-0.43206328,9.512246
86475907829482,-0.10088038,-0.2803598,9.679517
86475927687657,0.023898564,-0.49249783,9.784876
86475947545961,0.13262415,-0.35943314,9.830835
86475967404138,0.10735542,-0.3226644,9.721422
86475987268567,-0.068559416,-0.33011016,9.790714
86476007126999,0.12711875,-0.32575992,9.751284
86476026985432,0.17152745,-0.29120794,9.774263
86476046843863,0.09241361,-0.40311182,9.686745
86476066698949,0.11703121,-0.36415464,9.762989
86476086557254,0.14364317,-0.30571404,9.730935
86476106415685,0.0988809,-0.2294977,9.821491
86476126274117,0.20652574,-0.2935693,9.760897
86476146132422,0.21442634,-0.32897294,9.727918
86476165990853,0.16721329,-0.2540773,9.768914
86476185849329,0.14262262,-0.29111853,9.79756
86476205707634,0.13393553,-0.35920906,9.721687
86476225566065,0.14629944,-0.3130394,9.697888
86476245424369,0.24153991,-0.296469,9.818444
86476265282802,0.23408724,-0.23117301,9.848362
86476285141130,0.15776901,-0.20854664,9.788981
86476304999434,0.26911116,-0.22530773,9.661942
86476324857867,0.24884896,-0.14528038,9.678695
86476344716170,0.21923012,-0.2368296,9.797081
86476364570108,0.28361467,-0.326531,9.845409
86476384428285,0.24890476,-0.23877536,9.7646
86476404286588,0.09378849,-0.22250256,9.720845
86476424144892,0.09472048,-0.21713224,9.727932
86476444003069,0.15698844,-0.223201,9.769872
86476463861372,0.15958712,-0.26480457,9.778583
86476483705956,0.12638338,-0.27954328,9.807634
86476503564005,0.10680437,-0.27100262,9.732908
86476523422052,0.2216874,-0.27617896,9.697776
86476543279972,0.2599128,-0.23685634,9.842438
86476563138021,0.21211663,-0.1824403,9.892133
86476582981488,0.15552282,-0.18897812,9.83176
86476602839280,0.21717782,-0.26557574,9.795712
86476622696945,0.18796587,-0.2615138,9.761142
86476642554608,0.19164856,-0.24426875,9.762898
86476662407236,0.24124154,-0.2810188,9.781461
86476682264773,0.2600492,-0.34647214,9.731654
86476702122308,0.3341797,-0.26305175,9.753562
86476721979844,0.2772696,-0.16206007,9.761155
86476741837253,0.21826223,-0.23059982,9.749414
86476761694788,0.1363946,-0.29237098,9.75747
86476781551984,0.20071171,-0.2586467,9.824215
86476801409521,0.23167485,-0.31173053,9.782279
86476821266928,0.13706082,-0.32058313,9.741281
86476841126728,0.09735832,-0.34451458,9.747431
86476860984265,0.15061556,-0.2748669,9.769495
86476880843391,0.2041841,-0.15893358,9.849441
86476900700927,0.21420893,-0.1772127,9.7656355
86476920558464,0.24941152,-0.19314408,9.763612
86476940415999,0.24687934,-0.19758524,9.749693
86476960273535,0.19663146,-0.1702919,9.753044
86476980131072,0.2262957,-0.19972406,9.778903
86476999986608,0.20941314,-0.22640267,9.719164
86477019844016,0.23377645,-0.18551373,9.71685
86477039701553,0.21315071,-0.19759013,9.741901
86477059558960,0.20715396,-0.17803249,9.795545
86477079419806,0.22540784,-0.20029236,9.859062
86477099277343,0.19221723,-0.24969827,9.737119
86477119134750,0.13496372,-0.20985188,9.709874
86477138992286,0.154962,-0.23321426,9.743914
86477158849823,0.1844234,-0.23984216,9.870691
86477178705865,0.1890409,-0.28454256,9.840402
86477198563273,0.14877272,-0.2737512,9.742647
86477218420554,0.11456327,-0.2682555,9.718139
86477238277961,0.19808151,-0.25575134,9.719025
86477258135369,0.21321006,-0.27021384,9.832334
86477277992778,0.17419891,-0.24898493,9.732914
86477297860352,0.13261192,-0.30761564,9.711877
86477317717888,0.13921139,-0.35409966,9.731647
86477337575425,0.18263406,-0.3535685,9.7304735
86477357432960,0.1515467,-0.35292995,9.720173
86477377287759,0.10143614,-0.33804542,9.758222
86477397145296,0.19217534,-0.37619346,9.812251
86477417002831,0.2668049,-0.28400975,9.8301325
86477436860367,0.23672894,-0.25381926,9.796381
86477456717904,0.2501693,-0.27820528,9.766293
86477476575439,0.17075174,-0.21356979,9.774384
86477496437801,0.24271487,-0.26479974,9.7297535
86477516295466,0.21882404,-0.23670469,9.739595
86477536153129,0.21671975,-0.26374757,9.741751
86477556010665,0.19722082,-0.21686009,9.748119
86477575868330,0.19447948,-0.22348145,9.748636
86477595724859,0.24897861,-0.24866274,9.766173
86477615582523,0.20002893,-0.17708139,9.762219
86477635440188,0.14028102,-0.24333477,9.710997
86477655297851,0.21958734,-0.29489297,9.723008
86477675161866,0.2425619,-0.2304385,9.786218
86477695019659,0.22827947,-0.22673856,9.785678
86477714877450,0.11527227,-0.23292366,9.794189
86477734735242,0.18611626,-0.26070887,9.74351
86477754593035,0.20679274,-0.19865581,9.715257
86477774450826,0.16909914,-0.16685236,9.840475
86477794311908,0.20807451,-0.2936551,9.79459
86477814169829,0.16931817,-0.2955174,9.76359
86477834027748,0.13060363,-0.3137882,9.679662
86477853885668,0.16901441,-0.34339625,9.721333
86477873743589,0.24088034,-0.26582593,9.864627
86477893609358,0.20977478,-0.20478615,9.773327
86477913467534,0.14258952,-0.27044392,9.689933
86477933325711,0.21462183,-0.36863616,9.723514
86477953183886,0.325415,-0.33179766,9.755381
86477973047474,0.2742893,-0.27179334,9.915625
86477992905779,0.25567085,-0.3080088,9.819707
86478012764082,0.24969012,-0.27676946,9.750356
86478032622514,0.33223128,-0.28367624,9.724702
86478052480819,0.32318398,-0.26493996,9.771544
86478072339122,0.35232878,-0.30337676,9.871452
86478092192812,0.32225323,-0.32780123,9.74552
86478112051117,0.2483563,-0.2861571,9.72137
86478131909292,0.1805166,-0.29721737,9.711563
86478151767468,0.25540346,-0.28548416,9.684326
86478171625773,0.2602954,-0.2771949,9.811709
86478191479730,0.20261692,-0.27249652,9.742934
86478211337906,0.16724525,-0.24806075,9.832698
86478231195955,0.17153959,-0.2776015,9.796246
86478251054002,0.16255525,-0.27061477,9.770632
86478270912634,0.16538899,-0.28318313,9.816717
86478290770683,0.11759788,-0.32235852,9.727095
86478310628730,0.17961876,-0.27959433,9.800342
86478330486906,0.16098972,-0.30896512,9.765354
86478350344955,0.15581833,-0.29728222,9.739389
86478370203002,0.1775586,-0.25058085,9.751226
86478390058156,0.106912725,-0.27315432,9.749675
86478409916205,0.14619356,-0.33043405,9.845567
86478429774252,0.15286379,-0.26362097,9.774633
86478449632300,0.09118933,-0.25861362,9.737826
86478469490221,0.08682249,-0.31514847,9.813315
86478489346414,0.1443302,-0.32894447,9.83318
86478509204334,0.113068946,-0.28689426,9.772971
86478529062383,0.004513594,-0.28562587,9.778991
86478548920302,0.011288218,-0.33377427,9.7541
86478568778350,0.10314004,-0.27257442,9.76297
86478588636271,0.09709477,-0.3121559,9.739322
86478608481182,-0.0024490282,-0.2709425,9.7882595
86478628338974,0.010233788,-0.2965233,9.723156
86478648196639,-0.028863009,-0.38544026,9.74713
86478668054302,0.06312142,-0.36960995,9.763461
86478687903975,0.010625112,-0.26670867,9.80186
86478707761512,-0.043456174,-0.2994928,9.78274
86478727619047,-0.04677837,-0.324939,9.703794
86478747476583,0.018286848,-0.3636969,9.708678
86478767334120,0.0048788595,-0.33939818,9.873165
86478787190066,0.039454147,-0.32057953,9.805868
86478807047602,0.022595648,-0.34678015,9.742614
86478826905011,-0.018260946,-0.30663246,9.671689
86478846762546,0.09091527,-0.35378447,9.752828
86478866614808,0.1879177,-0.31860638,9.795012
86478886472217,0.1136642,-0.26311794,9.768021
86478906332952,0.08693472,-0.2626551,9.744528
86478926190616,0.11032147,-0.26660272,9.7997055
86478946048153,0.18198952,-0.34086695,9.768654
86478965905816,0.14929356,-0.25231734,9.778105
86478985711630,0.04341056,-0.2841223,9.803973
86479005568143,0.06121144,-0.32883903,9.7716465
86479025424654,-0.011001772,-0.3099593,9.797686
86479045281166,-0.04344522,-0.37963718,9.72571
86479065137807,-0.05437541,-0.32637036,9.844609
86479084998426,0.013409776,-0.40489563,9.808772
86479104855066,0.011190408,-0.3641819,9.727186
86479124711579,-0.03660807,-0.30663124,9.791374
86479144568090,-0.029322127,-0.3457529,9.776511
86479164424602,0.049193937,-0.31256592,9.816071
86479184281243,0.014931447,-0.2952302,9.753849
86479204148835,0.026057009,-0.37900567,9.809966
86479224005475,0.031168817,-0.3097896,9.844531
86479243861988,-0.007628755,-0.24144636,9.617102
86479263718627,-0.001203351,-0.22537267,9.744516
86479283586598,0.15197916,-0.36491588,9.889007
86479303443367,0.17393422,-0.26562914,9.843038
86479323300134,0.024532326,-0.19501403,9.805908
86479343157030,-0.050906785,-0.26932275,9.477413
86479363013799,0.0556504,-0.17490713,9.859683
86479382878965,0.20983577,-0.37119752,9.769958
86479402735861,0.047923982,-0.2456534,9.802524
86479422592758,-0.13979767,-0.22064206,9.6951885
86479442449653,-0.08321218,-0.29573983,9.695213
86479462306677,0.07460657,-0.2927401,9.734843
86479482163574,0.002797738,-0.32940134,9.724478
86479502036481,-0.02743789,-0.26950926,9.781156
86479521893761,-0.010483867,-0.25742313,9.775509
86479541750914,-0.016075324,-0.3018436,9.6826105
86479561608193,0.004820811,-0.2667181,9.697382
86479581472146,0.072179876,-0.3193618,9.850165
86479601329555,0.14396647,-0.31441256,9.811079
86479621186962,0.088175915,-0.28584585,9.761511
86479641044370,0.0021317278,-0.3371339,9.650879
86479660901651,0.0716788,-0.3590012,9.739345
86479680759058,0.17663263,-0.41300923,9.80922
86479700632399,0.15745477,-0.40623173,9.776174
86479720490192,0.08344383,-0.34486085,9.753018
86479740347855,0.06566979,-0.37192753,9.710439
86479760205647,0.18809286,-0.39691043,9.72349
86479780063312,0.14260691,-0.31092355,9.772533
86479799932379,0.14869593,-0.35205767,9.757478
86479819790427,0.1816256,-0.26835227,9.836377
86479839648476,0.1409605,-0.3207681,9.747608
86479859506395,0.15149818,-0.43876097,9.763088
86479879371538,0.16795374,-0.43181333,9.790535
86479899229843,0.20801656,-0.36863914,9.689533
86479919088018,0.110935226,-0.23864752,9.728132
86479938946322,0.04739497,-0.3812692,9.782182
86479958804627,0.1813616,-0.44987118,9.8395
86479978662802,0.20720714,-0.3754038,9.845248
86479998527067,0.056572635,-0.3293005,9.743472
86480018385500,0.051830817,-0.38876688,9.745312
86480038244059,0.15197699,-0.3995504,9.794106
86480058102491,0.13093126,-0.2639614,9.747331
86480077961052,-0.0031517658,-0.30142322,9.816668
86480097823020,-0.017652139,-0.46184617,9.776763
86480117681708,0.07080392,-0.36558312,9.841187
86480137540397,-0.013428582,-0.24897824,9.7588215
86480157399084,-0.053900227,-0.24593383,9.752289
86480177257893,0.037975423,-0.32204804,9.80436
86480197116582,0.057822265,-0.33189464,9.764613
86480216975397,0.040753033,-0.25404513,9.7753935
86480236834085,0.0028177525,-0.19406909,9.717165
86480256692902,-0.016531883,-0.21695286,9.783556
86480276551589,0.053153507,-0.3816693,9.820255
86480296407607,0.049053974,-0.30586267,9.755904
86480316266296,-0.0189331,-0.18890463,9.882737
86480336125111,-0.08500548,-0.27844265,9.776197
86480355983799,-0.0018131282,-0.30764803,9.697164
86480375842488,-0.02106436,-0.23145907,9.7175455
86480395698688,-0.13655578,-0.18894565,9.81476
86480415557504,-0.095863745,-0.27312878,9.836324
86480435416193,-0.09943394,-0.279031,9.719957
86480455275008,-0.16263214,-0.24372725,9.721524
86480475129960,-0.11950368,-0.23796113,9.849606
86480494988777,-0.051624674,-0.25575677,9.790962
86480514847592,-0.09343195,-0.23245099,9.77234
86480534706408,-0.104647346,-0.2866283,9.707016
86480554565225,-0.052617267,-0.2425101,9.728669
86480574424040,-0.008716172,-0.21298036,9.764372
86480594249375,-0.063041076,-0.28503612,9.862329
86480614107168,-0.034168918,-0.31309727,9.819795
86480633964959,-0.06705695,-0.2583465,9.805147
86480653822751,-0.04256321,-0.2629878,9.715508
86480673680544,-0.03511465,-0.24809827,9.798394
86480693538140,0.01253923,-0.3194584,9.74497
86480713395804,-0.015273426,-0.21053895,9.722959
86480733253469,-0.046020567,-0.23543327,9.722037
86480753111132,-0.08333084,-0.25724328,9.817164
86480772968796,-0.025293546,-0.30246785,9.800587
86480792826461,-0.051102594,-0.23805928,9.754229
86480812687044,-0.07061952,-0.2316626,9.823761
86480832544836,-0.040504567,-0.26795554,9.809482
86480852402501,-0.06906255,-0.18486322,9.755492
86480872263171,-0.13948639,-0.16492632,9.693465
86480892121206,-0.1099191,-0.30152002,9.744737
86480911978871,0.019429827,-0.29101986,9.792457
86480931836662,-0.03630293,-0.22222197,9.803299
86480951694326,-0.1069551,-0.22600201,9.792379
86480971552119,-0.036279812,-0.2756353,9.844232
86480991410006,0.027618794,-0.26351377,9.787835
86481011267670,-0.057184324,-0.21597862,9.822024
86481031125335,-0.10104014,-0.30327418,9.797228
86481050983126,-0.10012478,-0.28509694,9.745063
86481070840790,-0.11212563,-0.28224504,9.714889
86481090698455,-0.08809028,-0.30041546,9.678666
86481110553838,-0.0327584,-0.18399881,9.844007
86481130411502,-0.13003255,-0.18848634,9.809079
86481150269167,-0.20017272,-0.28246552,9.721421
86481170126958,-0.15212798,-0.25070703,9.679287
86481189981607,-0.12330586,-0.281033,9.796449
86481209839144,-0.0819467,-0.2564864,9.859166
86481229696679,-0.1032946,-0.2782621,9.779371
86481249554343,-0.12724744,-0.24035329,9.695996
86481269411880,-0.1090988,-0.20617418,9.786657
86481289273456,-0.06508139,-0.25691405,9.742387
86481309131120,-0.099856295,-0.2759677,9.783448
86481328988785,-0.107965045,-0.3164365,9.783074
86481348846448,-0.031300012,-0.28465936,9.711081
86481368704112,-0.01750038,-0.23134702,9.728161
86481388561777,-0.080091216,-0.28646177,9.754881
86481408404866,-0.045748957,-0.31668764,9.892562
86481428262274,-0.009963004,-0.35477668,9.869777
86481448119683,-0.08453975,-0.267727,9.789932
86481467977090,-0.0352253,-0.2897395,9.766289
86481487826239,0.02934739,-0.25467855,9.768445
86481507683520,0.031340115,-0.2538314,9.731952
86481527540799,-0.11761195,-0.19983,9.685424
86481547397951,-0.08418854,-0.27493802,9.684074
86481567255232,0.02182409,-0.32496554,9.771038
86481587111914,-0.0076430724,-0.33346742,9.710057
86481606969194,-0.071824856,-0.26941264,9.78214
86481626826347,-0.0726912,-0.2754366,9.8035
86481646683628,0.049797527,-0.37657416,9.83822
86481666540778,0.017369363,-0.29594082,9.7712555
86481686398059,-0.07678727,-0.30621624,9.754829
86481706261354,0.022407869,-0.3700048,9.766033
86481726118634,0.07651798,-0.34542897,9.736969
86481745975915,0.0014970151,-0.30807233,9.72723
86481765833194,-0.008418251,-0.3159562,9.738736
86481785701360,0.030182049,-0.33954456,9.710058
86481805558897,0.050931778,-0.35972762,9.730085
86481825416304,-0.022052178,-0.34193623,9.800499
86481845273840,-0.014779009,-0.39094356,9.726383
86481865131377,0.02512486,-0.29815277,9.74877
86481884988912,-0.08073646,-0.3165485,9.721614
86481904852854,-0.011972793,-0.40602502,9.767055
86481924710519,0.065660805,-0.40762573,9.856855
86481944568182,0.008628782,-0.3362687,9.810324
86481964425846,-0.039177995,-0.31907907,9.743809
86481984283511,-0.04094584,-0.45510498,9.670584
86482004145520,0.081936516,-0.44122308,9.845756
86482024003312,0.07502385,-0.4094391,9.828009
86482043860977,-0.024523778,-0.30851725,9.775439
86482063718768,-0.04060669,-0.31111965,9.699473
86482083576322,-0.0022825378,-0.37016478,9.768774
86482103434115,0.0947411,-0.36986086,9.783119
86482123291778,-0.02439239,-0.26375785,9.796164
86482143149570,-0.11657859,-0.29395187,9.749867
86482163007235,-0.0033134783,-0.27554134,9.751346
86482182865026,0.0060287826,-0.26373282,9.753385
86482202722928,0.0023291092,-0.26993558,9.772812
86482222580721,-0.007998802,-0.26977056,9.786234
86482242438384,0.019956,-0.2730541,9.738968
86482262296048,0.024222879,-0.23802124,9.7898035
86482282153713,0.017876772,-0.33273992,9.740842
86482302018374,0.09077589,-0.3089669,9.7883835
86482321876167,0.06157058,-0.267239,9.76838
86482341734088,-0.014698955,-0.25548515,9.706675
86482361591881,0.060677875,-0.32245222,9.738237
86482381453350,0.107521966,-0.30208355,9.7648115
86482401311399,0.094425984,-0.22860256,9.822232
86482421169320,0.059539884,-0.2092003,9.823312
86482441027369,0.00650127,-0.27356586,9.7656145
86482460885290,0.077385835,-0.27267888,9.872453
86482480743339,0.0058106463,-0.23602222,9.695535
86482500603034,-0.024994437,-0.3248127,9.759179
86482520461211,0.032511007,-0.36188275,9.802352
86482540319260,-0.027317125,-0.25593832,9.764014
86482560177309,-0.055004224,-0.22801194,9.817964
86482580035358,-0.0031107687,-0.3966584,9.749123
86482599888799,0.05225068,-0.28277746,9.804921
86482619746848,0.0112206945,-0.19720261,9.847486
86482639604897,-0.06570898,-0.23939365,9.804114
86482659462946,-0.011626095,-0.2556175,9.776473
86482679313137,-0.0018986941,-0.2706706,9.691864
86482699171058,-0.006275446,-0.2477001,9.7326975
86482719028851,0.07143849,-0.25058743,9.782688
86482738886750,0.003949253,-0.22302057,9.776018
86482758744671,-0.026256448,-0.20761538,9.715688
86482778602592,-0.07465061,-0.23209041,9.73728
86482798460620,-0.03807887,-0.30502743,9.783061
86482818318541,-0.056779638,-0.34944394,9.891371
86482838176460,-0.09289298,-0.3738306,9.776078
86482858034380,-0.089059316,-0.23450829,9.821805
86482877892429,-0.06567558,-0.29546615,9.707373
86482897744025,-0.027284682,-0.24569193,9.736539
86482917602073,0.031217419,-0.27006456,9.763595
86482937459994,-0.03683864,-0.22820406,9.707781
86482957318041,-0.04810972,-0.19353113,9.774708
86482977175961,-0.044388685,-0.2958438,9.75893
86482997033882,-0.010216081,-0.27473623,9.819317
86483016890716,-0.029664395,-0.21234511,9.83967
86483036748508,-0.11130038,-0.23377725,9.807131
86483056606301,-0.051518667,-0.19972211,9.794972
86483076464220,-0.060810987,-0.2864767,9.80386
86483096310518,-0.058290835,-0.2840443,9.762723
86483116167927,-0.025494488,-0.22099943,9.804793
86483136025462,-0.087197736,-0.25385696,9.712882
86483155882998,-0.060558584,-0.2163569,9.724304
86483175740407,0.024307385,-0.29746073,9.767724
86483195593724,-0.0032247996,-0.22293012,9.726578
86483215451005,-0.042778134,-0.2114477,9.822176
86483235308414,-0.058201704,-0.33474678,9.819565
86483255165695,0.05238576,-0.24510725,9.816991
86483275022972,0.029009033,-0.16402632,9.754344
86483294880381,-0.07706162,-0.19686998,9.711532
86483314737611,-0.009708933,-0.3188688,9.862382
86483334594891,-0.012131216,-0.30064178,9.7661295
86483354452172,-0.06107059,-0.18613942,9.775028
86483374309451,-0.116041586,-0.20059238,9.715087
86483394174726,-0.012144076,-0.2516817,9.708278
86483414032263,0.08281878,-0.27095172,9.828438
86483433889672,0.009221999,-0.29925323,9.774558
86483453747209,0.0017275206,-0.20297147,9.7515745
86483473604618,-0.011178114,-0.18538493,9.752086
86483493465129,-0.012562493,-0.28475976,9.780732
86483513322794,0.08576975,-0.29343322,9.879544
86483533180331,0.051956076,-0.25172055,9.8239765
86483553037868,-0.03821099,-0.21754962,9.772159
86483572895405,-0.09354676,-0.29783586,9.745873
86483592752942,-0.061782595,-0.3357895,9.654393
86483612614081,0.040435426,-0.26087332,9.747212
86483632471618,-0.076245114,-0.20252976,9.787583
86483652329283,-0.060640026,-0.28751537,9.783866
86483672186948,-0.036251877,-0.32175606,9.770989
86483692043039,-0.10174276,-0.31677634,9.786501
86483711900704,-0.023830054,-0.33132565,9.751809
86483731758241,-0.0190799,-0.30359134,9.770355
86483751615906,-0.011794158,-0.29296312,9.801771
86483771473571,-0.031512197,-0.23872581,9.77211
86483791331108,-0.015349506,-0.3125715,9.7135515
86483811201267,0.014686708,-0.3061023,9.775106
86483831059060,0.029768681,-0.30428413,9.81227
86483850916979,-0.021940242,-0.2787128,9.742944
86483870774771,-0.065978765,-0.24492903,9.723723
86483890632692,-0.047234077,-0.2530589,9.672512
86483910491038,-0.054888166,-0.18236834,9.727606
86483930348958,-0.117037706,-0.32653394,9.845322
86483950206879,-0.014477082,-0.3330442,9.753406
86483970064798,-0.047121324,-0.27235478,9.706952
86483989927753,-0.0025891673,-0.31483933,9.813582
86484009785930,0.044973187,-0.17375869,9.830643
86484029643977,-0.02272101,-0.26197162,9.699565
86484049502025,-0.036009382,-0.34170032,9.801963
86484069360074,0.12905005,-0.39320517,9.806675
86484089218249,0.08432903,-0.13140135,9.672488
86484109070843,-0.13320987,-0.1608315,9.7090435
86484128928892,-0.060268316,-0.3918924,9.772362
86484148786939,0.11029581,-0.2953337,9.791873
86484168644987,-0.055255417,-0.2046988,9.82575
86484188503036,-0.15147404,-0.26289588,9.793926
86484208360102,0.09915217,-0.27329397,9.811174
86484228218150,0.053706888,-0.25396785,9.747861
86484248076071,0.0038474423,-0.23603424,9.798754
86484267934118,0.04920238,-0.20976728,9.786514
86484287801144,-0.06276698,-0.17078012,9.663845
86484307659321,-0.068092935,-0.2549641,9.780627
86484327517368,0.0063770786,-0.3754007,9.830526
86484347375544,0.030699564,-0.21883076,9.793687
86484367233721,-0.0658395,-0.2284411,9.752891
86484387091768,-0.11135876,-0.25122264,9.787623
86484406948888,0.018115947,-0.24155588,9.710519
86484426806937,-0.05148606,-0.22366883,9.824116
86484446665114,-0.076349385,-0.30056798,9.849723
86484466523291,-0.0058224895,-0.24160388,9.831841
86484486381340,-0.057956938,-0.2125316,9.7798195
86484506236889,-0.11680797,-0.15900968,9.703976
86484526094938,-0.0066070813,-0.26994768,9.798155
86484545953115,-0.022769837,-0.2059821,9.74965
86484565811164,-0.106829286,-0.25403407,9.77484
86484585669213,-0.12109627,-0.24263228,9.700024
86484605527262,-0.08780755,-0.24255694,9.821954
86484625386321,-0.07457,-0.2493106,9.841632
86484645244498,-0.0976594,-0.2539516,9.827003
86484665102675,-0.07984499,-0.31780952,9.785812
86484684960852,-0.11292015,-0.2457843,9.752036
86484704810027,-0.036997423,-0.26282227,9.845823
86484724667948,-0.0931806,-0.23087782,9.796928
86484744525997,-0.10139218,-0.2592465,9.660076
86484764383918,-0.12408417,-0.21161124,9.739208
86484784241839,-0.15564445,-0.20894162,9.699556
86484804091454,-0.06557609,-0.24871254,9.753021
86484823949246,-0.06886721,-0.3099245,9.726299
86484843807039,-0.10407344,-0.25967014,9.722411
86484863664830,-0.08828533,-0.23039012,9.874387
86484883522494,-0.027029013,-0.29347512,9.7869625
86484903380287,-0.013644064,-0.2249294,9.675044
86484923232990,-0.063634954,-0.28611702,9.783738
86484943090526,0.06175427,-0.35950473,9.777625
86484962948191,0.06097688,-0.27693698,9.818579
86484982805726,-0.09848337,-0.279698,9.809409
86485002661575,0.017597733,-0.36913413,9.788304
86485022519240,0.15202528,-0.2985739,9.759796
86485042376775,-0.04365495,-0.20192656,9.651547
86485062234311,-0.023179453,-0.3027711,9.884179
86485082091976,0.0905132,-0.33359063,9.610246
86485101943989,-0.006008071,-0.22036456,9.695732
86485121801397,-0.0481348,-0.3151073,9.896176
86485141658806,0.08983731,-0.37671885,9.766788
86485161516341,0.1415971,-0.32321265,9.910601
86485181373749,-0.060345117,-0.29320642,9.743953
86485201231158,-0.02005515,-0.37369102,9.730254
86485221092511,0.07650648,-0.35062444,9.738457
86485240950045,-0.026585758,-0.3076497,9.775268
86485260807454,-0.010970459,-0.32472998,9.837383
86485280664989,-0.061767094,-0.30982208,9.735247
86485300520898,-0.079506755,-0.2587732,9.709587
86485320378307,-0.11938832,-0.33234406,9.835891
86485340235714,-0.054604433,-0.38317785,9.739288
86485360092994,-0.04994308,-0.31943348,9.937777
86485379950403,-0.12451403,-0.30751565,9.8015585
86485399807810,-0.037765637,-0.29604757,9.767604
86485419671632,-0.02808651,-0.3844801,10.099133
86485439529169,0.050823726,-0.3340167,10.04696
86485459386704,0.07330226,-0.3267705,10.200076
86485479244240,-0.045052376,-0.37982926,9.943987
86485499101777,-0.11348272,-0.38194126,9.907518
86485518959714,-0.012765041,-0.40501106,10.133332
86485538817122,0.06745619,-0.2959687,9.858313
86485558674659,-0.062128194,-0.30885765,10.010778
86485578532194,-0.10474779,-0.4062673,10.010741
86485598386859,0.02260328,-0.31951687,9.885795
86485618244268,-0.084441334,-0.38577592,10.014036
86485638101803,-0.06724717,-0.37967563,9.852039
86485657959211,-0.06437913,-0.2734912,10.1500025
86485677816748,0.014185818,-0.43766955,9.868664
86485697674155,-0.038194634,-0.3540396,9.863791
86485717537919,-0.09665682,-0.32799882,10.126584
86485737395456,0.025976527,-0.31178975,9.710551
86485757252991,0.07014361,-0.46816975,9.961755
86485777110527,0.023287866,-0.3110975,9.943767
86485796968064,-0.06052575,-0.20110188,9.850882
86485816821681,0.03549265,-0.5364829,10.080649
86485836679089,0.028396832,-0.4175508,9.844226
86485856536498,-0.068920985,-0.33050245,9.888189
86485876393905,-0.080255434,-0.37539575,9.852577
86485896261303,-0.094061516,-0.3578893,9.961861
86485916119096,-0.20390683,-0.4060223,10.080205
86485935976759,-0.13825352,-0.5960575,9.790255
86485955834551,-0.10695073,-0.6275125,10.101684
86485975692344,-0.047346845,-0.5935658,10.126775
86485995550007,-0.0431254,-0.5446031,10.128409
86486015414949,-0.07968729,-0.74543077,10.081846
86486035272870,-0.118120134,-0.71478903,9.897605
86486055130661,-0.08979126,-0.75397855,10.071188
86486074988581,0.017680902,-0.63583887,9.850081
86486094846502,-0.008124593,-0.43771946,10.00131
86486114703096,0.0092406375,-0.51138073,10.1002865
86486134561016,0.041735798,-0.45590627,9.840444
86486154418937,0.010397399,-0.6345114,9.952001
86486174276856,0.024122465,-0.49579766,9.968638
86486194139251,-0.045753695,-0.32926404,9.898934
86486213997300,-0.018877633,-0.63830864,9.987831
86486233855347,0.035581682,-0.56720954,9.886594
86486253713395,0.04802751,-0.28956994,9.970901
86486273571444,0.01763714,-0.26000345,9.962748
86486293429491,0.11682096,-0.3328767,9.74323
86486313281992,0.09918475,-0.40783197,9.852915
86486333140041,0.021519892,-0.5253155,10.12678
86486352997960,0.2292503,-0.81781,9.836411
86486372855880,0.39294076,-0.7648017,9.836616
86486392713929,0.3330515,-0.5085616,9.86822
86486412572127,0.13745672,-0.35019827,9.934741
86486432430175,0.07470458,-0.6183706,9.670856
86486452288096,0.07889763,-0.6748185,10.098618
86486472146015,0.12492926,-0.29550958,10.416944
86486492004063,-0.13368948,-0.16165303,10.406103
86486511861984,-0.38078973,-0.8261846,10.292896
86486531716124,-0.48074767,-0.9186121,10.387679
86486551574044,-0.5913789,-0.7404421,9.853599
86486571431965,-0.31310755,-0.26412043,9.571888
86486591289756,-0.16277948,-0.069735005,9.622185
86486611140733,-0.428514,-0.23937781,9.772242
86486630998398,-0.18278252,-0.900873,9.574516
86486650856061,-0.99853474,-2.0325382,9.6973
86486670713853,-1.5939987,-1.9667127,9.71683
86486690571517,-1.5481435,-1.7899609,10.251476
86486710429309,-0.3581906,-2.8702018,11.058128
86486730280311,0.9345963,-4.7694097,11.59232
86486750137847,0.77217174,-6.800923,10.825579
86486769995383,-0.16501136,-6.918552,10.330091
86486789853047,-0.29149613,-5.632724,10.706084
86486809710583,-0.9957878,-3.291837,12.501982
86486829567753,0.15984602,-0.30167755,14.547892
86486849425289,1.5096053,0.83964455,11.556874
86486869282953,1.741848,1.4504473,9.882168
86486889140489,-2.3780057,0.7172447,12.990295
86486908998025,-7.167569,2.3783922,13.969364
86486928857599,-3.5651586,2.891601,13.098122
86486948715135,0.7062911,1.2250539,11.759209
86486968572671,0.75473666,0.9422979,10.223683
86486988430207,0.39378467,1.3006083,9.513578
86487008287743,0.35965866,2.3748336,7.1100073
86487028149843,0.31695402,1.5523919,6.0222397
86487048007379,0.92874056,1.6541033,6.406772
86487067865043,2.8208401,1.344701,5.473521
86487087722707,1.4977363,1.1042662,7.19666
86487107580243,1.8065642,0.087349236,7.485318
86487127431891,1.6638378,-0.5817205,5.2513323
86487147289427,-0.5570035,0.82187897,3.0252693
86487167146963,-2.2567585,1.5467588,2.6455424
86487187004371,-1.4792718,0.6626672,3.9449835
86487206861907,-0.8006697,-0.68182147,5.741038
86487226722416,-1.5562816,-1.7965221,8.090641
86487246579952,-2.9231234,-2.5436983,11.799142
86487266437360,-3.0538583,-3.7885437,18.314365
86487286294896,-2.969667,-7.531876,19.047659
86487306152432,-2.3542733,-6.969771,11.307862
86487326011187,-0.82247955,-2.322373,5.25023
86487345868851,-0.5056917,1.1065,6.897404
86487365726387,5.437815,6.147516,13.592784
86487385583923,9.961925,13.343726,17.32879
86487405441459,-5.4070635,9.999535,23.892496
86487425300025,-6.3033757,3.6685271,7.158023
86487445157561,-0.92938954,3.8074045,0.4870993
86487465015097,-0.9102026,4.677297,5.6179514
86487484872633,4.441635,8.13939,8.203122
86487504730169,5.9738536,7.831921,9.593978
86487524593032,5.523637,5.162709,9.5719595
86487544450696,3.2891603,1.575809,8.931752
86487564308360,-2.155093,-3.6636727,9.1655245
86487584166024,-4.664741,-4.3718486,9.404312
86487604023560,4.785187,2.87583,8.71967
86487623883845,3.8224757,1.3062222,8.364958
86487643741637,-4.716158,-2.3435462,10.145311
86487663599301,-2.2642047,-0.4663798,9.445424
86487683457093,2.7375185,0.04216827,7.92357
86487703314885,-3.5735114,-3.0368168,8.168449
86487723176700,-4.872664,-3.2179158,10.211066
86487743034492,-1.7925252,-1.4881179,9.9704895
86487762892412,-2.553668,-1.4173008,10.117068
86487782750204,-4.142511,-2.5385127,11.193796
86487802607996,-3.7266917,-2.2601743,11.407287
86487822470280,-4.054477,-1.8825632,10.77337
86487842328200,-4.8363166,-1.3729687,9.870989
86487862186248,-3.58159,0.75134814,9.848555
86487882044168,-2.7332113,3.026924,10.298554
86487901902088,-4.63088,4.6952963,11.829047
86487921756735,0.33950493,1.7216709,14.939306
86487941614655,3.6451707,1.1340477,15.840178
86487961472575,3.3052685,2.9598727,16.815147
86487981330495,1.202614,9.834618,17.09804
86488001188287,-6.7607155,9.920878,12.924936
86488021053999,-4.3481207,3.6010761,9.715847
86488040912047,0.63183147,1.5624872,9.098642
86488060770095,3.850285,-0.3766071,8.645594
86488080628271,2.1815703,-2.2104096,7.924258
86488100486319,2.887496,-1.0530738,5.7241554
86488120345221,4.6929917,0.47522008,4.1248603
86488140203397,2.2472808,-0.8786733,2.77199
86488160061573,1.3751651,-2.8457794,1.310796
86488179919749,-0.6248713,-0.6919758,2.2676582
86488199777797,-1.1020604,1.6423941,4.29617
86488219633858,-0.62751585,0.90312237,5.120177
86488239491906,-1.3932941,0.19054702,5.2371216
86488259349954,-3.9093633,-0.75102866,8.088179
86488279208002,-7.4654026,-1.6255752,16.431826
86488299066178,-8.840416,-2.7796679,24.406168
86488318915240,-6.7627025,-7.893314,17.651182
86488338773032,-6.7036777,-3.631325,8.831489
86488358630952,-0.55430055,5.27701,5.158091
86488378488872,2.1898499,4.606993,7.066616
86488398346792,9.824077,3.2927427,13.155843
86488418205748,12.729485,15.0278,16.598108
86488438063668,-7.147552,2.5273662,12.437568
86488457921588,-4.4393244,0.99578595,5.1919737
86488477779508,6.579862,1.7733368,6.983057
86488497637428,4.616512,0.24868496,10.4630375
86488517493891,6.4749584,0.9658981,11.564573
86488537351683,8.157692,-1.3614709,10.452692
86488557209603,4.680378,-1.8611712,8.920994
86488577067395,-3.6181629,0.57627165,8.022783
86488596925315,-3.9875755,-0.335849,7.397112
86488616773542,1.8037307,-2.923699,8.788104
86488636631206,0.80536216,-1.4382975,11.063042
86488656488998,-0.28403792,-0.55386335,8.806888
86488676346662,-2.0856695,0.2822835,9.908364
86488696204454,-5.792808,1.5763344,10.088355
86488716057473,1.3601826,-3.2496738,8.909495
86488735915009,-0.41429764,-2.6777925,7.7051253
86488755772545,-7.9860363,2.1289227,9.1956625
86488775630081,-4.26301,0.77886516,11.447681
86488795487617,-0.81410766,-0.48601648,11.290755
86488815341465,-4.316913,3.095409,9.659861
86488835199001,-5.329248,3.2654867,10.142996
86488855056537,-3.662453,0.70050895,10.619264
86488874914073,-2.8244963,-0.8752546,10.719867
86488894771481,-3.0391145,0.71378046,9.967114
86488914627706,-1.648079,3.9871955,11.161973
86488934487143,0.4934881,1.3866016,13.673601
86488954344551,3.6061568,-3.3425477,14.405629
86488974201959,3.0467536,-2.898105,15.869209
86488994059367,0.33756235,3.0638967,17.042927
86489013919821,0.7804201,6.308202,14.637487
86489033777229,1.8546951,1.9323452,10.732798
86489053634765,1.7376113,-1.9838698,8.354223
86489073492173,3.1854985,-1.9982487,8.054597
86489093349581,2.6276958,-1.1878628,7.4194474
86489113208336,3.5642078,-2.6143558,6.194488
86489133065872,1.6818875,-0.6484803,5.8037324
86489152923280,0.48720515,0.1890702,5.071065
86489172780688,0.092320986,0.762919,2.7608075
86489192638224,-0.41883606,0.88031745,1.7544008
86489212498850,1.2408838,0.51354116,2.3654687
86489232356258,1.5461171,0.21694906,5.364713
86489252213794,1.112034,-0.42780635,8.150479
86489272071202,0.898665,-0.21087928,11.520508
86489291928738,-5.4491515,0.8614064,18.408342
86489311782184,-14.366807,0.06522672,16.244982
86489331639592,-3.2691596,-3.9490542,9.780338
86489351497000,8.24392,-4.469037,10.833166
86489371354408,7.103664,-3.2579317,12.881048
86489391211816,3.7039487,10.696392,15.294784
86489411072058,0.6442474,3.3092887,9.867738
86489430929466,3.761626,-5.253822,6.272594
86489450787002,3.3950732,-0.8652594,8.595756
86489470644538,4.177396,-1.9175739,10.608478
86489490501946,4.8211546,-5.346409,10.008307
86489510365967,2.2677524,-3.2367778,9.955754
86489530223503,-0.2767284,0.7733384,9.929454
86489550081039,0.5346417,0.87107265,8.440474
86489569938575,0.0071285903,0.9551265,7.544284
86489589796239,-0.39856842,0.32244334,8.207025
86489609653775,0.18788154,-1.6935831,8.750261
86489629515424,0.35349742,-2.627281,10.096066
86489649373088,-1.4864093,-1.1327175,10.666501
86489669230880,-1.4054184,-3.09006E-4,9.265788
86489689088544,-1.0653149,-0.46700633,9.326162
86489708946208,-2.1906981,-0.090142295,10.125159
86489728805097,-1.6385759,0.17017359,9.680837
86489748662889,-0.71647424,0.024160555,9.077968
86489768520681,-1.8245801,1.0399612,9.76951
86489788378473,-0.88874775,-0.2802199,9.90464
86489808236265,-0.93325245,-1.2593211,9.550747
86489828082165,-2.3938127,-0.2379257,9.413803
86489847939829,-0.99818766,0.19586779,10.221898
86489867797365,0.54701567,0.73380095,12.372305
86489887655029,0.490315,0.7336833,14.769635
86489907512565,0.10506133,-0.9938857,13.153196
86489927367614,1.3421199,-2.1291883,10.294687
86489947225150,2.2392018,-1.5254484,9.475745
86489967082558,2.3083887,-0.3284968,8.561836
86489986940095,0.9316484,-0.91093403,8.279607
86490006797630,-0.0058909627,-1.8097371,9.3186865
86490026672031,-0.99315506,-1.2881424,10.101466
86490046529951,-0.11230024,-1.8645366,9.072471
86490066387743,1.2119124,-1.627739,8.229329
86490086245663,1.708897,-0.87563443,7.230639
86490106103455,1.5000526,0.115455836,6.900965
86490125963508,1.8917254,0.03245994,7.177011
86490145821428,2.6046362,-1.2166305,7.48872
86490165679348,2.6043065,-1.6242523,8.56146
86490185537396,1.8274313,-0.28191528,10.50868
86490205395316,-0.7008444,0.7415971,12.5416
86490225252156,-3.1932793,2.0052156,14.397531
86490245110076,-2.1223118,2.7360268,14.45329
86490264967868,-0.096547745,-0.65299296,9.730231
86490284825788,2.400223,-2.8089304,8.175086
86490304683580,2.3519158,-1.0039039,9.036526
86490324543115,1.4108298,1.1897821,9.273699
86490344400907,2.38451,-1.958434,9.207926
86490364258827,0.79615396,-1.2485014,9.339837
86490384116747,-0.39646164,0.6898607,10.001082
86490403974667,0.08233804,-0.08296208,9.937073
86490423834269,0.16770108,-0.2009848,9.976156
86490443692189,0.21614307,0.0846939,9.87258
86490463550109,0.41610584,-0.046775796,9.493304
86490483408029,0.63098353,-0.680249,9.414262
86490503265821,0.7694365,-1.1354138,9.685865
86490523123674,0.69532675,-0.90045434,9.733689
86490542981594,0.65883034,-0.41929162,9.597517
86490562839514,0.3696689,0.26519197,9.491682
86490582697434,0.16695845,0.5161628,9.859632
86490602555354,0.13794422,-0.054066442,9.726769
86490622409184,0.26446375,-0.90949816,9.3959055
86490642267104,0.25352827,-1.0760967,9.533504
86490662125024,0.38026366,-0.90216625,9.630006
86490681982816,0.25433514,-0.5134071,9.6092615
86490701840736,-0.03760787,-0.1966518,9.66897
86490721692719,-0.24526034,-0.022175822,9.744014
86490741550511,-0.18424933,-0.29708275,9.666086
86490761408303,-0.0055279643,-0.7190932,9.543379
86490781265967,0.07601769,-0.6987485,9.616493
86490801123759,0.13529019,-0.55170023,9.624639
86490820977747,0.056112155,-0.49426705,9.700721
86490840835539,-0.080856994,-0.20885457,9.760534
86490860693203,-0.06266001,-0.14902957,9.738705
86490880550995,0.0140561275,-0.2837192,9.642638
86490900408659,0.070250615,-0.37164578,9.642775
86490920259032,0.024194159,-0.47971156,9.67253
86490940116568,-0.0119762,-0.5245632,9.692619
86490959967393,0.0673709,-0.41326457,9.639213
86490979824930,0.15325189,-0.38347825,9.543305
86490999682467,0.2186887,-0.36804664,9.54569
86491019542835,0.28630194,-0.3080818,9.578511
86491039400371,0.2963689,-0.42920092,9.563656
86491059257907,0.31890306,-0.5575202,9.674887
86491079115443,0.27121636,-0.4382348,9.7400875
86491098972979,0.14657257,-0.23222965,9.751093
86491118833034,0.072106645,-0.0039316495,9.710402
86491138690698,0.03163275,-0.025741503,9.695342
86491158548362,0.03353099,-0.21565577,9.635269
86491178406027,0.04773979,-0.36105675,9.592417
86491198263692,0.005919673,-0.50225246,9.506544
86491218122767,0.0725979,-0.5086854,9.597069
86491237980431,0.20083228,-0.351442,9.652448
86491257838223,0.22598767,-0.28536195,9.617231
86491277695887,0.25264695,-0.38180485,9.556335
86491297553551,0.27335396,-0.30752537,9.600518
86491317405563,0.3270194,-0.3232909,9.675877
86491337263099,0.2598679,-0.32252112,9.620009
86491357120635,0.19668312,-0.3184138,9.570134
86491376978299,0.17523782,-0.39223856,9.617831
86491396835835,0.14022303,-0.41322777,9.638022
86491416687623,0.13520171,-0.40435466,9.656585
86491436544903,0.17029965,-0.41753805,9.654375
86491456402183,0.06177957,-0.38036594,9.511783
86491476259591,-0.030027205,-0.45079195,9.571517
86491496116871,0.033725306,-0.4021191,9.714605
86491515977847,0.10954934,-0.38806045,9.733244
86491535835255,0.02208122,-0.28852582,9.6862755
86491555692535,-0.0017539713,-0.33172342,9.622807
86491575549815,0.083647564,-0.5318601,9.5470295
86491595407095,0.07078862,-0.53987616,9.586408
86491615268969,0.04970421,-0.4307804,9.566943
86491635126377,-0.02046377,-0.27615434,9.671088
86491654983913,0.058346562,-0.28714323,9.709633
86491674841449,0.19436942,-0.42925438,9.598174
86491694698857,0.15298918,-0.5162101,9.541951
86491714560915,0.07795471,-0.578739,9.539546
86491734418451,0.029384755,-0.5023574,9.608564
86491754275987,0.027513273,-0.36688712,9.661788
86491774133651,0.07682248,-0.38088703,9.708919
86491793991187,0.2131473,-0.5269261,9.709768
86491813851111,0.2170402,-0.4747387,9.59943
86491833708775,0.10663308,-0.47579145,9.578603
86491853566311,0.019744376,-0.43132886,9.658454
86491873423975,0.067881666,-0.29806295,9.639193
86491893281639,0.10317187,-0.385475,9.604344
86491913144416,0.1946037,-0.3998216,9.594159
86491933002208,0.13179095,-0.422625,9.624317
86491952859872,0.014932871,-0.45067534,9.730897
86491972717664,0.032959733,-0.48640716,9.714403
86491992575456,0.028909817,-0.47147092,9.728579
86492012444364,0.12762873,-0.36006904,9.7063055
86492032302412,0.122754425,-0.34605885,9.68186
86492052160460,0.06983473,-0.37818977,9.775757
86492072018508,0.0787221,-0.43113667,9.738064
86492091876556,0.04948232,-0.5090611,9.733948
86492111734604,0.06726795,-0.5717701,9.720997
86492131591097,0.09301862,-0.53817517,9.73193
86492151449145,0.04104946,-0.48989764,9.797979
86492171307193,0.11038612,-0.48426384,9.769316
86492191165241,0.14890936,-0.4864923,9.729321
86492211023289,0.13508679,-0.54557824,9.7704115
86492230887310,0.1792856,-0.45571667,9.810122
86492250745614,0.10068053,-0.3862693,9.753117
86492270603790,-0.006337571,-0.4028882,9.728244
86492290461966,0.027067723,-0.47030625,9.686743
86492310320142,0.041832417,-0.5383616,9.760759
86492330162993,0.017631467,-0.5045455,9.823526
86492350020913,-0.067814596,-0.4209554,9.835778
86492369878833,-0.050939895,-0.373039,9.865952
86492389736753,0.042106345,-0.35985333,9.775808
86492409594673,0.00413902,-0.43977672,9.696185
86492429453934,-0.085766815,-0.4698794,9.7492485
86492449311854,-0.005819841,-0.4480176,9.777001
86492469169774,0.12009587,-0.41189528,9.735192
86492489027694,-0.019367017,-0.09464356,9.827179
86492508885614,-0.31316778,0.017723987,10.001437
86492528740318,-0.3410279,-0.4333361,10.056538
86492548598238,-0.132674,-0.92844087,9.622643
86492568456030,-0.10010269,-1.057278,9.218485
86492588313822,-0.22675559,-0.77609485,9.512417
86492608171614,-0.3236604,0.4673576,10.1585045
86492628031935,-0.16048273,0.826851,10.051658
86492647889855,0.10359078,0.593762,9.855961
86492667747775,0.14113781,-0.9194866,9.581687
86492687605695,0.058966793,-1.0399581,9.66998
86492707463615,-0.109779365,-0.2391408,9.770506
86492727317364,-0.26324686,-0.06731111,9.899345
86492747175156,-0.23116708,-0.3619571,9.866024
86492767032948,-0.14168133,-0.31656066,9.728708
86492786890740,-0.11012137,-0.29065448,9.696006
86492806748660,-0.17955159,-0.29034865,9.62383
86492826599759,-0.2632312,-0.3894646,9.699477
86492846457423,-0.25811473,-0.30617496,9.93579
86492866315215,-0.27524623,-0.29481035,9.792212
86492886172879,-0.22752726,-0.3004686,9.7267065
86492906030543,-0.2704657,-0.32254845,9.732049
86492925880752,-0.27466357,-0.2510939,9.781405
86492945738288,-0.21282624,-0.32208118,9.807438
86492965595696,-0.19518162,-0.3734081,9.679833
86492985453232,-0.2772155,-0.31288895,9.682044
86493005310768,-0.28785944,-0.27177668,9.7726145
86493025169407,-0.28162432,-0.34042048,9.825492
86493045026815,-0.21745591,-0.3725294,9.804713
86493064884351,-0.17532681,-0.3190671,9.730441
86493084741759,-0.2338357,-0.26113105,9.7037945
86493104599295,-0.23803413,-0.24472968,9.774213
86493124461018,-0.266337,-0.2825694,9.762051
86493144318682,-0.27287215,-0.18916237,9.815663
86493164176218,-0.30506516,-0.17720792,9.759186
86493184033754,-0.29006505,-0.1971709,9.76918
86493203891418,-0.28392836,-0.250231,9.832536
86493223745516,-0.2675863,-0.17996368,9.68692
86493243602924,-0.29875302,-0.23035376,9.681936
86493263460460,-0.28264067,-0.2760432,9.686554
86493283317868,-0.2389689,-0.24445489,9.789904
86493303175276,-0.21354543,-0.20795164,9.859677
86493323029886,-0.27738217,-0.25259477,9.781709
86493342887295,-0.229419,-0.24465793,9.694925
86493362744704,-0.25760832,-0.32875535,9.709594
86493382602110,-0.3609328,-0.30065078,9.754785
86493402459518,-0.33740857,-0.21222839,9.872668
86493422316749,-0.26628593,-0.2684874,9.736172
86493442174157,-0.21373257,-0.3176635,9.68894
86493462031565,-0.1571092,-0.38053063,9.760493
86493481888845,-0.08680739,-0.3873873,9.796431
86493501746253,-0.013114875,-0.45169902,9.816506
86493521611577,0.077774435,-0.4134973,9.839844
86493541469113,-0.03288727,-0.3428436,9.734646
86493561326649,0.03005777,-0.3218131,9.866085
86493581184185,-0.1480951,-0.41202036,9.625557
86493601041721,-0.36409715,-0.3996135,9.78586
86493620905689,-0.3933808,-0.25400624,9.719496
86493640763353,-0.27376664,-0.16750096,9.752876
86493660621145,-0.14735949,-0.26999426,9.908521
86493680478809,-0.19707042,-0.07233458,9.744869
86493700336473,-0.5860843,-0.10647403,9.619132
86493720199506,-0.71760553,-0.11862702,9.692126
86493740057298,-0.72811455,-0.014066209,9.321221
86493759915090,-0.80221355,-0.07155299,9.190086
86493779772882,-0.6952874,-0.1859074,9.789159
86493799630674,-0.71819496,-0.4918617,10.608985
86493819502837,-0.48697662,-0.24608164,10.611236
86493839361013,-0.15832809,0.16714443,9.607398
86493859219189,-0.28836563,0.13022004,9.411649
86493879077365,-0.40029538,-0.26017734,9.668052
86493898935541,-0.20339932,-0.5471697,9.728742
86493918788054,0.04811704,-0.6552241,9.717872
86493938645974,0.12088042,-0.6454293,9.638681
86493958504022,0.057192456,-0.62088716,9.771108
86493978361942,-0.05632612,-0.4254444,9.694577
86493998219990,-0.3557936,-0.3820172,9.633972
86494018082754,-0.3753103,-0.3169269,9.735487
86494037940930,-0.22490366,-0.33160013,9.725678
86494057799106,-0.18065952,-0.43616262,9.838514
86494077657282,-0.20006678,-0.36323497,9.767984
86494097515330,-0.3564911,0.016183242,9.824877
86494117368477,-0.40372974,0.13676506,9.771852
86494137226654,-0.25089663,0.06993761,9.714253
86494157084703,-0.22452721,-0.04881376,9.845421
86494176942752,-0.213686,-0.016152719,9.849239
86494196800929,-0.2892794,0.0786829,9.826534
86494216656910,-0.39413756,0.105287254,9.839603
86494236514959,-0.33799314,-0.030245254,9.929124
86494256373136,-0.34026366,-0.2587489,9.823025
86494276231185,-0.30738604,-0.25182685,9.671983
86494296089234,-0.37159607,-0.21818133,9.788822
86494315952639,-0.44053683,-0.26230803,9.770123
86494335810816,-0.36091384,-0.29792675,9.690993
86494355669121,-0.21843904,-0.37356842,9.655573
86494375527298,-0.15014234,-0.42364058,9.739732
86494395385475,-0.282851,-0.41673353,9.7630005
86494415238842,-0.3308603,-0.36256677,9.781502
86494435096891,-0.30237263,-0.41810107,9.6648855
86494454955068,-0.38670528,-0.4417197,9.811898
86494474813117,-0.26171574,-0.3218649,9.882992
86494494671166,-0.1699015,-0.25922754,9.670922
86494514510251,-0.26653886,-0.34884754,9.857085
86494534367916,-0.3369576,-0.27603573,9.890893
86494554225709,-0.39211965,-0.2851431,9.650722
86494574083352,-0.3186168,-0.23116536,9.647988
86494593941017,-0.33190653,-0.28785807,9.670054
86494613790848,-0.3592467,-0.22704065,9.749013
86494633648385,-0.37340075,-0.14248595,9.68218
86494653505922,-0.35419315,-0.13383332,9.864149
86494673363459,-0.20171434,-0.20644566,9.887443
86494693220996,-0.27076337,-0.27937758,9.794173
86494713074631,-0.3384057,-0.16316088,9.833142
86494732932168,-0.38084042,-0.044137217,9.752052
86494752789577,-0.527492,-0.09850505,9.949324
86494772647114,-0.44704926,-0.14989921,9.756032
86494792504523,-0.38924208,-0.29683048,9.740367
86494812365474,-0.24057715,-0.16008075,9.704584
86494832222882,-0.23195028,-0.018005304,9.602589
86494852080418,-0.337212,-0.06869907,9.802317
86494871937826,-0.4143638,-0.23796353,9.818852
86494891795362,-0.4344204,-0.3583951,9.79079
86494911644273,-0.4143277,-0.337574,9.761252
86494931501553,-0.31279007,-0.12626441,9.769982
86494951358705,-0.27904922,-0.085349165,9.8359165
86494971215985,-0.19653925,-0.19767062,9.809576
86494991073137,-0.28991672,-0.27232632,9.710887
86495010934403,-0.26104298,-0.1482609,9.779888
86495030792209,-0.21752274,-0.035537016,9.805141
86495050649489,-0.2865266,-0.14291006,9.864485
86495070506641,-0.25602484,-0.22203283,9.822628
86495090363921,-0.24639328,-0.25699157,9.757873
86495110218738,-0.41626805,-0.21992214,9.747105
86495130075890,-0.3620601,-0.061147675,9.709066
86495149933042,-0.36318523,-0.08074414,9.799267
86495169790194,-0.33771414,-0.27126086,9.701231
86495189647346,-0.28053004,-0.2160564,9.733156
86495209508631,-0.4472852,-0.11276485,9.832057
86495229365784,-0.38083014,0.050800946,9.832148
86495249223063,-0.59663033,-0.026398258,9.787816
86495269080215,-0.64160687,-0.10898442,10.0018635
86495288937367,-0.29514742,-0.062223773,9.945293
86495308802692,-0.16020897,-0.02368605,9.791896
86495328659972,-0.33373213,-0.09358101,9.841202
86495348517380,-0.4430621,-0.20587195,9.839901
86495368374789,-0.60961175,-0.33059046,9.752377
86495388232070,-0.6263645,-0.48869875,9.867861
86495408093627,-0.6804005,-0.41177928,9.664727
86495427951036,-0.2001079,-0.16804716,9.422581
86495447808573,-0.18594714,-0.39676914,9.826545
86495467666110,-0.3952855,-0.46890235,9.818913
86495487523647,-0.30474606,-0.38929012,9.570604
86495507381184,-0.27916157,-0.35316423,9.629239
86495527244059,-0.055970944,-0.3301653,9.608566
86495547101724,-0.14438704,-0.35701278,9.6185875
86495566959389,-0.34531584,-0.31542394,9.81466
86495586817054,-0.41342545,-0.1347558,9.721228
86495606674591,-0.5688701,-0.0011173686,9.77187
86495626539898,-0.43450895,0.0034435617,9.803565
86495646397819,-0.32521135,-0.09060533,9.754635
86495666255612,-0.39831102,-0.24060214,9.771923
86495686113405,-0.36685777,-0.253052,9.661193
86495705971326,-0.71902007,-0.4768753,10.048823
86495725834427,-0.5764193,0.09996274,9.727072
86495745692348,0.24323569,0.43208158,9.864175
86495765550269,0.030484878,0.39934492,9.670974
86495785408190,0.1424168,0.05488311,9.606914
86495805266111,-0.65974736,-0.3180598,9.850175
86495825129498,-0.804362,-0.33583337,9.844301
86495844987546,-0.638921,-0.24742612,9.96743
86495864845594,-0.3697389,-0.4817581,10.042424
86495884703642,-0.17019925,-0.21097672,9.568541
86495904561690,-0.36166036,-0.08031666,9.694357
86495924426827,-0.31155688,-0.023138138,9.799123
86495944285131,-0.43232355,-0.33532396,9.811566
86495964143435,-0.41112036,-0.57861084,9.76149
86495984001739,-0.23551266,-0.29627484,9.629712
86496003860043,-0.35880262,0.12868942,9.743243
86496023720523,-0.46803787,0.18167488,9.695366
86496043578955,-0.559008,-0.1317752,9.784501
86496063437515,-0.5388649,-0.2525046,9.660016
86496083295947,-0.33129984,-0.043868363,9.723204
86496103154379,-0.389272,-0.026152506,9.790367
86496123002547,-0.36685324,-0.1252347,10.066554
86496142860723,-0.7028681,-0.3304509,10.07352
86496162718899,-0.8819648,-0.37754548,9.904379
86496182577075,-0.2072194,-0.038092364,9.444799
86496202435379,0.065283015,-0.00579865,9.498379
86496222292629,-0.08425237,-0.0576203,9.622498
86496242150677,-0.1926466,-0.20068645,9.802744
86496262008853,-0.7084368,-0.27824458,9.799972
86496281867029,-0.31083545,-0.07142375,9.632587
86496301725205,-0.11895058,0.07460289,9.803279
86496321584264,-0.15221974,-0.03088325,9.732234
86496341442440,-0.3407713,-0.1575769,9.693602
86496361300489,-0.55544496,-0.17454566,9.603807
86496381158666,-0.21477817,-0.07443891,9.870665
86496401016843,-0.25174594,-0.082857005,10.0769615
86496420876720,-0.31432092,-0.101021186,9.785065
86496440735025,-0.21930054,-0.026296044,9.621071
86496460593202,-0.4009293,0.0367799,9.699316
86496480451507,-0.4326508,0.055585656,9.676353
86496500309684,-0.2232406,-0.066296756,9.651211
86496520155851,-0.36442408,-0.14672396,9.834336
86496540013772,-0.38229612,-0.010468049,9.85221
86496559871693,-0.23072526,0.034229763,9.955711
86496579729614,-0.3236075,0.021582782,9.654996
86496599587663,-0.2738435,0.06167,9.69377
86496619439170,-0.2403191,0.041734245,9.857454
86496639297091,-0.44221574,-0.07279059,9.961884
86496659154884,-0.4084874,-0.19342802,9.84272
86496679012805,-0.2719635,-0.2130699,9.802903
86496698870598,-0.26501685,-0.24300699,9.94565
86496718715341,-0.541883,-0.25028384,9.760858
86496738572878,-0.5354268,-0.10360099,9.460392
86496758430415,-0.53052664,-0.075094216,9.536172
86496778287952,-0.3236647,-0.1499802,9.322221
86496798145489,-0.2235773,-0.28592554,9.773817
86496817993110,-0.20605241,-0.10274159,10.219043
86496837850519,-0.33263117,-0.10862331,9.954269
86496857707798,-0.33711258,-0.13997199,9.803503
86496877565206,-0.45311815,-0.03687821,9.7977495
86496897422486,-0.41827798,0.01883806,9.807238
86496917280456,-0.45286426,-0.1493528,9.696391
86496937137736,-0.43735638,-0.12550618,9.680219
86496956995016,-0.32682174,-0.0031234,9.720708
86496976852424,-0.39097178,0.011230507,9.69878
86496996709704,-0.3408915,-0.07787312,9.74041
86497016569015,-0.5146717,-0.2728313,9.790066
86497036425891,-0.8191979,-0.41031826,9.931291
86497056283171,-0.3072962,-0.07825253,9.6418705
86497076140451,0.40132174,0.13535379,9.811761
86497095997731,-0.05707418,-0.20422734,9.884388
86497115854485,-0.54005337,-0.60413706,9.836498
86497135711637,-0.3343308,-0.32595956,9.61808
86497155568917,-0.56133014,-0.04210625,9.747521
86497175426069,-0.3069196,0.27816623,9.858842
86497195283349,-0.1693281,0.2098193,9.664392
86497215142854,-0.30004296,-0.38801727,9.740184
86497235000006,-0.32544434,-0.3817775,9.708759
86497254857286,-0.29553875,0.0458549,9.7164345
86497274714566,-0.4799319,0.084029175,9.765163
86497294571719,-0.4743085,-0.21513112,9.863159
86497314434270,-0.085301615,-0.382904,9.793556
86497334291550,-0.14799324,-0.36154178,9.651436
86497354148958,-0.023460671,0.20274635,9.841567
86497374006238,-0.28788456,0.16843818,9.84328
86497393863646,-0.28582257,-0.401049,9.856822
86497413724301,-0.08675301,-0.6558338,9.975553
86497433581709,-0.040386364,-0.2924379,9.882424
86497453439117,-0.2747189,0.06893427,9.767707
86497473296525,-0.6140321,-0.19868311,9.68024
86497493153933,-0.49520397,-0.26937628,9.379617
86497513022848,-0.2332467,-0.4294472,9.572556
86497532880512,-0.1057176,-0.28146118,9.752672
86497552738176,-0.18438402,-0.2212861,9.810527
86497572595840,-0.2390554,-0.30502507,9.760758
86497592453376,-0.27075237,-0.32101765,9.874769
86497612313787,-0.27758247,-0.28080997,9.900803
86497632171451,-0.2686824,-0.21744508,9.810425
86497652029243,-0.20179269,-0.21632016,9.805512
86497671886907,-0.1336193,-0.18193026,9.754869
86497691744699,-0.15485519,-0.27229178,9.707683
86497711601948,-0.15222935,-0.45356834,9.816031
86497731459740,-0.07748295,-0.37949213,9.65206
86497751317404,-0.14249358,-0.30293292,9.7171335
86497771175068,-0.16017985,-0.27938455,9.597915
86497791032860,-0.10416938,-0.28181574,9.649322
86497810900008,-0.05144925,-0.39860508,9.854803
86497830757928,-0.002169861,-0.48326766,9.765894
86497850615848,-0.01749915,-0.21882004,9.922224
86497870473768,-0.016289514,-0.21253952,9.752751
86497890331816,0.027501017,-0.2312615,9.861488
86497910195423,-0.0016116751,-0.23815551,9.681193
86497930053599,0.025509512,-0.40989855,9.675005
86497949911775,0.36590922,-0.35043633,10.04957
86497969769951,0.35945207,-0.4269772,9.735137
86497989628127,0.08142987,-0.30593362,9.641044
86498009494300,-0.053344615,-0.17884539,9.837616
86498029352732,0.13743524,-0.2707174,9.832207
86498049211164,0.19058222,-0.43104863,9.798142
86498069069468,0.0064201336,-0.6456476,9.628639
86498088927900,-0.13234633,-0.57214093,9.775422
86498108779158,-0.13863039,-0.36829683,9.709059
86498128637463,2.426639E-4,-0.5571012,9.6022625
86498148495766,0.06017277,-0.5101426,9.655143
