UPTIMENANO,Ax,Ay,Az
69242078706708,-1.8226098999999998,8.868757,-1.1951148999999999
69242098562453,-1.8226098999999998,8.947792999999999,-1.214275
69242118418326,-1.81782,8.931028,-1.2621753
69242138274071,-1.8250049,8.871153,-1.2334352
69242158134868,-1.8274,8.868757,-1.1879296999999998
69242177990849,-1.8034497,8.885523,-1.1879296999999998
69242197846850,-1.81782,8.902288,-1.2310401000000002
69242217702723,-1.829795,8.890313,-1.2669654
69242237558724,-1.8369801,8.892708,-1.2741505
69242257417473,-1.8561403000000003,8.904683,-1.2430152
69242277273474,-1.8705102999999998,8.907078,-1.1759547
69242297129475,-1.8537452,8.899892999999999,-1.1855347
69242316985476,-1.8513502,8.885523,-1.2310401000000002
69242336841477,-1.8633252,8.866363,-1.2478052
69242356699064,-1.8944606,8.847202000000001,-1.2358301999999999
69242376555065,-1.8992506000000002,8.842413,-1.2621753
69242396411194,-1.8968556,8.856783,-1.2765454
69242416267195,-1.8944606,8.863968,-1.2310401000000002
69242436123324,-1.8609301999999999,8.8879175,-1.2454101999999998
69242455984043,-1.8896705000000003,8.8951025,-1.2406201000000001
69242475840172,-1.8800903999999998,8.899892999999999,-1.214275
69242495696301,-1.8345851000000002,8.907078,-1.223855
69242515552430,-1.8345851000000002,8.880733,-1.223855
69242535408559,-1.8489552,8.866363,-1.1975098
69242555270630,-1.8489552,8.866363,-1.1903248
69242575126887,-1.8226098999999998,8.871153,-1.223855
69242594983144,-1.81782,8.8951025,-1.2549903
69242614839529,-1.81782,8.899892999999999,-1.22146
69242634695786,-1.829795,8.892708,-1.1855347
69242654548236,-1.8226098999999998,8.868757,-1.1783496
69242674404493,-1.8465601000000003,8.899892999999999,-1.1639795
69242694260622,-1.8369801,8.928633,-1.2022998
69242714116879,-1.8369801,8.880733,-1.219065
69242733973130,-1.8537452,8.837622999999999,-1.1807446000000001
69242753829387,-1.829795,8.830438000000001,-1.1496094
69242773685644,-1.7866846,8.899892999999999,-1.1855347
69242793541901,-1.7818946,8.950189,-1.1543995
69242813398158,-1.81782,8.897497999999999,-1.1783496
69242833254287,-1.8753004,8.947792999999999,-1.1951148999999999
69242853106436,-1.8944606,9.019644,-1.1615845
69242872962693,-1.8537452,8.993299,-1.1687696
69242892818822,-1.8058448,8.986114,-1.2094848999999999
69242912675079,-1.8010547,8.978928999999999,-1.2070899
69242932531208,-1.8274,8.947792999999999,-1.1927198
69242952386675,-1.8776953999999997,8.990903999999999,-1.1591895
69242972242804,-1.8824854,9.002879,-1.1448194
69242992099061,-1.8489552,8.990903999999999,-1.1759547
69243011955190,-1.829795,8.986114,-1.2022998
69243031810079,-1.8226098999999998,8.990903999999999,-1.1879296999999998
69243051666336,-1.8537452,9.012459,-1.1496094
69243071522465,-1.8824854,9.043594,-1.1615845
69243091378594,-1.8848804,9.0891,-1.1663746000000002
69243111234851,-1.8609301999999999,9.115445,-1.1567944
69243131090956,-1.8489552,9.137,-1.1567944
69243150939649,-1.8657203000000002,9.09868,-1.1855347
69243170795778,-1.8920655,9.08431,-1.1615845
69243190651779,-1.8609301999999999,9.031619000000001,-1.1424243
69243210507780,-1.8345851000000002,9.017249000000001,-1.1807446000000001
69243230363781,-1.8489552,9.0891,-1.1999048
69243250215734,-1.8633252,9.108259,-1.1855347
69243270071607,-1.8896705000000003,9.182506,-1.2118799999999998
69243289927480,-1.9016455,9.2328005,-1.2118799999999998
69243309783353,-1.9040406000000003,9.204061,-1.1903248
69243329639354,-1.9088306000000002,9.163345,-1.1807446000000001
69243349495227,-1.8681153000000001,9.153765,-1.1807446000000001
69243369345780,-1.8106349,9.168135000000001,-1.1663746000000002
69243389201653,-1.8010547,9.19448,-1.1927198
69243409057398,-1.8417700000000001,9.239985,-1.1951148999999999
69243428913143,-1.8968556,9.263936,-1.2070899
69243448772722,-1.9471509999999999,9.283096,-1.1903248
69243468628595,-1.9232006999999998,9.271121,-1.1927198
69243488484340,-1.8848804,9.287886,-1.1903248
69243508340213,-1.8872755,9.275911,-1.1855347
69243528195958,-1.8992506000000002,9.244776,-1.1855347
69243548056365,-1.9184108,9.263936,-1.22625
69243567912366,-1.9567311,9.316627,-1.22146
69243587768239,-1.9471509999999999,9.352551,-1.2070899
69243607624090,-1.9255958,9.378897,-1.2046948999999998
69243627479963,-1.9471509999999999,9.400452,-1.1807446000000001
69243647335836,-1.9734962,9.378897,-1.1783496
69243667190935,-1.9447558999999996,9.376502,-1.1999048
69243687046808,-1.9375708999999999,9.369317,-1.2070899
69243706902553,-1.9399658,9.366921000000001,-1.1927198
69243726758426,-1.9423609,9.371711999999999,-1.1783496
69243746614549,-1.9375708999999999,9.400452,-1.2046948999999998
69243766470422,-1.9399658,9.426797,-1.2118799999999998
69243786326167,-1.9423609,9.4435625,-1.223855
69243806182040,-1.9471509999999999,9.436378,-1.2166698999999999
69243826037913,-1.9327808999999998,9.426797,-1.1975098
69243845895438,-1.9375708999999999,9.429193,-1.1783496
69243865751311,-1.9639161,9.433982,-1.2334352
69243885607184,-1.9351758999999997,9.412427000000001,-1.2933106
69243905463057,-1.9184108,9.438772,-1.2669654
69243925318930,-1.9208057,9.472302,-1.2406201000000001
69243945174803,-1.9351758999999997,9.4435625,-1.2310401000000002
69243965031736,-1.9734962,9.417216999999999,-1.1951148999999999
69243984887609,-1.9375708999999999,9.433982,-1.1663746000000002
69244004743482,-1.9160157,9.486672,-1.1879296999999998
69244024599355,-1.9016455,9.517808,-1.1663746000000002
69244044464870,-1.9112256999999997,9.515413,-1.1711646
69244064320871,-1.951941,9.474698,-1.2334352
69244084176978,-1.9902613,9.445957,-1.2046948999999998
69244104033107,-1.9639161,9.412427000000001,-1.1615845
69244123889236,-1.9160157,9.424402,-1.2166698999999999
69244143745365,-1.9447558999999996,9.407638,-1.223855
69244163605378,-1.951941,9.436378,-1.2022998
69244183461635,-1.9615209999999998,9.467513,-1.22146
69244203317892,-1.9902613,9.493857,-1.1999048
69244223174149,-1.9663111,9.501043,-1.1903248
69244243030406,-1.9830762,9.517808,-1.1543995
69244262883689,-1.9687061000000001,9.493857,-1.1615845
69244282739818,-1.954336,9.498648,-1.1663746000000002
69244302596075,-1.9327808999999998,9.501043,-1.1663746000000002
69244322452204,-1.9232006999999998,9.503438000000001,-1.1783496
69244342304797,-1.9351758999999997,9.493857,-1.1879296999999998
69244362160926,-1.9423609,9.472302,-1.1639795
69244382017183,-1.9567311,9.469908,-1.1424243
69244401873312,-1.9663111,9.477093,-1.1400293
69244421729441,-1.951941,9.474698,-1.1783496
69244441585570,-1.954336,9.465117,-1.2118799999999998
69244461445893,-1.9663111,9.462723,-1.223855
69244481302150,-1.9639161,9.472302,-1.1783496
69244501158407,-1.9639161,9.515413,-1.1424243
69244521014536,-1.9423609,9.505833,-1.1807446000000001
69244540870793,-1.949546,9.522598,-1.2094848999999999
69244560730716,-1.954336,9.522598,-1.1927198
69244580586973,-1.9734962,9.498648,-1.2118799999999998
69244600443358,-1.9639161,9.429193,-1.214275
69244620299615,-1.9184108,9.438772,-1.2094848999999999
69244640156866,-1.8489552,9.462723,-1.1879296999999998
69244660013251,-1.8729054,9.493857,-1.1783496
69244679869636,-1.9232006999999998,9.510622999999999,-1.1807446000000001
69244699726021,-1.9687061000000001,9.510622999999999,-1.214275
69244719582278,-1.9711011999999999,9.501043,-1.22625
69244739438663,-1.9423609,9.486672,-1.1951148999999999
69244759300394,-1.9160157,9.453142,-1.2310401000000002
69244779156779,-1.9232006999999998,9.460327000000001,-1.2717555
69244799013164,-1.9687061000000001,9.465117,-1.2334352
69244818869677,-1.9663111,9.474698,-1.2358301999999999
69244838726062,-1.9567311,9.496253,-1.2358301999999999
69244858586253,-1.9399658,9.524992999999998,-1.2286451
69244878442766,-1.954336,9.536968,-1.214275
69244898299279,-1.9615209999999998,9.508227999999999,-1.1903248
69244918155792,-1.9663111,9.491463000000001,-1.1543995
69244938012305,-1.9591261000000002,9.474698,-1.1735597
69244957868818,-1.9208057,9.467513,-1.2310401000000002
69244977717035,-1.9040406000000003,9.433982,-1.2478052
69244997573420,-1.9232006999999998,9.422008,-1.2406201000000001
69245017429677,-1.9567311,9.417216999999999,-1.1687696
69245037286039,-1.951941,9.472302,-1.1232642
69245057146818,-1.9471509999999999,9.486672,-1.1927198
69245077003203,-1.9615209999999998,9.510622999999999,-1.2382251
69245096859716,-1.9639161,9.510622999999999,-1.2166698999999999
69245116716101,-1.9806811999999998,9.489068,-1.1831397
69245136572486,-1.9926563999999998,9.493857,-1.1615845
69245156419959,-1.9830762,9.486672,-1.1472143999999997
69245176276216,-1.951941,9.465117,-1.1783496
69245196132473,-1.9567311,9.517808,-1.2286451
69245215988858,-1.949546,9.472302,-1.2525953
69245235845115,-1.9950514,9.4507475,-1.2046948999999998
69245255701500,-1.9734962,9.419611999999999,-1.1807446000000001
69245275549657,-1.9327808999999998,9.469908,-1.1879296999999998
69245295405786,-1.9255958,9.486672,-1.1735597
69245315261915,-1.9615209999999998,9.529783,-1.2094848999999999
69245335118044,-2.0070264,9.529783,-1.1927198
69245354964617,-2.0118165,9.520203,-1.1663746000000002
69245374820490,-1.9854711999999999,9.510622999999999,-1.1663746000000002
69245394676491,-1.951941,9.474698,-1.1903248
69245414532364,-1.9255958,9.436378,-1.2286451
69245434388365,-1.9327808999999998,9.417216999999999,-1.2573853000000002
69245454244024,-1.9734962,9.453142,-1.2382251
69245474099897,-1.9974464,9.491463000000001,-1.2166698999999999
69245493955770,-1.9974464,9.503438000000001,-1.22625
69245513811750,-1.9663111,9.489068,-1.2406201000000001
69245533667623,-1.954336,9.474698,-1.2430152
69245553523496,-1.9854711999999999,9.462723,-1.22625
69245573375053,-1.9902613,9.433982,-1.22146
69245593230798,-1.9806811999999998,9.522598,-1.2286451
69245613086543,-1.9878663,9.594449000000001,-1.2382251
69245632942288,-1.9447558999999996,9.544153,-1.2813355
69245652798387,-1.9471509999999999,9.510622999999999,-1.2981006000000002
69245672654132,-1.954336,9.460327000000001,-1.2502003000000002
69245692510005,-1.9663111,9.474698,-1.1927198
69245712365750,-1.949546,9.453142,-1.1831397
69245732221623,-1.9615209999999998,9.419611999999999,-1.2549903
69245752077368,-2.0261867,9.465117,-1.3004956
69245771933063,-1.9878663,9.465117,-1.2741505
69245791788808,-1.9208057,9.407638,-1.22625
69245811644553,-1.9208057,9.467513,-1.219065
69245831500298,-1.9567311,9.496253,-1.2358301999999999
69245851356171,-2.0142113999999998,9.467513,-1.2286451
69245871205170,-2.0213966,9.489068,-1.2406201000000001
69245891060787,-1.9878663,9.493857,-1.1951148999999999
69245910916404,-1.9423609,9.517808,-1.1879296999999998
69245930772021,-1.9160157,9.517808,-1.22146
69245950628704,-1.9160157,9.474698,-1.2454101999999998
69245970484193,-1.9663111,9.426797,-1.2430152
69245990339660,-2.0094216,9.4507475,-1.223855
69246010195149,-2.0142113999999998,9.467513,-1.214275
69246030050766,-1.9878663,9.467513,-1.2334352
69246049906255,-1.9782863000000002,9.429193,-1.2502003000000002
69246069762872,-1.9974464,9.433982,-1.2430152
69246089618361,-1.9974464,9.426797,-1.223855
69246109473850,-1.9854711999999999,9.448353,-1.223855
69246129329467,-2.0190015,9.484278,-1.2406201000000001
69246149184956,-2.0357666,9.532178,-1.2454101999999998
69246169042213,-2.0190015,9.5561285,-1.2406201000000001
69246188897702,-1.9902613,9.580078,-1.219065
69246208753319,-1.9639161,9.541758999999999,-1.22625
69246228608808,-1.9687061000000001,9.508227999999999,-1.2406201000000001
69246248471185,-1.9615209999999998,9.460327000000001,-1.2070899
69246268326930,-1.9711011999999999,9.417216999999999,-1.1711646
69246288182547,-1.9782863000000002,9.376502,-1.1735597
69246308038292,-1.9375708999999999,9.383687,-1.2358301999999999
69246327893909,-1.9351758999999997,9.412427000000001,-1.2789403999999998
69246347749526,-1.9399658,9.445957,-1.2478052
69246367610929,-1.9782863000000002,9.472302,-1.2286451
69246387466802,-2.0190015,9.501043,-1.214275
69246407322675,-2.0022363999999997,9.517808,-1.1855347
69246427178420,-1.9687061000000001,9.539363,-1.1927198
69246447034293,-1.951941,9.534574000000001,-1.219065
69246466892192,-1.9711011999999999,9.493857,-1.2382251
69246486748193,-1.9830762,9.465117,-1.2382251
69246506604194,-1.9591261000000002,9.472302,-1.2430152
69246526460067,-1.9663111,9.513017999999999,-1.2166698999999999
69246546316068,-1.9711011999999999,9.479486999999999,-1.223855
69246566172069,-1.9830762,9.445957,-1.2525953
69246586037792,-2.0070264,9.429193,-1.22625
69246605893921,-2.0046315,9.410032000000001,-1.214275
69246625750050,-1.9854711999999999,9.410032000000001,-1.2166698999999999
69246645606307,-1.954336,9.431587,-1.2669654
69246665464314,-1.9615209999999998,9.460327000000001,-1.3052857
69246685320571,-2.0213966,9.527389,-1.2861254999999998
69246705176828,-2.0381618,9.541758999999999,-1.2645704
69246725033213,-2.0190015,9.546548,-1.2430152
69246744889470,-2.0118165,9.524992999999998,-1.1951148999999999
69246764748573,-1.9998415,9.498648,-1.223855
69246784604958,-2.0213966,9.460327000000001,-1.2454101999999998
69246804461215,-2.0237916,9.438772,-1.2525953
69246824317600,-1.9830762,9.426797,-1.223855
69246844173985,-1.9687061000000001,9.407638,-1.2430152
69246864030242,-1.9639161,9.412427000000001,-1.2693603999999998
69246883880343,-1.9711011999999999,9.436378,-1.2573853000000002
69246903736600,-1.9902613,9.448353,-1.2502003000000002
69246923592857,-2.0046315,9.462723,-1.223855
69246943448964,-2.0094216,9.486672,-1.2046948999999998
69246963292397,-2.0237916,9.501043,-1.1951148999999999
69246983148270,-2.0022363999999997,9.527389,-1.22146
69247003004143,-1.9854711999999999,9.508227999999999,-1.2478052
69247022860144,-1.9830762,9.484278,-1.2669654
69247042716017,-2.0070264,9.491463000000001,-1.2573853000000002
69247062565538,-2.0070264,9.474698,-1.2502003000000002
69247082421411,-2.0142113999999998,9.438772,-1.2310401000000002
69247102277284,-2.0142113999999998,9.424402,-1.2621753
69247122133029,-1.954336,9.426797,-1.2382251
69247141988902,-1.9423609,9.481883,-1.2358301999999999
69247161844775,-1.9854711999999999,9.520203,-1.2286451
69247181697620,-2.0142113999999998,9.522598,-1.2573853000000002
69247201553493,-2.0237916,9.520203,-1.2597803
69247221409238,-2.0285816000000003,9.498648,-1.2334352
69247241264983,-2.0261867,9.513017999999999,-1.223855
69247261121492,-1.9830762,9.501043,-1.2741505
69247280977237,-1.9830762,9.441168,-1.3268408999999999
69247300832982,-2.0070264,9.424402,-1.2957056999999998
69247320688727,-1.9950514,9.369317,-1.2358301999999999
69247340544472,-1.9758912,9.369317,-1.1999048
69247360400217,-1.9878663,9.390872,-1.2430152
69247380251374,-1.9854711999999999,9.374106,-1.3148658000000002
69247400106991,-2.0142113999999998,9.4435625,-1.3028906999999998
69247419962714,-2.0525317,9.496253,-1.2406201000000001
69247439818331,-2.047742,9.544153,-1.2070899
69247459673948,-2.0381618,9.5561285,-1.2310401000000002
69247479522963,-1.9998415,9.5633135,-1.2621753
69247499378324,-1.9998415,9.546548,-1.2597803
69247519233813,-2.0070264,9.498648,-1.2502003000000002
69247539089302,-2.0094216,9.465117,-1.2406201000000001
69247558946297,-1.9830762,9.429193,-1.2406201000000001
69247578801786,-1.9782863000000002,9.383687,-1.2621753
69247598657275,-1.9615209999999998,9.400452,-1.2813355
69247618512764,-1.9782863000000002,9.386082,-1.2382251
69247638368253,-1.9902613,9.419611999999999,-1.223855
69247658223742,-1.9926563999999998,9.477093,-1.2502003000000002
69247678081193,-1.9926563999999998,9.501043,-1.2957056999999998
69247697936682,-2.0142113999999998,9.486672,-1.2525953
69247717792171,-2.0094216,9.517808,-1.2310401000000002
69247737647660,-1.9974464,9.5633135,-1.219065
69247757503021,-1.9926563999999998,9.560919,-1.22146
69247777364050,-1.9950514,9.539363,-1.2741505
69247797219539,-2.0237916,9.503438000000001,-1.2645704
69247817075156,-2.0094216,9.4435625,-1.2358301999999999
69247836930645,-1.9734962,9.393267,-1.2310401000000002
69247856787640,-1.9423609,9.393267,-1.2741505
69247876643129,-1.9471509999999999,9.388477,-1.3028906999999998
69247896498726,-1.9806811999999998,9.417216999999999,-1.3028906999999998
69247916354343,-2.0213966,9.4435625,-1.3052857
69247936209960,-2.0549269,9.484278,-1.2813355
69247956065577,-2.0309765,9.510622999999999,-1.2454101999999998
69247975923486,-2.0142113999999998,9.491463000000001,-1.2669654
69247995779103,-2.0213966,9.515413,-1.2789403999999998
69248015634720,-2.0405567,9.534574000000001,-1.2621753
69248035490465,-2.0213966,9.501043,-1.2813355
69248055346082,-1.9926563999999998,9.508227999999999,-1.2933106
69248075194479,-1.9806811999999998,9.477093,-1.3268408999999999
69248095049968,-1.9711011999999999,9.472302,-1.3076807
69248114905457,-1.9854711999999999,9.441168,-1.2573853000000002
69248134760818,-2.0142113999999998,9.433982,-1.2502003000000002
69248154616307,-1.9950514,9.407638,-1.2885206
69248174471796,-1.9926563999999998,9.407638,-1.3220508
69248194332519,-1.9950514,9.390872,-1.3436059999999999
69248214188264,-1.9902613,9.402847,-1.3100758
69248234043881,-2.0046315,9.462723,-1.2621753
69248253899498,-2.0142113999999998,9.520203,-1.2645704
69248273756883,-2.0213966,9.594449000000001,-1.2885206
69248293612628,-2.047742,9.577683,-1.2885206
69248313468245,-2.0237916,9.510622999999999,-1.3388159
69248333323990,-2.0213966,9.489068,-1.2765454
69248353179607,-1.9902613,9.472302,-1.2454101999999998
69248373043998,-1.9998415,9.481883,-1.2573853000000002
69248392899999,-2.0118165,9.462723,-1.3100758
69248412755872,-1.9998415,9.419611999999999,-1.3771361999999998
69248432611873,-2.0118165,9.424402,-1.3531861
69248452467746,-2.0118165,9.402847,-1.2645704
69248472323747,-2.0070264,9.381292,-1.2525953
69248492182162,-2.0166066000000002,9.374106,-1.2813355
69248512038163,-2.0142113999999998,9.424402,-1.3507911
69248531894164,-2.0261867,9.453142,-1.3531861
69248551750165,-2.0405567,9.493857,-1.2789403999999998
69248571604544,-2.0309765,9.477093,-1.2549903
69248591460545,-2.047742,9.501043,-1.2621753
69248611316418,-2.0333717,9.515413,-1.2741505
69248631172419,-2.0022363999999997,9.541758999999999,-1.2981006000000002
69248651028292,-2.0213966,9.527389,-1.2885206
69248670884293,-2.0405567,9.493857,-1.2981006000000002
69248690736886,-2.0381618,9.436378,-1.2909156000000002
69248710592759,-2.0213966,9.412427000000001,-1.2861254999999998
69248730448632,-1.9854711999999999,9.378897,-1.2861254999999998
69248750304377,-2.0046315,9.359736,-1.3004956
69248770160250,-2.0333717,9.410032000000001,-1.3172607
69248790024681,-2.0333717,9.424402,-1.3100758
69248809880810,-1.9974464,9.422008,-1.2693603999999998
69248829736811,-2.0046315,9.479486999999999,-1.2741505
69248849592790,-2.0261867,9.529783,-1.3052857
69248869446939,-2.047742,9.493857,-1.2981006000000002
69248889302940,-2.0621118999999997,9.484278,-1.2861254999999998
69248909158941,-2.0309765,9.491463000000001,-1.2597803
69248929014942,-2.0046315,9.510622999999999,-1.2693603999999998
69248948870943,-1.9806811999999998,9.501043,-1.2885206
69248968727072,-2.0118165,9.479486999999999,-1.2933106
69248988579171,-2.047742,9.455538,-1.2621753
69249008435044,-2.0357666,9.426797,-1.2693603999999998
69249028291045,-2.0022363999999997,9.400452,-1.3052857
69249048146918,-2.0070264,9.407638,-1.3148658000000002
69249068002919,-2.0022363999999997,9.400452,-1.3148658000000002
69249087850710,-2.0190015,9.419611999999999,-1.3220508
69249107706455,-2.0429518,9.4435625,-1.3100758
69249127562200,-2.0453467,9.491463000000001,-1.3004956
69249147417945,-2.0381618,9.510622999999999,-1.2573853000000002
69249167269192,-2.0357666,9.496253,-1.2669654
69249187124937,-2.047742,9.489068,-1.2957056999999998
69249206980554,-2.0381618,9.505833,-1.3052857
69249226836171,-2.0285816000000003,9.501043,-1.334026
69249246691788,-2.0142113999999998,9.479486999999999,-1.3220508
69249266547533,-2.0118165,9.441168,-1.2885206
69249286401980,-2.0213966,9.433982,-1.3028906999999998
69249306257597,-2.0118165,9.441168,-1.3028906999999998
69249326113192,-1.9926563999999998,9.4435625,-1.3052857
69249345968809,-2.0166066000000002,9.4507475,-1.3124708
69249365824426,-2.0453467,9.481883,-1.3196558
69249385677849,-2.0237916,9.465117,-1.3244458000000001
69249405533466,-1.9687061000000001,9.417216999999999,-1.3076807
69249425389083,-1.9830762,9.436378,-1.2909156000000002
69249445244700,-2.0261867,9.477093,-1.3124708
69249465100317,-2.047742,9.465117,-1.3220508
69249484956062,-2.0429518,9.472302,-1.3220508
69249504813709,-1.9854711999999999,9.489068,-1.3172607
69249524669326,-1.9687061000000001,9.493857,-1.2981006000000002
69249544524943,-1.9806811999999998,9.496253,-1.2645704
69249564380560,-2.0261867,9.465117,-1.2957056999999998
69249584230971,-2.0501368,9.462723,-1.3483961000000002
69249604086588,-2.0549269,9.433982,-1.3220508
69249623942077,-2.0190015,9.448353,-1.2981006000000002
69249643797694,-1.9926563999999998,9.4435625,-1.2693603999999998
69249663653183,-2.0357666,9.429193,-1.2885206
69249683503310,-2.0285816000000003,9.424402,-1.3148658000000002
69249703358671,-2.0190015,9.465117,-1.346001
69249723214032,-2.0309765,9.493857,-1.3196558
69249743069393,-2.0381618,9.503438000000001,-1.2885206
69249762924754,-2.059717,9.486672,-1.2525953
69249782780115,-2.0621118999999997,9.455538,-1.2573853000000002
69249802639770,-2.0309765,9.448353,-1.2765454
69249822495131,-2.0142113999999998,9.462723,-1.2933106
69249842350620,-1.9974464,9.467513,-1.3004956
69249862205981,-2.0261867,9.479486999999999,-1.3028906999999998
69249882061452,-2.0860621999999998,9.460327000000001,-1.3268408999999999
69249901916813,-2.1435425,9.436378,-1.2909156000000002
69249921772174,-2.0621118999999997,9.412427000000001,-1.2478052
69249941627663,-1.9830762,9.422008,-1.2382251
69249961483024,-2.0501368,9.4435625,-1.2909156000000002
69249981346297,-2.0285816000000003,9.419611999999999,-1.3436059999999999
69250001201914,-1.9758912,9.410032000000001,-1.2717555
69250021057403,-1.9591261000000002,9.524992999999998,-1.2789403999999998
69250040913020,-1.9974464,9.527389,-1.2957056999999998
69250060768509,-2.0573218,9.481883,-1.2861254999999998
69250080623998,-2.0669020000000002,9.448353,-1.2933106
69250100478389,-2.0261867,9.448353,-1.2358301999999999
69250120334006,-2.0094216,9.481883,-1.2022998
69250140189495,-1.9998415,9.479486999999999,-1.2765454
69250160044984,-2.0022363999999997,9.472302,-1.3292358999999998
69250179900689,-1.9878663,9.429193,-1.2885206
69250199756306,-1.9926563999999998,9.431587,-1.2502003000000002
69250219611795,-1.9878663,9.436378,-1.2813355
69250239467412,-1.9950514,9.426797,-1.3052857
69250259322901,-2.0118165,9.441168,-1.2909156000000002
69250279178368,-2.0405567,9.474698,-1.2909156000000002
69250299040657,-2.0405567,9.486672,-1.2981006000000002
69250318896274,-1.9878663,9.493857,-1.3268408999999999
69250338751891,-1.9854711999999999,9.498648,-1.3100758
69250358607636,-2.0333717,9.489068,-1.2765454
69250378463253,-2.0549269,9.493857,-1.2693603999999998
69250398327342,-2.064507,9.467513,-1.3076807
69250418183215,-2.059717,9.4435625,-1.3196558
69250438039216,-2.0237916,9.441168,-1.3292358999999998
69250457895089,-2.0190015,9.436378,-1.3220508
69250477756252,-2.0261867,9.441168,-1.3268408999999999
69250497612253,-2.0429518,9.445957,-1.3412110000000002
69250517468254,-2.0573218,9.4435625,-1.3100758
69250537324383,-2.0549269,9.467513,-1.2861254999999998
69250557180384,-2.047742,9.472302,-1.3124708
69250577036385,-2.0237916,9.4435625,-1.331631
69250596892690,-2.0333717,9.436378,-1.3124708
69250616748691,-2.0166066000000002,9.472302,-1.2957056999999998
69250636604820,-2.0333717,9.4507475,-1.3124708
69250656460949,-2.0285816000000003,9.438772,-1.3220508
69250676317078,-2.0190015,9.438772,-1.3196558
69250696172099,-2.0285816000000003,9.472302,-1.3292358999999998
69250716028100,-2.0357666,9.477093,-1.3100758
69250735884229,-2.0166066000000002,9.467513,-1.2861254999999998
69250755740338,-2.0285816000000003,9.455538,-1.3100758
69250775598045,-2.0309765,9.460327000000001,-1.3172607
69250795454046,-2.0213966,9.486672,-1.3100758
69250815310175,-2.0166066000000002,9.479486999999999,-1.3507911
69250835166304,-2.0166066000000002,9.448353,-1.3675561999999999
69250855022433,-2.0357666,9.433982,-1.3364209999999999
69250874878562,-2.0333717,9.433982,-1.3148658000000002
69250894728199,-2.0333717,9.412427000000001,-1.346001
69250914584200,-2.047742,9.424402,-1.3244458000000001
69250934440201,-2.0549269,9.441168,-1.3172607
69250954296202,-2.0669020000000002,9.515413,-1.2861254999999998
69250974152203,-2.0573218,9.513017999999999,-1.3196558
69250994000136,-2.0501368,9.522598,-1.3507911
69251013855881,-2.0429518,9.496253,-1.3627661
69251033711754,-2.0309765,9.493857,-1.3268408999999999
69251053567627,-2.0190015,9.457932000000001,-1.2837305
69251073423372,-2.0070264,9.398057000000001,-1.3028906999999998
69251093279245,-2.0309765,9.381292,-1.334026
69251113133940,-2.0333717,9.417216999999999,-1.3172607
69251132989813,-2.0070264,9.400452,-1.346001
69251152845558,-2.0261867,9.412427000000001,-1.3651612
69251172701431,-2.0285816000000003,9.426797,-1.3531861
69251192553574,-2.0237916,9.455538,-1.3100758
69251212409319,-2.0501368,9.510622999999999,-1.2573853000000002
69251232265043,-2.064507,9.520203,-1.3124708
69251252120660,-2.0549269,9.510622999999999,-1.3603711
69251271976405,-2.0285816000000003,9.472302,-1.3891114
69251291829066,-2.0046315,9.491463000000001,-1.3292358999999998
69251311684683,-2.0190015,9.465117,-1.2789403999999998
69251331540300,-2.0261867,9.422008,-1.2765454
69251351395789,-2.0405567,9.400452,-1.3100758
69251371251406,-2.0453467,9.410032000000001,-1.331631
69251391107023,-2.0621118999999997,9.410032000000001,-1.3172607
69251410961202,-2.0237916,9.448353,-1.3172607
69251430816819,-1.9902613,9.441168,-1.3220508
69251450672436,-2.0381618,9.453142,-1.2957056999999998
69251470527925,-2.0573218,9.469908,-1.2957056999999998
69251490383322,-2.0573218,9.477093,-1.2885206
69251510238811,-2.0309765,9.498648,-1.2525953
69251530094300,-2.0166066000000002,9.513017999999999,-1.2597803
69251549949917,-2.0166066000000002,9.489068,-1.2885206
69251569805406,-2.0309765,9.486672,-1.3124708
69251589659145,-2.069297,9.501043,-1.2981006000000002
69251609514762,-2.047742,9.481883,-1.2861254999999998
69251629370251,-2.0429518,9.469908,-1.2861254999999998
69251649225740,-2.0429518,9.4435625,-1.2765454
69251669081357,-2.0142113999999998,9.407638,-1.3004956
69251688936846,-2.0261867,9.417216999999999,-1.2885206
69251708786341,-2.0309765,9.412427000000001,-1.2885206
69251728641702,-2.0357666,9.431587,-1.3196558
69251748497063,-2.0453467,9.4435625,-1.3148658000000002
69251768352424,-2.0429518,9.455538,-1.3100758
69251788213235,-2.0669020000000002,9.486672,-1.2693603999999998
69251808068596,-2.0357666,9.462723,-1.2693603999999998
69251827923957,-2.0213966,9.479486999999999,-1.2717555
69251847779446,-2.0237916,9.513017999999999,-1.3412110000000002
69251867634807,-2.0213966,9.489068,-1.3651612
69251887490168,-2.0429518,9.438772,-1.331631
69251907349921,-2.0190015,9.429193,-1.3076807
69251927205410,-1.9926563999999998,9.445957,-1.2909156000000002
69251947060899,-1.9926563999999998,9.445957,-1.2813355
69251966916388,-2.0022363999999997,9.405242,-1.2933106
69251986771877,-2.0285816000000003,9.431587,-1.3052857
69252006630932,-2.0309765,9.465117,-1.3196558
69252026486549,-2.0261867,9.496253,-1.3388159
69252046342038,-2.0142113999999998,9.510622999999999,-1.3364209999999999
69252066197655,-2.0142113999999998,9.481883,-1.3388159
69252086056776,-2.047742,9.4435625,-1.3388159
69252105912393,-2.0621118999999997,9.426797,-1.3483961000000002
69252125768138,-2.0453467,9.433982,-1.3531861
69252145623755,-2.0118165,9.445957,-1.3555812
69252165479500,-2.0357666,9.457932000000001,-1.3436059999999999
69252185335224,-2.059717,9.448353,-1.3436059999999999
69252205192035,-2.0573218,9.436378,-1.2933106
69252225047780,-2.0501368,9.422008,-1.2957056999999998
69252244903525,-2.0142113999999998,9.429193,-1.3196558
69252264759270,-1.9734962,9.429193,-1.3483961000000002
69252284614887,-1.9902613,9.4507475,-1.3292358999999998
69252304478934,-2.0190015,9.455538,-1.3028906999999998
69252324334807,-2.0381618,9.474698,-1.2909156000000002
69252344190680,-2.0429518,9.484278,-1.3052857
69252364046681,-2.0549269,9.491463000000001,-1.3220508
69252383902554,-2.0453467,9.457932000000001,-1.2981006000000002
69252403758427,-2.0501368,9.448353,-1.2933106
69252423616006,-2.0429518,9.462723,-1.2861254999999998
69252443472007,-2.0022363999999997,9.431587,-1.2861254999999998
69252463328008,-2.0094216,9.4507475,-1.3052857
69252483184009,-2.0405567,9.489068,-1.3196558
69252503040626,-2.0621118999999997,9.467513,-1.3124708
69252522896627,-2.076482,9.453142,-1.2693603999999998
69252542752628,-2.0381618,9.455538,-1.2741505
69252562608629,-1.9926563999999998,9.472302,-1.3172607
69252582464630,-2.0046315,9.479486999999999,-1.3076807
69252602316995,-2.0333717,9.4435625,-1.2933106
69252622172996,-2.078877,9.412427000000001,-1.2765454
69252642028869,-2.0525317,9.374106,-1.2358301999999999
69252661884849,-2.0094216,9.359736,-1.2693603999999998
69252681740722,-2.0190015,9.395662,-1.3052857
69252701596723,-2.0237916,9.412427000000001,-1.3196558
69252721451790,-2.0525317,9.433982,-1.3268408999999999
69252741307791,-2.1004322,9.477093,-1.2957056999999998
69252761163664,-2.0812721,9.481883,-1.2813355
69252781019537,-2.0621118999999997,9.474698,-1.2741505
69252800877946,-2.0549269,9.465117,-1.2621753
69252820733947,-2.074087,9.477093,-1.2669654
69252840589948,-2.0549269,9.501043,-1.2789403999999998
69252860445949,-2.0309765,9.489068,-1.2837305
69252880301950,-2.0070264,9.462723,-1.2981006000000002
69252900157951,-2.0237916,9.448353,-1.3100758
69252920009460,-2.0453467,9.426797,-1.3028906999999998
69252939865333,-2.0525317,9.417216999999999,-1.2621753
69252959721206,-2.0549269,9.412427000000001,-1.2573853000000002
69252979577207,-2.0429518,9.438772,-1.2957056999999998
69252999433080,-2.0429518,9.460327000000001,-1.3244458000000001
69253019280087,-2.0213966,9.455538,-1.3196558
69253039135831,-2.0213966,9.474698,-1.3172607
69253058991576,-2.0453467,9.481883,-1.3124708
69253078847319,-2.0357666,9.467513,-1.2933106
69253098696121,-2.0621118999999997,9.493857,-1.2909156000000002
69253118551738,-2.090852,9.503438000000001,-1.3244458000000001
69253138407353,-2.064507,9.460327000000001,-1.3531861
69253158262969,-2.059717,9.441168,-1.3603711
69253178118586,-2.0381618,9.422008,-1.346001
69253197974073,-2.0094216,9.410032000000001,-1.3292358999999998
69253217823649,-2.0190015,9.422008,-1.3172607
69253237679010,-2.0501368,9.429193,-1.3196558
69253257534497,-2.064507,9.419611999999999,-1.334026
69253277389857,-2.0669020000000002,9.445957,-1.346001
69253297245346,-2.0453467,9.465117,-1.3507911
69253317094221,-2.0261867,9.472302,-1.3555812
69253336949453,-2.0190015,9.474698,-1.3555812
69253356804686,-2.0453467,9.484278,-1.3507911
69253376659917,-2.074087,9.465117,-1.3531861
69253396507860,-2.074087,9.469908,-1.3627661
69253416362965,-2.047742,9.457932000000001,-1.3651612
69253436218068,-2.0285816000000003,9.457932000000001,-1.3412110000000002
69253456073172,-2.0309765,9.429193,-1.3388159
69253475928277,-2.0405567,9.414823,-1.3531861
69253495783380,-2.0309765,9.400452,-1.3507911
69253515644133,-2.0118165,9.402847,-1.3364209999999999
69253535499238,-2.0070264,9.378897,-1.3867163999999998
69253555354469,-2.0333717,9.398057000000001,-1.3531861
69253575209573,-2.0669020000000002,9.414823,-1.3292358999999998
69253595064806,-2.076482,9.498648,-1.3388159
69253614915407,-2.059717,9.582474000000001,-1.3507911
69253634770512,-2.0501368,9.596844,-1.3891114
69253654625489,-2.047742,9.541758999999999,-1.3915064
69253674480589,-2.0621118999999997,9.472302,-1.3436059999999999
69253694334340,-2.0381618,9.4507475,-1.2885206
69253714189317,-2.0166066000000002,9.390872,-1.3052857
69253734044292,-2.0237916,9.369317,-1.3531861
69253753899396,-2.0357666,9.390872,-1.4178516
69253773754373,-2.0405567,9.412427000000001,-1.3962965
69253793609348,-2.0573218,9.381292,-1.334026
69253813470712,-2.0621118999999997,9.422008,-1.3124708
69253833325689,-2.0621118999999997,9.457932000000001,-1.3292358999999998
69253853180792,-2.0381618,9.489068,-1.3292358999999998
69253873035896,-2.0453467,9.520203,-1.334026
69253892890873,-2.0860621999999998,9.522598,-1.3436059999999999
69253912747445,-2.095642,9.491463000000001,-1.3220508
69253932602549,-2.074087,9.489068,-1.3244458000000001
69253952457654,-2.0142113999999998,9.4507475,-1.3962965
69253972312885,-2.0357666,9.417216999999999,-1.3843212999999999
69253992167989,-2.0860621999999998,9.386082,-1.3507911
69254012023094,-2.0980372000000003,9.386082,-1.3651612
69254031889412,-2.0860621999999998,9.378897,-1.346001
69254051744644,-2.064507,9.381292,-1.3603711
69254071600005,-2.0190015,9.386082,-1.3651612
69254091455364,-2.0285816000000003,9.426797,-1.3531861
69254111312049,-2.0357666,9.438772,-1.3436059999999999
69254131167410,-2.0501368,9.472302,-1.3436059999999999
69254151022771,-2.076482,9.486672,-1.3675561999999999
69254170878132,-2.0716919999999996,9.524992999999998,-1.3915064
69254190733621,-2.064507,9.5489435,-1.334026
69254210594731,-2.0669020000000002,9.532178,-1.3507911
69254230450347,-2.0549269,9.524992999999998,-1.3436059999999999
69254250305836,-2.0453467,9.484278,-1.3483961000000002
69254270161323,-2.0453467,9.438772,-1.3531861
69254290015526,-2.0429518,9.366921000000001,-1.3675561999999999
69254309871015,-2.0357666,9.354947,-1.3412110000000002
69254329734558,-2.0046315,9.340575999999999,-1.3507911
69254349590303,-1.9902613,9.335787,-1.3603711
69254369445920,-2.0190015,9.386082,-1.3771361999999998
69254389301665,-2.0669020000000002,9.445957,-1.3867163999999998
69254409159748,-2.078877,9.4507475,-1.3603711
69254429015493,-2.0860621999999998,9.520203,-1.3244458000000001
69254448871366,-2.074087,9.517808,-1.3268408999999999
69254468727239,-2.0381618,9.536968,-1.334026
69254488583112,-2.0405567,9.541758999999999,-1.3148658000000002
69254508442493,-2.0525317,9.522598,-1.334026
69254528298494,-2.064507,9.479486999999999,-1.3627661
69254548154495,-2.0573218,9.438772,-1.3579761000000001
69254568010368,-2.0166066000000002,9.412427000000001,-1.3579761000000001
69254587866369,-1.9782863000000002,9.398057000000001,-1.3412110000000002
69254607722370,-1.9902613,9.381292,-1.3220508
69254627578517,-2.0501368,9.364527,-1.3723463
69254647434518,-2.0573218,9.393267,-1.3507911
69254667290519,-2.0213966,9.433982,-1.3244458000000001
69254687146392,-2.0166066000000002,9.460327000000001,-1.3100758
69254707002721,-2.0405567,9.457932000000001,-1.3436059999999999
69254726858722,-2.0812721,9.472302,-1.3244458000000001
69254746714723,-2.095642,9.491463000000001,-1.3076807
69254766570702,-2.076482,9.517808,-1.2909156000000002
69254786426703,-2.0621118999999997,9.515413,-1.3100758
69254806282704,-2.0453467,9.501043,-1.3436059999999999
69254826137913,-2.047742,9.455538,-1.3507911
69254845993914,-2.0333717,9.438772,-1.3196558
69254865849915,-2.0166066000000002,9.405242,-1.3028906999999998
69254885705916,-2.0237916,9.393267,-1.3292358999999998
69254905561917,-2.0285816000000003,9.378897,-1.346001
69254925418936,-2.0405567,9.412427000000001,-1.3651612
69254945275065,-2.0333717,9.448353,-1.3292358999999998
69254965131066,-2.0237916,9.462723,-1.2693603999999998
69254984987067,-1.9974464,9.436378,-1.2981006000000002
69255004831262,-2.0237916,9.513017999999999,-1.3579761000000001
69255024687007,-2.0142113999999998,9.505833,-1.3555812
69255044542624,-2.0213966,9.484278,-1.3220508
69255064398369,-2.0118165,9.479486999999999,-1.2573853000000002
69255084254114,-1.9950514,9.479486999999999,-1.2789403999999998
69255104109859,-1.9974464,9.505833,-1.3076807
69255123959868,-2.0070264,9.496253,-1.3220508
69255143815613,-2.0309765,9.455538,-1.3268408999999999
69255163671230,-2.059717,9.417216999999999,-1.2957056999999998
69255183526847,-2.0285816000000003,9.398057000000001,-1.2669654
69255203382592,-1.9998415,9.388477,-1.2957056999999998
69255223236319,-1.9782863000000002,9.400452,-1.3388159
69255243091915,-2.0142113999999998,9.426797,-1.3268408999999999
69255262947532,-2.069297,9.481883,-1.3052857
69255282803021,-2.078877,9.498648,-1.3172607
69255302647788,-2.069297,9.486672,-1.3004956
69255322503149,-2.0381618,9.457932000000001,-1.3004956
69255342358382,-2.0405567,9.469908,-1.3076807
69255362213743,-2.0501368,9.431587,-1.3076807
69255382069104,-2.0333717,9.445957,-1.3004956
69255401924337,-2.0285816000000003,9.453142,-1.3028906999999998
69255421780550,-2.0357666,9.457932000000001,-1.3220508
69255441635911,-2.0261867,9.445957,-1.3412110000000002
69255461491272,-2.0429518,9.465117,-1.3244458000000001
69255481346633,-2.059717,9.441168,-1.2933106
69255501201866,-2.076482,9.436378,-1.2813355
69255521055417,-2.0621118999999997,9.448353,-1.2861254999999998
69255540910650,-2.0716919999999996,9.465117,-1.3483961000000002
69255560765883,-2.059717,9.469908,-1.3388159
69255580621116,-2.0405567,9.469908,-1.3388159
69255600476349,-2.0501368,9.472302,-1.3124708
69255620331582,-2.0716919999999996,9.469908,-1.3148658000000002
69255640192441,-2.0621118999999997,9.436378,-1.3268408999999999
69255660047802,-2.0716919999999996,9.426797,-1.331631
69255679903291,-2.069297,9.407638,-1.3412110000000002
69255699758652,-2.0621118999999997,9.410032000000001,-1.2933106
69255719610109,-2.0309765,9.4435625,-1.2645704
69255739465470,-2.0309765,9.453142,-1.2909156000000002
69255759320703,-2.0285816000000003,9.477093,-1.3124708
69255779175936,-2.0094216,9.474698,-1.2957056999999998
69255799031169,-2.0046315,9.496253,-1.2933106
69255818887548,-2.0118165,9.479486999999999,-1.3100758
69255838742781,-2.0357666,9.477093,-1.2693603999999998
69255858598014,-2.0429518,9.441168,-1.3052857
69255878453375,-2.0501368,9.426797,-1.331631
69255898308608,-2.0525317,9.4507475,-1.3004956
69255918163841,-2.0309765,9.460327000000001,-1.334026
69255938022768,-2.0070264,9.441168,-1.3436059999999999
69255957878129,-1.9998415,9.457932000000001,-1.3220508
69255977733490,-2.0309765,9.426797,-1.2789403999999998
69255997588723,-2.064507,9.429193,-1.3172607
69256017443798,-2.0669020000000002,9.457932000000001,-1.3483961000000002
69256037299159,-2.0453467,9.489068,-1.2861254999999998
69256057154520,-2.0166066000000002,9.474698,-1.1999048
69256077009753,-1.9711011999999999,9.460327000000001,-1.2310401000000002
69256096865114,-1.9471509999999999,9.441168,-1.4106666
69256116722115,-1.9758912,9.455538,-1.463357
69256136577348,-2.0549269,9.429193,-1.2693603999999998
69256156432709,-2.0501368,9.412427000000001,-1.1160791
69256176288070,-2.0429518,9.436378,-1.2478052
69256196143408,-1.9950514,9.422008,-1.453777
69256215998769,-1.9615209999999998,9.460327000000001,-1.4082716
69256235860060,-1.951941,9.484278,-1.3052857
69256255715549,-1.9926563999999998,9.429193,-1.2837305
69256275571038,-2.0549269,9.431587,-1.2933106
69256295426527,-2.0381618,9.496253,-1.3388159
69256315281878,-1.9758912,9.524992999999998,-1.3723463
69256335137367,-1.9806811999999998,9.532178,-1.2789403999999998
69256354992984,-2.0022363999999997,9.486672,-1.2430152
69256374848473,-1.9998415,9.467513,-1.3148658000000002
69256394703962,-1.9974464,9.472302,-1.3507911
69256414559451,-2.0309765,9.477093,-1.3388159
69256434426492,-2.0549269,9.465117,-1.3531861
69256454282237,-2.0381618,9.469908,-1.3196558
69256474137982,-2.0453467,9.419611999999999,-1.3196558
69256493993727,-2.0405567,9.376502,-1.3795313
69256513849600,-1.9998415,9.383687,-1.3699511999999998
69256533710813,-1.9782863000000002,9.402847,-1.3555812
69256553566814,-2.0237916,9.424402,-1.3172607
69256573422687,-2.0716919999999996,9.462723,-1.3220508
69256593278688,-2.078877,9.501043,-1.3627661
69256613131989,-2.059717,9.520203,-1.3507911
69256632987862,-2.0118165,9.532178,-1.3555812
69256652843735,-1.9998415,9.517808,-1.3148658000000002
69256672699586,-2.0070264,9.486672,-1.2789403999999998
69256692555587,-1.9974464,9.460327000000001,-1.331631
69256712411460,-1.9878663,9.455538,-1.3268408999999999
69256732269997,-1.9854711999999999,9.400452,-1.3172607
69256752125870,-1.9734962,9.386082,-1.3076807
69256771981871,-1.9711011999999999,9.354947,-1.3268408999999999
69256791837744,-1.9878663,9.378897,-1.3483961000000002
69256811693745,-1.9926563999999998,9.390872,-1.3388159
69256831547594,-1.9974464,9.448353,-1.2909156000000002
69256851403467,-2.0357666,9.498648,-1.3148658000000002
69256871259468,-2.0573218,9.544153,-1.3364209999999999
69256891115469,-2.0429518,9.524992999999998,-1.3388159
69256910968514,-2.0429518,9.536968,-1.3268408999999999
69256930824387,-2.0237916,9.527389,-1.3004956
69256950680132,-1.9974464,9.532178,-1.3004956
69256970536005,-2.0022363999999997,9.484278,-1.2909156000000002
69256990391878,-2.0405567,9.453142,-1.3004956
69257010247623,-2.0333717,9.395662,-1.3076807
69257030101618,-2.0118165,9.393267,-1.3076807
69257049957491,-1.9734962,9.381292,-1.334026
69257069813236,-1.9782863000000002,9.383687,-1.3723463
69257089669109,-2.0261867,9.407638,-1.3555812
69257109524854,-2.0573218,9.445957,-1.3483961000000002
69257129371817,-2.069297,9.453142,-1.331631
69257149227414,-2.0405567,9.481883,-1.3100758
69257169083031,-2.0046315,9.517808,-1.3004956
69257188938776,-2.0237916,9.522598,-1.3172607
69257208790485,-2.0381618,9.513017999999999,-1.3268408999999999
69257228645974,-2.0285816000000003,9.517808,-1.3436059999999999
69257248501591,-2.0381618,9.520203,-1.3364209999999999
69257268357208,-2.0190015,9.479486999999999,-1.3172607
69257288212825,-2.0285816000000003,9.429193,-1.3172607
69257308068442,-2.0261867,9.381292,-1.3076807
69257327917957,-2.0070264,9.369317,-1.3388159
69257347773446,-1.9830762,9.366921000000001,-1.3292358999999998
69257367628807,-1.9974464,9.390872,-1.3483961000000002
69257387484296,-2.0237916,9.402847,-1.3483961000000002
69257407339657,-2.0525317,9.469908,-1.3100758
69257427196982,-2.0573218,9.522598,-1.2957056999999998
69257447052471,-2.047742,9.534574000000001,-1.3220508
69257466907960,-2.0429518,9.544153,-1.2933106
69257486763321,-2.0621118999999997,9.572892999999999,-1.2813355
69257506618810,-2.0405567,9.524992999999998,-1.3124708
69257526474299,-2.0381618,9.455538,-1.3220508
69257546313636,-1.9974464,9.390872,-1.3028906999999998
69257566168741,-1.9830762,9.359736,-1.2957056999999998
69257586023846,-1.9734962,9.354947,-1.2837305
69257605879079,-1.9974464,9.357342,-1.3196558
69257625736569,-2.0285816000000003,9.366921000000001,-1.3220508
69257645591674,-2.0261867,9.383687,-1.3052857
69257665446779,-2.0237916,9.431587,-1.2741505
69257685301884,-2.0285816000000003,9.472302,-1.2645704
69257705156989,-2.0309765,9.513017999999999,-1.3124708
69257724997472,-2.0237916,9.534574000000001,-1.3364209999999999
69257744852193,-2.0669020000000002,9.575289,-1.3292358999999998
69257764707042,-2.0716919999999996,9.558523,-1.3076807
69257784561763,-2.059717,9.529783,-1.2909156000000002
69257804416612,-2.064507,9.477093,-1.2789403999999998
69257824271333,-2.069297,9.4435625,-1.2837305
69257844117588,-2.047742,9.412427000000001,-1.2789403999999998
69257863972181,-2.0142113999999998,9.402847,-1.3124708
69257883826774,-1.9878663,9.359736,-1.331631
69257903681367,-2.0142113999999998,9.357342,-1.3555812
69257923530702,-2.0237916,9.354947,-1.3268408999999999
69257943385039,-2.0501368,9.386082,-1.2765454
69257963239376,-2.0669020000000002,9.429193,-1.2693603999999998
69257983093841,-2.0525317,9.486672,-1.3124708
69258002948178,-2.0453467,9.498648,-1.3723463
69258022823237,-2.0932472,9.513017999999999,-1.3699511999999998
69258042678086,-2.1076174,9.5561285,-1.334026
69258062532807,-2.064507,9.5489435,-1.2957056999999998
69258082387656,-2.0333717,9.503438000000001,-1.3076807
69258102242353,-2.0285816000000003,9.496253,-1.3436059999999999
69258122097202,-2.047742,9.453142,-1.3891114
69258141963223,-2.059717,9.410032000000001,-1.3939015
69258161818200,-2.0525317,9.371711999999999,-1.3268408999999999
69258181673177,-2.0190015,9.369317,-1.334026
69258201528154,-2.0261867,9.390872,-1.3603711
69258221393279,-2.0213966,9.388477,-1.3579761000000001
69258241248512,-2.0142113999999998,9.414823,-1.3388159
69258261103617,-2.0309765,9.429193,-1.3364209999999999
69258280958850,-2.0549269,9.465117,-1.3028906999999998
69258300814083,-2.0381618,9.489068,-1.3412110000000002
69258320669188,-2.0046315,9.513017999999999,-1.3939015
69258340524975,-2.0118165,9.496253,-1.3939015
69258360380208,-2.0573218,9.493857,-1.3699511999999998
69258380235441,-2.078877,9.465117,-1.3699511999999998
69258400090802,-2.0812721,9.460327000000001,-1.3627661
69258419946035,-2.0501368,9.453142,-1.3531861
69258439815318,-2.0166066000000002,9.441168,-1.3795313
69258459670807,-2.0429518,9.4435625,-1.3747413
69258479526424,-2.064507,9.433982,-1.3699511999999998
69258499381913,-2.0501368,9.433982,-1.3675561999999999
69258519252110,-2.0381618,9.438772,-1.3843212999999999
69258539107983,-2.0309765,9.419611999999999,-1.3483961000000002
69258558963856,-2.0285816000000003,9.431587,-1.331631
69258578819837,-2.0381618,9.436378,-1.3579761000000001
69258598675710,-2.0309765,9.431587,-1.346001
69258618531583,-2.0022363999999997,9.4507475,-1.3771361999999998
69258638397098,-2.0142113999999998,9.445957,-1.4010864
69258658253355,-2.0501368,9.460327000000001,-1.3579761000000001
69258678109484,-2.0716919999999996,9.467513,-1.3364209999999999
69258697965741,-2.047742,9.462723,-1.3507911
69258717821870,-2.0261867,9.457932000000001,-1.3531861
69258737684637,-2.0525317,9.503438000000001,-1.3579761000000001
69258757541022,-2.0357666,9.448353,-1.3771361999999998
69258777397407,-2.0261867,9.426797,-1.3268408999999999
69258797253664,-2.0046315,9.424402,-1.3483961000000002
69258817113609,-2.0022363999999997,9.448353,-1.3795313
69258836969994,-2.0261867,9.448353,-1.3627661
69258856826507,-2.0357666,9.460327000000001,-1.3244458000000001
69258876683020,-2.0333717,9.422008,-1.3004956
69258896539533,-2.0333717,9.400452,-1.3172607
69258916395918,-2.0190015,9.369317,-1.3699511999999998
69258936253235,-2.0118165,9.431587,-1.3843212999999999
69258956109876,-2.047742,9.491463000000001,-1.3483961000000002
69258975966389,-2.0812721,9.551338000000001,-1.3531861
69258995823030,-2.1052222,9.551338000000001,-1.3771361999999998
69259015679543,-2.078877,9.486672,-1.3891114
69259035534788,-2.0525317,9.477093,-1.3627661
69259055391537,-2.059717,9.484278,-1.3124708
69259075248178,-2.0357666,9.455538,-1.3268408999999999
69259095104819,-2.0333717,9.453142,-1.3939015
69259114961588,-2.0716919999999996,9.486672,-1.3771361999999998
69259134818229,-2.069297,9.445957,-1.3675561999999999
69259154662962,-2.059717,9.400452,-1.3364209999999999
69259174519347,-2.0261867,9.369317,-1.3148658000000002
69259194375732,-2.0094216,9.378897,-1.2957056999999998
69259214232117,-2.0070264,9.405242,-1.3220508
69259234083680,-1.9974464,9.4435625,-1.3483961000000002
69259253940065,-2.0118165,9.453142,-1.3651612
69259273796450,-2.047742,9.491463000000001,-1.3196558
69259293652963,-2.064507,9.493857,-1.2741505
69259313509348,-2.0836669999999997,9.520203,-1.2837305
69259333346113,-2.0525317,9.501043,-1.3148658000000002
69259353202114,-2.0333717,9.469908,-1.331631
69259373057987,-2.0261867,9.491463000000001,-1.331631
69259392913988,-2.0237916,9.486672,-1.334026
69259412769861,-2.0285816000000003,9.429193,-1.3651612
69259432625862,-2.0381618,9.422008,-1.3723463
69259452472793,-2.0381618,9.433982,-1.3220508
69259472328410,-2.0333717,9.460327000000001,-1.3124708
69259492184027,-2.0261867,9.4435625,-1.2885206
69259512039644,-2.0501368,9.436378,-1.3268408999999999
69259531885910,-2.0405567,9.419611999999999,-1.346001
69259551741271,-2.0190015,9.426797,-1.3196558
69259571596504,-2.0094216,9.433982,-1.2933106
69259591451865,-2.0118165,9.429193,-1.346001
69259611307098,-2.0501368,9.477093,-1.3196558
69259631164141,-2.0716919999999996,9.486672,-1.3292358999999998
69259651019502,-2.069297,9.472302,-1.3507911
69259670874863,-2.0453467,9.465117,-1.3388159
69259690730224,-2.0285816000000003,9.455538,-1.331631
69259710585585,-2.0046315,9.424402,-1.3004956
69259730440946,-2.0429518,9.448353,-1.2933106
69259750300149,-2.0405567,9.438772,-1.3100758
69259770155638,-2.0190015,9.467513,-1.3388159
69259790010999,-2.0046315,9.474698,-1.346001
69259809866488,-2.0213966,9.465117,-1.3507911
69259829723087,-2.0213966,9.441168,-1.3124708
69259849578576,-2.0261867,9.462723,-1.2909156000000002
69259869433937,-2.0285816000000003,9.467513,-1.3172607
69259889289426,-2.0357666,9.477093,-1.3507911
69259909144787,-2.0190015,9.465117,-1.3651612
69259929000276,-2.0142113999999998,9.472302,-1.3196558
69259948849007,-2.0166066000000002,9.484278,-1.3172607
69259968704112,-2.0166066000000002,9.477093,-1.3244458000000001
69259988559217,-1.9854711999999999,9.424402,-1.3220508
69260008414427,-1.9878663,9.448353,-1.2957056999999998
69260028269532,-1.9926563999999998,9.4507475,-1.3220508
69260048134969,-1.9950514,9.410032000000001,-1.3771361999999998
69260067990330,-2.0094216,9.393267,-1.3244458000000001
69260087845691,-1.9782863000000002,9.386082,-1.3244458000000001
69260107701052,-1.9758912,9.441168,-1.2933106
69260127556145,-1.9998415,9.445957,-1.2885206
69260147411634,-2.0166066000000002,9.465117,-1.3124708
69260167266995,-2.0405567,9.484278,-1.3436059999999999
69260187122356,-2.0405567,9.496253,-1.3076807
69260206977717,-2.0166066000000002,9.496253,-1.3052857
69260226833206,-2.0022363999999997,9.524992999999998,-1.3220508
69260246693029,-2.0142113999999998,9.501043,-1.334026
69260266548518,-2.047742,9.477093,-1.3148658000000002
69260286404007,-2.059717,9.469908,-1.3100758
69260306259496,-2.059717,9.436378,-1.3268408999999999
69260326114985,-2.0309765,9.405242,-1.3196558
69260345973582,-2.0381618,9.431587,-1.2933106
69260365829199,-2.0525317,9.441168,-1.3172607
69260385684816,-2.0429518,9.433982,-1.3076807
69260405540433,-2.0213966,9.445957,-1.3100758
69260425398714,-2.0022363999999997,9.4507475,-1.334026
69260445254459,-2.0405567,9.465117,-1.3220508
69260465110204,-2.0525317,9.4507475,-1.2885206
69260484965799,-2.0190015,9.448353,-1.2981006000000002
69260504821544,-2.0118165,9.469908,-1.3124708
69260524677289,-2.0237916,9.474698,-1.3507911
69260544536332,-2.0309765,9.469908,-1.3531861
69260564392205,-2.0501368,9.460327000000001,-1.3268408999999999
69260584247950,-2.0525317,9.486672,-1.3268408999999999
69260604103823,-2.0381618,9.474698,-1.3292358999999998
69260623959696,-1.9926563999999998,9.457932000000001,-1.3651612
69260643817167,-2.0166066000000002,9.462723,-1.3483961000000002
69260663673168,-2.0573218,9.433982,-1.3483961000000002
69260683529041,-2.059717,9.402847,-1.3675561999999999
69260703384914,-2.0261867,9.378897,-1.346001
69260723240787,-2.0166066000000002,9.426797,-1.3292358999999998
69260743096660,-2.0501368,9.465117,-1.3388159
69260762952825,-2.0453467,9.501043,-1.3483961000000002
69260782808826,-2.0357666,9.517808,-1.3627661
69260802664699,-2.0621118999999997,9.529783,-1.3771361999999998
69260822520572,-2.0549269,9.457932000000001,-1.3675561999999999
69260842372203,-2.0621118999999997,9.429193,-1.346001
69260862227948,-2.0621118999999997,9.429193,-1.3651612
69260882083821,-2.0381618,9.424402,-1.3483961000000002
69260901939694,-2.0429518,9.417216999999999,-1.3531861
69260921795439,-2.0453467,9.407638,-1.4274316999999999
69260941643814,-2.0213966,9.426797,-1.4154567
69260961499409,-2.0094216,9.445957,-1.3627661
69260981355026,-2.0261867,9.441168,-1.3388159
69261001210643,-2.0573218,9.460327000000001,-1.2981006000000002
69261021066132,-2.0429518,9.474698,-1.2933106
69261040921749,-2.0261867,9.484278,-1.346001
69261060779834,-2.0261867,9.508227999999999,-1.3436059999999999
69261080635451,-2.0285816000000003,9.505833,-1.3651612
69261100491196,-2.0166066000000002,9.481883,-1.331631
69261120346813,-2.0213966,9.445957,-1.3124708
69261140196586,-2.0309765,9.422008,-1.3244458000000001
69261160052075,-2.0190015,9.405242,-1.3388159
69261179907564,-2.0285816000000003,9.410032000000001,-1.3364209999999999
69261199763181,-2.0357666,9.438772,-1.346001
69261219618670,-2.0381618,9.467513,-1.3220508
69261239474769,-2.0549269,9.460327000000001,-1.3052857
69261259330258,-2.0166066000000002,9.445957,-1.3172607
69261279185747,-2.0285816000000003,9.465117,-1.3412110000000002
69261299041236,-2.0525317,9.486672,-1.3100758
69261318896725,-2.059717,9.457932000000001,-1.3172607
69261338752214,-2.059717,9.436378,-1.3268408999999999
69261358604411,-2.0285816000000003,9.455538,-1.3268408999999999
69261378459900,-2.0261867,9.474698,-1.346001
69261398315389,-2.0237916,9.479486999999999,-1.3100758
69261418170878,-2.0381618,9.4507475,-1.2885206
69261438025603,-2.0621118999999997,9.426797,-1.2981006000000002
69261457881092,-2.047742,9.4435625,-1.3028906999999998
69261477736453,-2.0261867,9.445957,-1.3172607
69261497591942,-2.0237916,9.457932000000001,-1.346001
69261517447303,-2.0118165,9.422008,-1.3124708
69261537302792,-2.0429518,9.426797,-1.3004956
69261557151959,-2.0549269,9.357342,-1.331631
69261577007320,-2.0381618,9.3309965,-1.3388159
69261596862553,-2.0333717,9.383687,-1.2837305
69261616717914,-2.047742,9.481883,-1.3004956
69261636573147,-2.0812721,9.5633135,-1.3172607
69261656431300,-2.0836669999999997,9.604028999999999,-1.3675561999999999
69261676286661,-2.0525317,9.616004,-1.3555812
69261696142022,-2.047742,9.577683,-1.3388159
69261715997383,-2.0621118999999997,9.544153,-1.3172607
69261735848184,-2.0501368,9.445957,-1.3052857
69261755703417,-2.0309765,9.419611999999999,-1.3172607
69261775558778,-2.0357666,9.417216999999999,-1.3364209999999999
69261795414011,-2.0429518,9.445957,-1.3699511999999998
69261815269244,-2.0549269,9.414823,-1.4058765
69261835124477,-2.0333717,9.390872,-1.3915064
69261854974626,-2.0046315,9.364527,-1.3531861
69261874829731,-1.9974464,9.407638,-1.3292358999999998
69261894684964,-2.0190015,9.386082,-1.3004956
69261914540047,-2.0094216,9.393267,-1.3076807
69261934395152,-2.0118165,9.448353,-1.3531861
69261954248379,-2.0309765,9.489068,-1.3436059999999999
69261974103356,-2.0381618,9.457932000000001,-1.3124708
69261993958461,-2.0213966,9.469908,-1.3364209999999999
69262013813566,-2.0070264,9.510622999999999,-1.3196558
69262033672683,-2.0118165,9.546548,-1.3124708
69262053527788,-2.0429518,9.520203,-1.2741505
69262073382893,-2.1028273,9.479486999999999,-1.2957056999999998
69262093237998,-2.088457,9.474698,-1.2885206
69262113093103,-2.0070264,9.433982,-1.3196558
69262132948208,-1.9663111,9.402847,-1.3627661
69262152810907,-1.9878663,9.388477,-1.334026
69262172666140,-2.0549269,9.402847,-1.2933106
69262192521501,-2.1028273,9.436378,-1.2765454
69262212376734,-2.0932472,9.474698,-1.2861254999999998
69262232231967,-2.0357666,9.484278,-1.3124708
69262252095668,-2.0429518,9.501043,-1.2861254999999998
69262271951157,-2.0573218,9.448353,-1.2645704
69262291806518,-2.0501368,9.429193,-1.2669654
69262311662007,-2.0190015,9.4435625,-1.3124708
69262331506804,-1.9974464,9.453142,-1.334026
69262351362037,-2.047742,9.4507475,-1.3436059999999999
69262371217270,-2.1004322,9.467513,-1.2837305
69262391072610,-2.0932472,9.457932000000001,-1.2454101999999998
69262410927843,-2.0333717,9.479486999999999,-1.2549903
69262430783076,-1.9974464,9.4507475,-1.3244458000000001
69262450646171,-1.9878663,9.445957,-1.3268408999999999
69262470501660,-1.9854711999999999,9.422008,-1.2669654
69262490357021,-2.0309765,9.426797,-1.2549903
69262510212382,-2.0309765,9.453142,-1.2502003000000002
69262530067871,-1.9902613,9.453142,-1.2813355
69262549932368,-1.9806811999999998,9.477093,-1.3052857
69262569787985,-2.0237916,9.508227999999999,-1.2933106
69262589643602,-2.0261867,9.462723,-1.2885206
69262609499091,-2.0261867,9.431587,-1.2837305
69262629354708,-2.0261867,9.441168,-1.2837305
69262649210325,-2.0333717,9.467513,-1.2957056999999998
69262669071094,-2.0501368,9.527389,-1.3052857
69262688926839,-2.0501368,9.520203,-1.2693603999999998
69262708782584,-2.0573218,9.529783,-1.2502003000000002
69262728638329,-2.0573218,9.474698,-1.2717555
69262748499754,-2.0213966,9.455538,-1.2933106
69262768355627,-1.9974464,9.393267,-1.331631
69262788211500,-1.9902613,9.328602,-1.3292358999999998
69262808067373,-2.0381618,9.311836,-1.3004956
69262827923118,-2.0980372000000003,9.376502,-1.2909156000000002
69262847782173,-2.0812721,9.388477,-1.3196558
69262867638153,-2.069297,9.438772,-1.3579761000000001
69262887494154,-2.0836669999999997,9.491463000000001,-1.3507911
69262907350027,-2.0836669999999997,9.5489435,-1.331631
69262927206028,-2.1004322,9.5561285,-1.2621753
69262947062029,-2.090852,9.534574000000001,-1.2957056999999998
69262966907516,-2.059717,9.520203,-1.3244458000000001
69262986763389,-2.0501368,9.503438000000001,-1.346001
69263006619134,-2.064507,9.491463000000001,-1.3052857
69263026475007,-2.0333717,9.479486999999999,-1.2885206
69263046326762,-2.0094216,9.453142,-1.3004956
69263066182507,-2.0022363999999997,9.412427000000001,-1.3004956
69263086038252,-2.0070264,9.400452,-1.331631
69263105893997,-2.0142113999999998,9.395662,-1.3124708
69263125749742,-2.0453467,9.407638,-1.2573853000000002
69263145600863,-2.0237916,9.402847,-1.2813355
69263165456480,-2.0142113999999998,9.472302,-1.2765454
69263185312097,-2.0070264,9.501043,-1.3172607
69263205167842,-2.0094216,9.486672,-1.3244458000000001
69263225023459,-2.0429518,9.479486999999999,-1.2909156000000002
69263244879076,-2.0549269,9.491463000000001,-1.2597803
69263264735115,-2.0429518,9.484278,-1.2597803
69263284590860,-2.0166066000000002,9.515413,-1.2981006000000002
69263304446477,-2.0285816000000003,9.496253,-1.3076807
69263324302222,-2.0549269,9.493857,-1.3052857
69263344151209,-2.078877,9.493857,-1.3124708
69263364006698,-2.0309765,9.510622999999999,-1.331631
69263383862187,-2.0118165,9.479486999999999,-1.3675561999999999
69263403717804,-2.0309765,9.469908,-1.3531861
69263423573293,-2.0812721,9.445957,-1.3052857
69263443428782,-2.076482,9.431587,-1.3004956
69263463283229,-2.047742,9.376502,-1.3100758
69263483138590,-1.9782863000000002,9.338181500000001,-1.3483961000000002
69263502994079,-1.9782863000000002,9.283096,-1.3364209999999999
69263522849440,-2.0118165,9.263936,-1.3292358999999998
69263542704929,-2.0429518,9.347761,-1.2621753
69263562563076,-2.0381618,9.429193,-1.2525953
69263582418565,-2.0190015,9.529783,-1.3220508
69263602273926,-2.0118165,9.589659,-1.3555812
69263622129415,-2.0285816000000003,9.616004,-1.331631
69263641979382,-2.0142113999999998,9.584868,-1.3052857
69263661834743,-2.0453467,9.551338000000001,-1.2933106
69263681689976,-2.0716919999999996,9.474698,-1.2813355
69263701545337,-2.0405567,9.484278,-1.334026
69263721400698,-2.0285816000000003,9.489068,-1.3436059999999999
69263741255931,-2.0022363999999997,9.465117,-1.3747413
69263761116584,-1.9639161,9.417216999999999,-1.3651612
69263780971945,-2.0070264,9.438772,-1.346001
69263800827434,-2.0309765,9.388477,-1.3148658000000002
69263820682899,-2.0285816000000003,9.362132,-1.2693603999999998
69263840538260,-2.0190015,9.354947,-1.2549903
69263860391677,-2.0022363999999997,9.410032000000001,-1.2909156000000002
69263880247166,-1.9854711999999999,9.438772,-1.3412110000000002
69263900102655,-1.9950514,9.477093,-1.3483961000000002
69263919958016,-2.0381618,9.481883,-1.3052857
69263939803229,-2.074087,9.496253,-1.2765454
69263959658334,-2.069297,9.498648,-1.2885206
69263979513439,-2.047742,9.493857,-1.3292358999999998
69263999368416,-2.0453467,9.517808,-1.2909156000000002
69264019223521,-2.0381618,9.505833,-1.3124708
69264039078626,-2.0573218,9.496253,-1.3172607
69264058942083,-2.0405567,9.467513,-1.334026
69264078797316,-2.0094216,9.445957,-1.3364209999999999
69264098652549,-2.0309765,9.422008,-1.3124708
69264118507782,-2.0453467,9.419611999999999,-1.2909156000000002
69264138363015,-2.0261867,9.417216999999999,-1.3004956
69264158219930,-2.0357666,9.486672,-1.2885206
69264178075163,-2.0213966,9.501043,-1.3124708
69264197930524,-1.9950514,9.457932000000001,-1.2981006000000002
69264217785885,-1.9663111,9.369317,-1.2669654
69264237641246,-1.9854711999999999,9.335787,-1.2597803
69264257496607,-1.9782863000000002,9.354947,-1.2454101999999998
69264277359746,-1.9950514,9.508227999999999,-1.2669654
69264297215212,-2.0333717,9.601633999999999,-1.2837305
69264317070701,-2.0405567,9.599238,-1.3627661
69264336926190,-2.047742,9.534574000000001,-1.3196558
69264356783009,-2.0405567,9.457932000000001,-1.2549903
69264376638498,-2.0405567,9.517808,-1.2286451
69264396494115,-2.0405567,9.544153,-1.2310401000000002
69264416349732,-2.0381618,9.479486999999999,-1.3196558
69264436205349,-2.0213966,9.491463000000001,-1.3675561999999999
69264456064654,-2.0261867,9.493857,-1.3292358999999998
69264475920399,-2.0166066000000002,9.486672,-1.2789403999999998
69264495776144,-2.0309765,9.484278,-1.2406201000000001
69264515631889,-2.0669020000000002,9.484278,-1.3268408999999999
69264535487506,-2.0836669999999997,9.503438000000001,-1.3412110000000002
69264555343251,-2.0669020000000002,9.517808,-1.2789403999999998
69264575202434,-2.0525317,9.5561285,-1.2885206
69264595058179,-2.0309765,9.551338000000001,-1.3196558
69264614913924,-2.0333717,9.551338000000001,-1.3292358999999998
69264634769669,-2.0381618,9.560919,-1.3388159
69264654619440,-2.0812721,9.613608000000001,-1.2933106
69264674475057,-2.095642,9.604028999999999,-1.3004956
69264694330674,-2.090852,9.632769,-1.334026
69264714186291,-2.078877,9.618399,-1.3172607
69264734041908,-2.0621118999999997,9.656719,-1.2813355
69264753897251,-2.0573218,9.649534,-1.2837305
69264773752845,-2.0525317,9.6686945,-1.3364209999999999
69264793608462,-2.0621118999999997,9.639954,-1.3268408999999999
69264813464079,-2.064507,9.618399,-1.2885206
69264833319696,-2.0501368,9.599238,-1.2549903
69264853175313,-2.0381618,9.616004,-1.2885206
69264873030144,-2.0285816000000003,9.64714,-1.3196558
69264892885761,-2.0573218,9.68067,-1.334026
69264912741378,-2.0501368,9.685459,-1.3244458000000001
69264932596995,-2.0501368,9.671089,-1.3052857
69264952441422,-2.0860621999999998,9.75252,-1.2813355
69264972296783,-2.088457,9.742939999999999,-1.3052857
69264992152144,-2.090852,9.73815,-1.2957056999999998
69265012007505,-2.1028273,9.764495,-1.3268408999999999
69265031862866,-2.1052222,9.788445,-1.331631
69265051718099,-2.0716919999999996,9.817185,-1.2789403999999998
69265071576744,-2.0501368,9.845925,-1.2837305
69265091432105,-2.0860621999999998,9.81958,-1.3292358999999998
69265111287594,-2.1267774,9.826766000000001,-1.331631
69265131142955,-2.1267774,9.83874,-1.331631
69265150998444,-2.1028273,9.831555,-1.3675561999999999
69265170849221,-2.1171973,9.862691,-1.3699511999999998
69265190704582,-2.1219873,9.874666,-1.3507911
69265210559943,-2.1315675,9.889036,-1.331631
69265230415304,-2.1435425,9.8938265,-1.3388159
69265250265116,-2.1219873,9.884246000000001,-1.3843212999999999
69265270120349,-2.1291726000000004,9.917776,-1.3962965
69265289975582,-2.1124072,9.922566,-1.3627661
69265309830815,-2.1411476,9.912986,-1.334026
69265329686048,-2.1531227000000004,9.932146000000001,-1.3603711
69265349541153,-2.1387525000000003,9.963282000000001,-1.3986914
69265369390412,-2.1243825000000003,10.0063925,-1.3915064
69265389245517,-2.1459377,10.013577,-1.3531861
69265409100622,-2.1555176,10.003997,-1.346001
69265428955727,-2.1603076,10.023157000000001,-1.3579761000000001
69265448810832,-2.1698877999999997,10.054293,-1.3843212999999999
69265468662189,-2.1770728,10.066267999999999,-1.3891114
