UPTIMENANO,Ax,Ay,Az
69233977344877,-0.2868376,0.39656898,9.545475
69233997200621,-0.17374443,0.6235234,9.804452
69234017056366,-0.101720184,0.5208823,9.791332
69234036915437,-0.07976899,0.32996964,9.610165
69234056771309,-0.19558723,0.2132058,9.513603
69234076627054,-0.34590533,0.032705177,9.64251
69234096482797,-0.22977184,-0.059209038,9.862405
69234116343497,-0.16904514,0.07096975,10.020976
69234136199370,-0.30145383,0.12695205,10.096645
69234156055241,-0.06600132,0.29434213,10.017746
69234175911241,0.1375294,0.59263104,9.916655
69234195767114,0.09389213,0.5329475,10.135022
69234215622985,-0.30379546,0.22621983,10.35084
69234235484289,-0.476583,0.14766517,10.169636
69234255340290,-0.42265952,0.47355175,9.486827
69234275196289,0.05555195,0.016812263,9.8765545
69234295052289,0.49404028,-0.06766836,10.640088
69234314908290,0.35581985,0.56356955,11.319312
69234334770712,0.032202292,1.5832077,10.743436
69234354626840,0.01220925,1.4269955,9.516225
69234374482969,0.22724034,0.07381609,9.114324
69234394339096,-0.08728494,-0.08673958,10.124898
69234414205197,0.049081434,0.19525933,10.97433
69234434061582,0.23009624,1.0252804,10.405197
69234453917837,-0.6144977,1.3088293,8.382327
69234473774221,-0.87361825,0.72447574,8.374086
69234493630478,-1.4911585,-0.82703197,8.703077
69234513486861,-0.34508005,-0.017829467,9.185002
69234533355922,0.32428303,0.9614089,9.934511
69234553212563,0.17533983,1.0109814,9.791647
69234573069202,0.055094894,0.9332025,9.441149
69234592925842,0.29342273,0.7288017,9.681274
69234612782483,0.14111128,0.4968769,9.75695
69234632640792,-0.42486984,0.32571498,9.483382
69234652497432,-0.6473469,0.6543821,9.07284
69234672354201,-0.3265666,1.2531205,8.968291
69234692210968,-0.38028404,0.33346364,9.203069
69234712067608,-0.5495166,-0.27849293,9.544377
69234731924377,-0.9658697,-0.12587939,9.707147
69234751785097,0.5590258,0.4505455,9.5860815
69234771641993,0.28018454,-0.097169854,10.79496
69234791498762,0.6837687,0.84267926,10.735544
69234811355529,1.2547188,0.7568457,10.715911
69234831213144,2.2206244,-0.049187984,11.097528
69234851070041,-0.21372032,-0.84289336,10.822523
69234870926936,-0.836513,-0.4426677,9.858429
69234890783704,-1.3547099,-0.080138646,8.620319
69234910640601,-3.4838262,-0.431739,8.305309
69234930475626,-0.48795682,-0.3265218,10.035601
69234950332138,1.5259495,0.5428518,10.887012
69234970188523,0.51767254,0.7195711,9.835184
69234990044906,0.112421095,-0.39716473,9.888613
69235009901418,-0.026476128,-0.35569808,9.643147
69235029757803,-1.3372406,0.116351105,8.822997
69235049618209,-0.33609733,0.45825672,8.634584
69235069474721,-0.67995673,-0.3421466,8.810957
69235089331234,-0.69719374,-0.80128676,9.65555
69235109187873,-1.0107864,-0.28843695,10.175014
69235129043629,-0.3583495,0.15355618,10.523945
69235148900270,-0.092169866,-0.50552654,10.177765
69235168756781,0.0038575202,-1.4106802,9.426503
69235188613421,-1.0524172,-0.77001905,10.134462
69235208469934,-1.0009016,-0.6643923,11.226017
69235228324300,0.02831837,-0.5236588,11.553795
69235248180812,0.8505218,0.39485127,11.4741125
69235268037325,-0.52983326,-0.08819606,9.653734
69235287893836,-0.06862742,1.0916544,8.068874
69235307750348,0.034377534,1.9227887,9.038432
69235327606989,-0.07068209,-0.11895438,10.1436405
69235347452451,-0.5576784,-1.0006783,10.136178
69235367308835,0.055460613,-0.056796137,10.264534
69235387165220,-0.51378816,0.36712548,9.095568
69235407021475,-0.78352785,0.7691871,8.320632
69235426876907,-0.13672768,0.10388965,9.633882
69235446733164,0.114713974,-0.579869,9.60781
69235466589419,0.60231125,0.2679319,9.488001
69235486445547,0.6556341,0.093806304,10.0841255
69235506301804,0.1983551,-0.10056184,10.377346
69235526154438,0.95928067,0.89782923,11.422012
69235546010438,0.6808921,1.0542656,10.712871
69235565866567,-0.22092928,-0.19842847,9.64214
69235585722694,-0.8674542,-1.1123393,8.814053
69235605578694,-0.88854456,-1.8480754,9.822847
69235625434823,-0.492535,-1.2408767,10.460449
69235645291566,0.561902,-0.12950833,9.913208
69235665147566,0.44743174,0.8949955,8.127319
69235685003695,0.6388461,1.3049785,7.02849
69235704859694,1.0601727,1.8276267,4.6872277
69235724720847,-1.4555204,-0.8401205,4.2135434
69235744576976,-0.86199975,-0.06529809,5.788428
69235764432975,0.24143207,-0.12041243,6.572238
69235784289103,0.96468,-0.5791259,7.6644964
69235804145232,1.5816367,-1.4998502,8.55736
69235824001231,2.082206,-1.0853708,9.631595
69235843861826,2.5688136,-0.14429908,10.025066
69235863717955,2.3235302,-0.54206336,10.048279
69235883574082,1.6367755,-1.2867677,10.883819
69235903430210,1.56771,-1.2420548,12.104785
69235923286467,1.8969,-0.9419257,13.7105465
69235943147385,2.1144273,0.43525586,15.05617
69235963003513,1.9225533,1.0293748,15.278237
69235982859770,1.2498827,0.7567951,13.937731
69236002716025,0.61630744,-0.5631452,10.2678795
69236022577986,-6.2241197,-8.0891075,-7.864815
69236042434371,-14.933123,-8.12771,-6.67283
69236062290754,12.055091,1.9935666,11.838498
69236082147138,11.762761,1.805106,15.10938
69236102003523,3.758164,-0.45738313,4.7817736
69236121859906,5.0951004,4.7000613,4.3874483
69236141720855,0.96843386,3.9048944,9.693647
69236161577368,0.23141247,2.3179133,8.209023
69236181434007,-3.2955112,3.4911087,7.374683
69236201290519,-1.2108791,5.780555,11.396902
69236221147160,0.07078396,5.8849373,13.2378645
69236241005439,3.0880065,3.7431145,13.568767
69236260862079,4.9379807,-0.32536268,17.808971
69236280718720,3.4709485,1.0737687,16.9512
69236300575359,1.8882868,1.1855786,10.5106125
69236320431999,2.0165112,0.71432567,12.886844
69236340242110,-1.3715562,-0.89462084,16.818811
69236360097982,-0.27098083,-2.4728012,17.508741
69236379953854,5.7311964,-2.4160628,17.18645
69236399809598,5.222012,-4.6039457,12.730837
69236419665470,3.3804526,-7.0103464,12.24281
69236439533697,0.4330781,-6.9621816,12.307263
69236459389825,-1.9253111,-5.474949,10.107997
69236479245953,-2.9818518,-4.2882915,9.663589
69236499102081,-5.2705774,-4.865944,8.430168
69236518958209,-3.0476604,-5.712308,6.750981
69236538814337,-1.4624218,-6.43616,5.673771
69236558665723,-0.80399543,-5.559797,4.9801407
69236578521595,-0.0668307,-5.5660477,4.396374
69236598377467,1.9966564,-4.2178082,5.768843
69236618233339,1.6473438,-4.4828076,6.421096
69236638089083,-0.05713767,-3.433611,6.7639875
69236657957706,0.38618213,-1.5575761,8.330783
69236677813834,2.3290226,-0.048773997,8.709536
69236697669834,4.0081854,0.03493104,9.30768
69236717525962,3.757549,2.5049217,11.538922
69236737382090,2.235604,1.3414493,15.632865
69236757232462,0.16066526,5.438468,17.413664
69236777088462,-1.4978111,7.2698617,12.549151
69236796944462,0.9380091,3.0056581,9.867361
69236816800334,1.1890138,3.5445967,10.876419
69236836656334,-0.19985573,2.0431154,11.675097
69236856516308,-0.10640248,-1.118721,11.610757
69236876372308,-0.12966709,-2.2740798,10.785674
69236896228308,-0.7592548,-5.0306697,8.032408
69236916084308,0.70983875,-3.7665176,11.633327
69236935940308,0.6904909,1.7712555,7.348788
69236955777041,-1.7141459,2.8094478,2.7951922
69236975632529,-0.7152209,-1.7764722,5.122409
69236995488017,-0.2410879,-3.2631607,5.606501
69237015343633,0.46180123,-2.6240473,5.0294743
69237035199121,0.8717277,-1.187828,5.482701
69237055065952,0.29069358,-0.09305169,7.270665
69237074921696,0.6624151,0.7295446,8.418019
69237094777440,1.3523635,0.08666309,10.471884
69237114633056,0.8480105,2.7852857,8.523171
69237134488800,0.107245624,4.221397,9.910647
69237154344014,0.48377627,2.1143608,13.647233
69237174199758,-2.6683242,3.7100842,12.267346
69237194055374,-3.578624,5.5707974,13.3047495
69237213911118,-4.617176,5.288762,20.45217
69237233766734,-0.60551286,-0.20631562,15.89091
69237253623965,1.5009662,-0.69863683,11.576914
69237273479581,1.4535012,-0.6986189,10.9972
69237293335325,0.5928787,-1.2873069,10.8044
69237313190941,0.6154656,-1.3890437,10.52827
69237333046685,0.3894771,-0.56616306,10.587755
69237352909716,-0.17173012,-1.5671408,9.508432
69237372765588,0.64778334,-3.6315432,8.805804
69237392621460,1.0364722,-0.34740266,10.299225
69237412477332,1.6566719,0.6123493,9.249633
69237432333204,0.9805675,-2.4217622,8.273325
69237452201610,1.9880672,-4.8561406,8.613448
69237472057738,2.6619022,-4.398096,7.069541
69237491913866,2.7372103,-2.3976746,4.7695684
69237511770122,1.9303876,-0.28707284,2.9349945
69237531626250,0.975886,2.0278208,2.3934999
69237551498573,-0.19243994,8.3524685,11.717589
69237571355085,-1.7412528,16.667322,26.63615
69237591211725,-1.691722,2.2038195,13.067534
69237611068237,-1.5082896,-3.4318898,6.1052685
69237630924749,-3.9097269,-0.8935225,8.692209
69237650792031,-1.6968962,0.9578966,10.565413
69237670648927,0.6744853,1.7655232,10.824051
69237690505823,1.2300097,1.6184616,10.063877
69237710362719,1.2729827,0.68131214,9.696579
69237730219487,0.9472088,-0.29038465,9.805279
69237750084045,0.24103813,-0.9179144,9.824336
69237769941197,-0.091555305,-1.1489595,9.769329
69237789798349,-0.4482887,-0.5910773,9.74273
69237809655373,-0.35399383,-0.4336327,9.740353
69237829512525,-0.06286092,-0.64644533,9.876358
69237849375382,-0.5626204,-0.38195628,10.035342
69237869232790,-0.68383455,-0.4423347,9.981096
69237889090198,-0.18167293,-0.30989832,9.677078
69237908947606,0.22326368,0.011748313,9.590546
69237928805014,0.4242833,0.027466988,9.821718
69237948635563,0.44171157,-0.0769786,9.774212
69237968492075,0.49003342,0.02733449,9.696313
69237988348587,0.401017,0.12581724,9.644553
69238008205099,0.15064679,-0.038840983,9.720849
69238028061611,-0.03454056,-0.26595318,9.744855
69238047924659,0.04990791,-0.25117123,9.591206
69238067781299,0.26209646,0.042421196,9.975855
69238087638067,0.39184892,-0.04910598,9.5752325
69238107494707,0.32863593,-0.21608052,9.791982
69238127351475,0.28433034,-0.30594978,9.919645
69238147204269,0.112497576,-0.27285233,9.540589
69238167060909,-0.19647199,0.0501821,9.60132
69238186917549,-0.29965234,0.35476387,9.796358
69238206774317,-0.21425694,0.27760625,9.699089
69238226630957,0.15840477,-0.11024668,9.802361
69238246496148,0.53358936,-0.4297545,9.841421
69238266353044,0.49676874,-0.41547638,9.600467
69238286210068,0.3310666,-0.2662479,9.476866
69238306066964,0.16856427,-0.06450676,9.771675
69238325923988,0.20005424,0.009146749,10.012881
69238345772747,0.15596683,-0.16586262,9.945491
69238365629643,0.2204851,-0.40863273,9.762648
69238385486411,0.19543174,-0.47262073,9.715842
69238405343179,0.069577426,-0.28284702,9.784776
69238425199947,0.023535492,0.05528087,9.810548
69238445059616,0.09181637,0.27940205,9.746287
69238464916512,0.1282301,0.19271104,9.692613
69238484773408,0.0996767,8.59594E-4,9.715509
69238504630304,0.07344944,-0.079910524,9.770558
69238524487200,0.004868327,-0.06740301,9.840543
69238544333533,0.018455118,0.03579071,9.843891
69238564190045,0.115129635,0.079779945,9.79173
69238584046685,0.19025493,-1.1432941E-5,9.670348
69238603903197,0.1447809,-0.12914123,9.696314
69238623759709,0.1082552,-0.11825452,9.817853
69238643615537,0.06358304,-0.030157289,9.741107
69238663472177,-0.024304263,0.018551733,9.637108
69238683328689,0.046941314,0.03491017,9.716691
69238703185329,0.1999973,0.05793682,9.748645
69238723041841,0.20121807,0.04365129,9.73966
69238742898950,0.13591188,0.03455245,9.767408
69238762755462,0.16141863,0.028270064,9.7704
69238782611913,0.113380395,-0.021246864,9.572098
69238802468425,-0.02912833,-0.070869096,9.599755
69238822324937,0.08602556,-0.0018639956,9.7748165
69238842170850,0.070650525,0.15423888,9.836466
69238862027107,0.032736097,0.078459986,9.913006
69238881883364,-0.0035720367,0.15766709,9.8857565
69238901739745,-0.18475562,0.107816264,9.687506
69238921596001,-0.1529625,0.12152574,9.797103
69238941445924,-0.084629685,0.10426013,9.7155285
69238961302052,-0.06657829,0.07473167,9.662651
69238981158180,0.036430344,0.053660214,9.7281275
69239001014180,0.08801014,-0.06451218,9.789676
69239020870308,0.1284882,-0.18151474,9.806293
69239040721151,0.1661222,-0.2657698,9.775995
69239060577151,0.19771695,-0.32577914,9.744565
69239080433151,0.23938614,-0.30367163,9.739945
69239100289152,0.26777485,-0.24793398,9.7042675
69239120145025,0.27228,-0.17010486,9.713683
69239140002498,0.21267888,-0.15460297,9.71314
69239159858499,0.15598466,-0.09487232,9.700772
69239179714500,0.08967069,-0.1124793,9.698028
69239199570501,0.1475545,-0.06596351,9.735721
69239219426630,0.19031046,0.0094473325,9.784269
69239239280072,0.18999277,0.013986508,9.815069
69239259136072,0.15746762,0.023501787,9.789838
69239278992072,0.103108354,0.079984374,9.720254
69239298847944,0.046191815,0.097497314,9.7231245
69239318696940,0.10538956,0.08127581,9.746622
69239338545405,0.13487405,0.05292693,9.751612
69239358401278,0.09549836,-0.026024947,9.751842
69239378257151,0.07527572,-0.04628806,9.783806
69239398112896,0.09095133,-0.009432269,9.781017
69239417968769,0.07369122,0.014535429,9.76627
69239437822446,0.02741552,0.017738521,9.752123
69239457678191,0.023461262,0.027754536,9.745025
69239477534064,-0.014456961,-0.0034097051,9.739144
69239497389809,-0.05204149,0.0076599205,9.748224
69239517245554,-0.026829595,0.061572254,9.726212
69239537106333,-0.011209376,0.052557316,9.72984
69239556962206,0.03135527,-0.024914434,9.776209
69239576818079,0.04841618,-0.1025115,9.827718
69239596673824,0.049593642,-0.1338747,9.812708
69239616529697,0.05879697,-0.15810697,9.754001
69239636389986,0.10433255,-0.17313907,9.696115
69239656245987,0.12113103,-0.13167496,9.696779
69239676101860,0.11679615,-0.030705888,9.721254
69239695957733,0.054321013,0.019781133,9.747291
69239715813734,-0.009427674,0.042527642,9.784186
69239735669607,-0.031024741,0.0028343834,9.794352
69239755527190,0.041340068,-0.02313931,9.775576
69239775383191,0.11294311,-0.029000215,9.746815
69239795239044,0.0916197,-0.012221119,9.729579
69239815094917,0.09645259,0.018234577,9.724107
69239834950790,0.05805565,-0.01733895,9.729108
69239854805321,0.06131847,-0.02204116,9.742504
69239874661194,0.09606465,0.024110971,9.7973385
69239894517067,0.094169155,0.040233515,9.781624
69239914372940,0.03912428,-0.0140351225,9.73916
69239934228813,0.011694248,-0.060198233,9.723216
69239954086970,0.100605965,-0.04311382,9.765788
69239973942843,0.1661842,0.024398942,9.790638
69239993798716,0.17793986,0.00788322,9.765707
69240013654589,0.1631947,-0.07394553,9.74486
69240033510590,0.11245415,-0.078658395,9.746143
69240053370837,0.10761523,-0.04678344,9.756798
69240073226838,0.10237336,-0.038620893,9.749379
69240093082967,0.11897105,-0.056371972,9.745957
69240112938968,0.18063371,-0.037413955,9.737165
69240132794969,0.19215597,-0.030120878,9.75019
69240152651364,0.1420267,-0.049714297,9.747817
69240172507365,0.10371331,-0.07262562,9.731123
69240192363366,0.11318761,-0.043379538,9.712534
69240212219495,0.09957233,-0.0038845928,9.68133
69240232075496,0.10183661,0.020612495,9.704363
69240251940997,0.09827809,0.012162584,9.7694845
69240271797232,0.09128825,0.026225766,9.80798
69240291653489,0.11544495,0.019242799,9.832727
69240311509746,0.14245877,0.019710282,9.799305
69240331366003,0.1461758,-0.013123756,9.705053
69240351223722,0.10578489,-0.09866786,9.689747
69240371080107,0.08484334,-0.0731859,9.656185
69240390936492,-0.009133135,0.007305253,9.642454
69240410792877,-0.0078050746,0.10107925,9.6354
69240430649262,0.0897,0.08098608,9.644419
69240450511943,0.12549397,0.03801521,9.659704
69240470368456,0.079150945,0.004499587,9.671378
69240490224841,0.014704351,0.0018556026,9.640363
69240510081354,0.014963997,0.027512625,9.628574
69240529937867,0.0633404,0.026588952,9.609138
69240549803498,0.091965206,0.018819503,9.642977
69240569660139,0.12645634,0.027584808,9.63751
69240589516780,0.11057423,-0.014691637,9.613271
69240609373549,0.12365026,-0.06684021,9.582778
69240629230190,0.13880154,-0.04609073,9.575234
69240649086379,0.16075768,-0.019697811,9.59764
69240668943020,0.14727087,-0.0366721,9.628035
69240688799789,0.14418824,-0.068289116,9.582024
69240708656430,0.11058493,-0.06395475,9.5333
69240728513071,0.086506195,-0.03603867,9.493291
69240748373220,0.10104886,-0.02881053,9.447344
69240768230117,0.109335974,0.0013531554,9.4609785
69240788086886,0.111845806,-0.014638773,9.476741
69240807943655,0.13239388,-0.014315291,9.442502
69240827800552,0.15469453,0.013272868,9.449111
69240847653157,0.10674249,-0.004073664,9.487181
69240867509926,0.08953726,-0.02637348,9.498591
69240887366695,0.0969481,-0.056108844,9.488351
69240907223464,0.1088051,-0.08636599,9.46268
69240927080233,0.07865596,-0.06790291,9.4578285
69240946931804,0.07451211,-0.03968781,9.427797
69240966788445,0.079345696,-0.014024332,9.393748
69240986644958,0.10184784,0.010803231,9.362588
69241006501599,0.1358541,-0.03754595,9.355066
69241026358112,0.12660646,-0.09129807,9.328569
69241046210839,0.09516807,-0.09437086,9.281694
69241066067352,0.06596176,-0.06135375,9.255432
69241085923737,0.043543898,-0.02995946,9.282483
69241105780250,0.10037296,-0.01081486,9.285943
69241125636763,0.13129698,-0.06350081,9.299983
69241145492496,0.10423857,-0.07948015,9.313917
69241165349009,0.04401598,-0.063010156,9.321655
69241185205522,0.03831427,-0.04302879,9.294801
69241205062035,0.0962293,-0.011464423,9.271388
69241224918526,0.106914945,-0.049342934,9.232467
69241244773839,0.07100657,-0.07748879,9.225648
69241264630352,0.06048687,-0.07226373,9.195545
69241284486865,0.07302381,-6.104804E-4,9.170253
69241304343378,0.06649857,0.026948046,9.177508
69241324199891,0.059817556,0.019035315,9.2007675
69241344052690,0.06431929,-0.021448284,9.202838
69241363909203,0.030795112,-0.08198517,9.200234
69241383765588,0.016134307,-0.08159311,9.181604
69241403622101,0.049069304,-0.03165701,9.19153
69241423478614,0.049663946,-0.023766706,9.181069
69241443334999,0.07059973,-0.066170976,9.201264
69241463185868,0.0898348,-0.08660047,9.217103
69241483042253,0.08123963,-0.07534419,9.19824
69241502898510,0.07872563,-0.061355524,9.1697235
69241522754767,0.085859776,-0.030761726,9.181686
69241542611152,0.101203546,-0.010948702,9.1755705
69241562462727,0.08264617,0.032396253,9.138127
69241582318984,0.06717249,-0.0058188923,9.119941
69241602175113,0.09290635,-0.040254485,9.144227
69241622031370,0.07921567,-0.057647854,9.182962
69241641887499,0.057430312,-0.06549858,9.209795
69241661736064,0.078969374,-0.016419182,9.227746
69241681592065,0.093750454,-0.020759868,9.213253
69241701448171,0.08613889,-0.07050325,9.168805
69241721304172,0.07016422,-0.123815924,9.141183
69241741160173,0.105171666,-0.08794677,9.128958
69241761012760,0.1419721,-0.046066303,9.11323
69241780868633,0.10780905,-0.045307387,9.139622
69241800724506,0.095905095,-0.045135975,9.169851
69241820580379,0.08644688,-0.05890389,9.164306
69241840436252,0.08915165,-0.040358886,9.166405
69241860293203,0.097302295,-0.027872939,9.149428
69241880149076,0.07183782,-0.042898625,9.131895
69241900004949,0.038646117,-0.06705937,9.166781
69241919860950,0.054664966,-0.04353747,9.159673
69241939716823,0.08260092,-0.03230153,9.163779
69241959569874,0.099683814,-0.047644053,9.178944
69241979425619,0.10161624,-0.08091518,9.15067
69241999281364,0.073585205,-0.08265893,9.136604
69242019137237,0.062654674,-0.06857529,9.110967
69242038992982,0.045815572,-0.0474654,9.15659
69242058850835,0.05730123,-0.07646102,9.143819
69242078706708,0.056291927,-0.08395487,9.132077
69242098562453,0.073921725,-0.0908363,9.21117
69242118418326,0.11220442,-0.058996085,9.200258
69242138274071,0.083451726,-0.057878524,9.139971
69242158134868,0.04774541,-0.08518936,9.132135
69242177990849,0.032093067,-0.11586742,9.143396
69242197846850,0.06949722,-0.09768445,9.168223
69242217702723,0.10279601,-0.07650046,9.163767
69242237558724,0.108016215,-0.0688124,9.168524
69242257417473,0.07257181,-0.059394207,9.18014
69242277273474,0.004027086,-0.059302174,9.176829
69242297129475,0.017595178,-0.07174458,9.16758
69242316985476,0.063546054,-0.061834283,9.159019
69242336841477,0.078803375,-0.04270716,9.145128
69242356699064,0.061927572,-0.010912293,9.131556
69242376555065,0.08689132,-1.0925422E-4,9.131319
69242396411194,0.100208975,-0.0029366747,9.146595
69242416267195,0.055894367,-0.015741294,9.147186
69242436123324,0.07522947,-0.050466288,9.165206
69242455984043,0.063702144,-0.025680069,9.177589
69242475840172,0.039785054,-0.041048076,9.176822
69242495696301,0.058454353,-0.08421921,9.175461
69242515552430,0.060615737,-0.07809471,9.149928
69242535408559,0.033037014,-0.06618516,9.135622
69242555270630,0.026050478,-0.06758285,9.134696
69242575126887,0.064018205,-0.08727967,9.138128
69242594983144,0.09337544,-0.09135481,9.164348
69242614839529,0.060378257,-0.098991126,9.164665
69242634695786,0.023417955,-0.092897885,9.155585
69242654548236,0.011539877,-0.09005162,9.130007
69242674404493,-0.0045985132,-0.07069451,9.16339
69242694260622,0.027555453,-0.09092276,9.194101
69242714116879,0.051317748,-0.084156245,9.149773
69242733973130,0.022169525,-0.054205615,9.106629
69242753829387,-0.010019631,-0.07167974,9.090717
69242773685644,0.00977222,-0.13190956,9.153598
69242793541901,-0.029006707,-0.14174734,9.197432
69242813398158,0.0066148653,-0.10019119,9.156876
69242833254287,0.021927007,-0.056340966,9.219784
69242853106436,-0.019773133,-0.046691313,9.289223
69242872962693,-0.013320714,-0.0822278,9.256073
69242892818822,0.02231475,-0.1331579,9.244239
69242912675079,0.020515414,-0.13609897,9.235967
69242932531208,0.01414229,-0.10252693,9.209466
69242952386675,-0.019644618,-0.05714855,9.257546
69242972242804,-0.035035208,-0.052743763,9.268343
69242992099061,-0.006444865,-0.08744242,9.253658
69243011955190,0.017977225,-0.1088757,9.248337
69243031810079,0.0023236577,-0.11473043,9.249663
69243051666336,-0.035052866,-0.08316757,9.27223
69243071522465,-0.024782784,-0.06289531,9.309944
69243091378594,-0.026745819,-0.0699363,9.355177
69243111234851,-0.04288446,-0.09686987,9.374506
69243131090956,-0.103722446,0.031228485,9.393076
69243150939649,-0.08887313,-0.0068012765,9.362929
69243170795778,-0.0550953,0.0074435156,9.351513
69243190651779,-0.070638746,0.024023762,9.291544
69243210507780,-0.10332127,-0.008913929,9.276849
69243230363781,-0.10695378,-0.01825531,9.351919
69243250215734,-0.09277618,-0.0045894673,9.371725
69243270071607,-0.08734277,-0.023207141,9.4525
69243289927480,-0.08452663,-0.017366482,9.503794
69243309783353,-0.07167626,-0.0022555625,9.473745
69243329639354,-0.057675894,-0.001224453,9.434055
69243349495227,-0.09470311,0.0066983155,9.416286
69243369345780,-0.14792834,0.03643083,9.416493
69243389201653,-0.16845746,0.018014738,9.443313
69243409057398,-0.13817182,0.01398363,9.496235
69243428913143,-0.09310535,-0.006299594,9.532415
69243448772722,-0.044187102,0.0012119974,9.559404
69243468628595,-0.06552178,0.0024902318,9.543096
69243488484340,-0.10412333,0.01667511,9.551092
69243508340213,-0.09854889,0.018633455,9.539381
69243528195958,-0.081884086,0.010459871,9.5116625
69243548056365,-0.07769678,-0.02969587,9.539267
69243567912366,-0.049010817,-0.025054006,9.597775
69243587768239,-0.06042353,-0.002872327,9.628865
69243607624090,-0.082828596,0.0163219,9.649653
69243627479963,-0.056204658,0.033337083,9.672114
69243647335836,-0.02874395,0.020579657,9.65638
69243667190935,-0.063351415,0.012412421,9.650726
69243687046808,-0.071881145,0.007453806,9.643141
69243706902553,-0.06321109,0.018852105,9.639552
69243726758426,-0.055520892,0.03168162,9.642935
69243746614549,-0.0750923,0.01579416,9.673061
69243766470422,-0.07965415,0.013656991,9.7000065
69243786326167,-0.08497885,0.0053323787,9.718244
69243806182040,-0.076624595,0.0083931815,9.711385
69243826037913,-0.07985119,0.029388653,9.69675
69243845895438,-0.06762993,0.04505702,9.697721
69243865751311,-0.06859495,-0.013811779,9.7146015
69243885607184,-0.11714488,-0.06003355,9.695053
69243905463057,-0.12430172,-0.024499446,9.713902
69243925318930,-0.11535743,0.0047530425,9.743709
69243945174803,-0.09448835,0.0018047519,9.717631
69243965031736,-0.041212756,0.01323175,9.695624
69243984887609,-0.06310942,0.056710314,9.7009
69244004743482,-0.09882365,0.056620937,9.750195
69244024599355,-0.10656815,0.08786506,9.774779
69244044464870,-0.09977047,0.079252206,9.775034
69244064320871,-0.084823236,-8.8305515E-4,9.751624
69244084176978,-0.04228139,0.0016256502,9.72814
69244104033107,-0.024319835,0.04018376,9.684926
69244123889236,-0.09770128,0.04442873,9.693256
69244143745365,-0.08439924,0.014553986,9.683809
69244163605378,-0.064316794,0.029424502,9.710602
69244183461635,-0.07428563,0.017717881,9.745126
69244203317892,-0.040460978,0.015947971,9.774063
69244223174149,-0.048502456,0.04147516,9.774916
69244243030406,-0.010775387,0.055317186,9.790337
69244262883689,-0.024487026,0.055888273,9.764971
69244282739818,-0.037476752,0.06475442,9.767218
69244302596075,-0.05121902,0.08139508,9.765072
69244322452204,-0.066635855,0.08164725,9.766852
69244342304797,-0.0660826,0.06448293,9.761191
69244362160926,-0.04217239,0.06893928,9.738869
69244382017183,-0.016317004,0.071082,9.736927
69244401873312,-0.008682172,0.067130834,9.7456
69244421729441,-0.04730893,0.053412642,9.744915
69244441585570,-0.07133535,0.028475096,9.740153
69244461445893,-0.07291587,0.011520348,9.741757
69244481302150,-0.039632507,0.043915775,9.745073
69244501158407,-0.013555997,0.07649619,9.782593
69244521014536,-0.05644973,0.06643499,9.773441
69244540870793,-0.07477584,0.047145676,9.794673
69244560730716,-0.030361002,0.07148875,9.793664
69244580586973,-0.04237691,0.041889712,9.776711
69244600443358,-0.050842207,0.033361156,9.707596
69244620299615,-0.062219523,0.07869874,9.70688
69244640156866,-0.065913245,0.15492095,9.713114
69244660013251,-0.047166355,0.14371437,9.747139
69244679869636,-0.030778067,0.1010612,9.774132
69244699726021,-0.04583649,0.048279066,9.787635
69244719582278,-0.05654619,0.039782178,9.780286
69244739438663,-0.038323477,0.07308092,9.756598
69244759300394,-0.08260989,0.07699828,9.722947
69244779156779,-0.11775547,0.058394924,9.736353
69244799013164,-0.06556106,0.031029062,9.745787
69244818869677,-0.06826307,0.034669835,9.754881
69244838726062,-0.070808426,0.04849981,9.773819
69244858586253,-0.0689206,0.07300453,9.797369
69244878442766,-0.049896877,0.06760667,9.810229
69244898299279,-0.026144084,0.062350675,9.780913
69244918155792,0.008415567,0.06615867,9.761271
69244938012305,-0.012709001,0.06225886,9.745835
69244957868818,-0.08031905,0.07603784,9.737891
69244977717035,-0.103305295,0.07770376,9.703901
69244997573420,-0.09024803,0.059843812,9.695376
69245017429677,-0.011420091,0.05244891,9.688958
69245037286039,0.03619943,0.09982125,9.735761
69245057146818,-0.029815178,0.084457636,9.757198
69245077003203,-0.066282004,0.061880153,9.788999
69245096859716,-0.04528698,0.06688106,9.786862
69245116716101,-0.008936375,0.057633717,9.765344
69245136572486,0.01563779,0.0550353,9.769853
69245156419959,0.025391698,0.066854835,9.759125
69245176276216,-0.015598202,0.0797472,9.735523
69245196132473,-0.05871315,0.07115384,9.793801
69245215988858,-0.085548334,0.058891457,9.751074
69245235845115,-0.02563045,0.028216392,9.733791
69245255701500,-0.012149331,0.048452295,9.6961565
69245275549657,-0.031108415,0.09517265,9.737349
69245295405786,-0.019503662,0.11050862,9.75036
69245315261915,-0.038609546,0.07602235,9.804076
69245335118044,-0.006892306,0.040099055,9.811516
69245354964617,0.019022433,0.04223123,9.799997
69245374820490,0.009330957,0.063984185,9.785208
69245394676491,-0.026390443,0.078035794,9.746285
69245414532364,-0.07311292,0.080172114,9.708292
69245434388365,-0.098251946,0.059475314,9.694713
69245454244024,-0.06447515,0.037272256,9.735721
69245474099897,-0.034269776,0.031731874,9.775263
69245493955770,-0.042722445,0.03138895,9.788054
69245513811750,-0.06534674,0.0527874,9.769385
69245533667623,-0.07344752,0.058198288,9.753237
69245553523496,-0.043393776,0.037243485,9.746058
69245573375053,-0.03692899,0.028553234,9.718588
69245593230798,-0.04769941,0.054661132,9.803432
69245613086543,-0.05220722,0.06144494,9.875818
69245632942288,-0.11123421,0.06456637,9.823351
69245652798387,-0.12464723,0.046282895,9.793403
69245672654132,-0.07970921,0.051224772,9.740187
69245692510005,-0.023903158,0.072499186,9.749516
69245712365750,-0.024047865,0.08599038,9.723913
69245732221623,-0.08037625,0.032970566,9.702788
69245752077368,-0.087328136,-0.032358244,9.766089
69245771933063,-0.083672665,0.012608238,9.754812
69245791788808,-0.07587676,0.07819992,9.6791
69245811644553,-0.06949074,0.09623296,9.73629
69245831500298,-0.06596881,0.06490496,9.773758
69245851356171,-0.031084973,0.0130947,9.757012
69245871205170,-0.03780415,0.006494023,9.780907
69245891060787,-0.015147508,0.057880707,9.772905
69245910916404,-0.031612117,0.105424725,9.78573
69245930772021,-0.073822536,0.11132185,9.784371
69245950628704,-0.09468171,0.08924209,9.745519
69245970484193,-0.067590885,0.0364926,9.709277
69245990339660,-0.033050667,0.012811489,9.739145
69246010195149,-0.023451738,0.019533446,9.755222
69246030050766,-0.05516863,0.026266225,9.752077
69246049906255,-0.07234488,0.01322342,9.714982
69246069762872,-0.054580882,0.0051139845,9.722751
69246089618361,-0.039818417,0.015767522,9.713407
69246109473850,-0.048651647,0.029606827,9.731805
69246129329467,-0.040920664,0.003058146,9.775752
69246149184956,-0.035707276,-7.3661347E-4,9.826318
69246169042213,-0.04418193,0.020241927,9.845441
69246188897702,-0.047879532,0.06072942,9.859978
69246208753319,-0.06883446,0.06603005,9.818182
69246228608808,-0.074997894,0.045258652,9.7884445
69246248471185,-0.052272946,0.060663704,9.736323
69246268326930,-0.016964184,0.06660347,9.692064
69246288182547,-0.01220782,0.050109327,9.654376
69246308038292,-0.08615848,0.04114463,9.660533
69246327893909,-0.12151569,0.021918224,9.693251
69246347749526,-0.09643669,0.046567913,9.722917
69246367610929,-0.05806065,0.037451662,9.754123
69246387466802,-0.021831743,0.024079075,9.788748
69246407322675,-0.011934756,0.05880359,9.797934
69246427178420,-0.040320177,0.08363421,9.812705
69246447034293,-0.07094945,0.07763515,9.807814
69246466892192,-0.08167332,0.032486968,9.774662
69246486748193,-0.06816404,0.020468885,9.749314
69246506604194,-0.091780335,0.029637368,9.7518425
69246526460067,-0.07680918,0.057182003,9.789535
69246546316068,-0.07254935,0.041557327,9.758931
69246566172069,-0.073365726,0.0041891234,9.732536
69246586037792,-0.037464287,0.01120091,9.718022
69246605893921,-0.031049851,0.018382268,9.697443
69246625750050,-0.048526186,0.025697399,9.693712
69246645606307,-0.10348143,0.002951768,9.714356
69246665464314,-0.12060302,-0.026798785,9.74853
69246685320571,-0.06778691,-0.025358753,9.823749
69246705176828,-0.044097066,-0.012202941,9.8385105
69246725033213,-0.049728718,0.016408475,9.836425
69246744889470,-0.028485583,0.05581063,9.808021
69246764748573,-0.050436985,0.031664506,9.783554
69246784604958,-0.03885345,-0.0053243423,9.753631
69246804461215,-0.038024105,-0.017206442,9.734135
69246824317600,-0.056238305,0.024389641,9.710362
69246844173985,-0.076097935,0.011063011,9.691161
69246864030242,-0.09436271,-0.007865294,9.698094
69246883880343,-0.084873326,0.003914664,9.721329
69246903736600,-0.066317044,0.0032279494,9.736071
69246923592857,-0.042175543,0.021604793,9.74973
69246943448964,-0.049159944,-0.029210173,9.771526
69246963292397,-0.05275926,-0.013601358,9.787281
69246983148270,-0.048020564,-0.048804536,9.811592
69247003004143,-0.030775042,-0.07510404,9.792798
69247022860144,-0.010933927,-0.085033104,9.771487
69247042716017,-0.007970633,-0.06071354,9.782293
69247062565538,-0.010210663,-0.054939557,9.765138
69247082421411,-0.014381241,-0.03454684,9.729415
69247102277284,0.014479938,-0.050124135,9.719401
69247122133029,-0.036945086,-0.08676774,9.706092
69247141988902,-0.057273574,-0.101341255,9.756668
69247161844775,-0.049224988,-0.065857805,9.801996
69247181697620,-0.011088671,-0.05814476,9.813992
69247201553493,-0.0036036961,-0.05127241,9.813989
69247221409238,-0.018112907,-0.030467508,9.790789
69247241264983,-0.030428667,-0.028736675,9.803009
69247261121492,-0.008694037,-0.090807386,9.788643
69247280977237,0.04797484,-0.11330979,9.7372265
69247300832982,0.038419366,-0.0745271,9.722105
69247320688727,-0.005100912,-0.045506485,9.6586485
69247340544472,-0.044714276,-0.041594274,9.650091
69247360400217,-0.0076509495,-0.057748284,9.678933
69247380251374,0.054097693,-0.09745797,9.671215
69247400106991,0.043867555,-0.07461319,9.743096
69247419962714,-0.00987162,-0.012185616,9.794416
69247439818331,-0.051235326,-0.018353209,9.835559
69247459673948,-0.031777382,-0.03480065,9.848194
69247479522963,-0.009800169,-0.07950376,9.85104
69247499378324,-0.0093200775,-0.07595897,9.834486
69247519233813,-0.0092899,-0.058350675,9.788359
69247539089302,-0.012534278,-0.047945216,9.755147
69247558946297,-0.0113387285,-0.06673765,9.714773
69247578801786,0.016274597,-0.06766455,9.672406
69247598657275,0.0289806,-0.090864144,9.687557
69247618512764,-0.007331473,-0.06302023,9.671677
69247638368253,-0.024671925,-0.054547466,9.704867
69247658223742,-0.0083105955,-0.068245955,9.764438
69247678081193,0.0317799,-0.082233004,9.793446
69247697936682,-0.0036582497,-0.04978918,9.778574
69247717792171,-0.030618548,-0.055458948,9.804993
69247737647660,-0.052007858,-0.07266315,9.845044
69247757503021,-0.05016098,-0.07733732,9.842017
69247777364050,0.0049301083,-0.08230425,9.828343
69247797219539,0.0068916,-0.046165258,9.798368
69247817075156,-0.013574551,-0.043025028,9.733646
69247836930645,-0.016367316,-0.06739849,9.676714
69247856787640,0.019723982,-0.10643921,9.675637
69247876643129,0.04924491,-0.1070653,9.675667
69247896498726,-0.018033283,-0.08344976,9.710681
69247916354343,0.0026088133,-0.056158904,9.745128
69247936209960,-0.004376473,-0.01845747,9.788549
69247956065577,-0.05234365,-0.015546322,9.804329
69247975923486,-0.041923225,-0.04067657,9.785025
69247995779103,-0.034129974,-0.044849012,9.811301
69248015634720,-0.03947269,-0.020991908,9.831737
69248035490465,-0.02894515,-0.04525566,9.797693
69248055346082,-0.039300766,-0.07538653,9.800127
69248075194479,-0.014103748,-0.10365961,9.771793
69248095049968,-0.033286896,-0.09818712,9.762635
69248114905457,-0.054970007,-0.052333586,9.728978
69248134760818,-0.04100954,-0.02529513,9.727165
69248154616307,-0.017754393,-0.06249793,9.702574
69248174471796,0.0060057365,-0.08596335,9.706427
69248194332519,0.02764638,-0.09673008,9.693497
69248214188264,-0.003351661,-0.07967191,9.699722
69248234043881,-0.04465484,-0.042581663,9.754536
69248253899498,-0.050490793,-0.041409504,9.812552
69248273756883,-0.045524437,-0.057301417,9.889106
69248293612628,-0.025375025,-0.03596081,9.878442
69248313468245,0.013529685,-0.08130405,9.814953
69248333323990,-0.029731087,-0.04121364,9.785471
69248353179607,-0.06836443,-0.043433487,9.758594
69248373043998,-0.06443689,-0.04042121,9.771424
69248392899999,-0.014883793,-0.06776377,9.762276
69248412755872,0.034408618,-0.1207314,9.7267275
69248432611873,0.024539247,-0.09570937,9.7307825
69248452467746,-0.032280028,-0.032170884,9.698351
69248472323747,-0.038678307,-0.025849905,9.674897
69248492182162,-0.010388592,-0.038800046,9.6737175
69248512038163,0.024472876,-0.092328645,9.730979
69248531894164,0.027261809,-0.08726178,9.761664
69248551750165,-0.02487148,-0.027404103,9.794464
69248571604544,-0.044027433,-0.016362702,9.773074
69248591460545,-0.03351024,-0.0109707555,9.800761
69248611316418,-0.038257293,-0.030446624,9.813193
69248631172419,-0.04878338,-0.07095149,9.835232
69248651028292,-0.03913999,-0.04975982,9.824127
69248670884293,-0.011461216,-0.040859018,9.796963
69248690736886,-0.004225165,-0.03402033,9.739846
69248710592759,-0.013066028,-0.04109395,9.712472
69248730448632,-0.02912185,-0.06454063,9.67238
69248750304377,-0.0015593624,-0.059876483,9.659759
69248770160250,0.017353332,-0.054318223,9.71675
69248790024681,0.008855783,-0.050145652,9.729732
69248809880810,-0.04321223,-0.046892002,9.714486
69248829736811,-0.04890477,-0.048650958,9.7723055
69248849592790,-0.03609153,-0.05570588,9.829626
69248869446939,-0.017698258,-0.033379257,9.79848
69248889302940,-0.013905408,-0.014233697,9.790687
69248909158941,-0.05504363,-0.01784089,9.787565
69248929014942,-0.07095607,-0.044257674,9.801774
69248948870943,-0.071621574,-0.074117266,9.789923
69248968727072,-0.041920535,-0.05438765,9.7762985
69248988579171,-0.033267945,-0.005674123,9.756659
69249008435044,-0.029438395,-0.017514262,9.727227
69249028291045,-0.0209228,-0.065021075,9.6993065
69249048146918,-0.012780953,-0.06886766,9.70854
69249068002919,-0.014287282,-0.07181565,9.700564
69249087850710,-0.0025821957,-0.06624567,9.723624
69249107706455,-4.3282422E-4,-0.042316653,9.750335
69249127562200,-0.01708395,-0.036621545,9.795967
69249147417945,-0.056479767,-0.012206968,9.80733
69249167269192,-0.047978263,-0.01984966,9.794166
69249187124937,-0.018193096,-0.031402525,9.793529
69249206980554,-0.02213814,-0.04590145,9.808982
69249226836171,-0.007573434,-0.07273772,9.806082
69249246691788,-0.020387772,-0.07308864,9.780582
69249266547533,-0.03592495,-0.048764724,9.738566
69249286401980,-0.017719135,-0.05180842,9.735532
69249306257597,-0.025971755,-0.058956508,9.740454
69249326113192,-0.006007117,-0.0817875,9.739024
69249345968809,0.008069896,-0.06417955,9.752011
69249365824426,0.019043904,-0.04565867,9.789208
69249385677849,0.018648013,-0.06466031,9.769022
69249405533466,-0.0075049205,-0.10060356,9.70874
69249425389083,-0.021128481,-0.08350281,9.7281475
69249445244700,0.0062890286,-0.05929158,9.779557
69249465100317,0.025553627,-0.042101827,9.773795
69249484956062,0.022265358,-0.047437694,9.779736
69249504813709,-0.007260284,-0.0996367,9.783133
69249524669326,-0.03188275,-0.10756072,9.781697
69249544524943,-0.058102645,-0.08335913,9.782164
69249564380560,-0.006383719,-0.050713465,9.765761
69249584230971,0.050728932,-0.050410833,9.775441
69249604086588,0.03466479,-0.031206217,9.745172
69249623942077,-0.0035012844,-0.05578732,9.748317
69249643797694,-0.038430367,-0.06705107,9.734313
69249663653183,-0.0018675403,-0.03403274,9.732067
69249683503310,0.020172682,-0.050631713,9.729358
69249703358671,0.036288574,-0.07781737,9.770831
69249723214032,0.011145692,-0.06030529,9.79775
69249743069393,-0.016200788,-0.042421706,9.80447
69249762924754,-0.037022233,-0.0058853803,9.788103
69249782780115,-0.025401697,-0.001269909,9.759091
69249802639770,0.001992767,-0.04441191,9.748018
69249822495131,0.017272472,-0.06385255,9.760556
69249842350620,0.024275124,-0.08124679,9.762567
69249862205981,0.024283528,-0.0557466,9.780591
69249882061452,0.048720237,0.0068750177,9.777911
69249901916813,0.014476122,0.06811577,9.762256
69249921772174,-0.02283161,-0.006320483,9.716099
69249941627663,-0.03124087,-0.08558033,9.707303
69249961483024,0.01629025,-0.024652965,9.749335
69249981346297,0.07221072,-0.040498704,9.728447
69250001201914,0.0037378718,-0.089985885,9.698563
69250021057403,-0.0033011395,-0.13104448,9.807252
69250040913020,0.011894882,-0.09411343,9.819919
69250060768509,0.00644702,-0.025872491,9.787345
69250080623998,0.017564058,-0.0093053775,9.757854
69250100478389,-0.03823291,-0.049137805,9.741674
69250120334006,-0.075259075,-0.07275316,9.766191
69250140189495,-0.0010655473,-0.08150788,9.771541
69250160044984,0.05201834,-0.07756363,9.771982
69250179900689,0.017566921,-0.08238622,9.721856
69250199756306,-0.020869484,-0.07826752,9.720183
69250219611795,0.009527747,-0.08393795,9.727874
69250239467412,0.03428358,-0.074834615,9.723258
69250259322901,0.017715277,-0.06156453,9.738863
69250279178368,0.028907668,0.03628684,9.777428
69250299040657,0.0251475,0.041132938,9.789972
69250318896274,0.02369792,0.10156137,9.789515
69250338751891,0.040495485,0.09666306,9.79141
69250358607636,0.0476768,0.0379556,9.787894
69250378463253,0.045900416,0.016333118,9.796171
69250398327342,0.002470005,0.02189136,9.777809
69250418183215,-0.011172411,0.028416576,9.755198
69250438039216,-0.0049066055,0.064097345,9.746493
69250457895089,0.0024204098,0.06441271,9.73988
69250477756252,-0.0038126034,0.06089753,9.746685
69250497612253,-0.022534903,0.053310987,9.756806
69250517468254,-0.0017253456,0.026161732,9.753413
69250537324383,0.025500463,0.020508062,9.772901
69250557180384,0.006378126,0.039463937,9.779507
69250577036385,-0.0065020015,0.065502994,9.749129
69250596892690,0.004768562,0.047396243,9.74167
69250616748691,0.034319017,0.05924154,9.770638
69250636604820,0.0078460695,0.049284518,9.755579
69250656460949,-0.0011232055,0.056292236,9.744241
69250676317078,0.005041483,0.06363648,9.741879
69250696172099,-2.665029E-4,0.063970804,9.777651
69250716028100,0.014582962,0.049546484,9.781272
69250735884229,0.04172604,0.054248463,9.7647295
69250755740338,-0.05356953,0.0068480605,9.758881
69250775598045,-0.054294508,3.2723355E-4,9.764983
69250795454046,-0.06544554,0.0147118205,9.787482
69250815310175,-0.08112362,-0.023759069,9.784932
69250835166304,-0.0810823,-0.045484103,9.757031
69250855022433,-0.051275674,-0.024051458,9.743059
69250874878562,-0.046975277,-0.0030650347,9.739676
69250894728199,-0.052878745,-0.03652852,9.722961
69250914584200,-0.03482115,-0.017830083,9.734745
69250934440201,-0.028660994,-0.009824391,9.751546
69250954296202,-0.020208834,0.030381693,9.821812
69250974152203,-0.038988806,9.012817E-4,9.8219185
69250994000136,-0.056768592,-0.024698319,9.833808
69251013855881,-0.06280425,-0.039040953,9.808372
69251033711754,-0.06273355,-0.0023466474,9.798714
69251053567627,-0.054951254,0.034762457,9.755646
69251073423372,-0.062135328,0.008580601,9.697692
69251093279245,-0.04635466,-0.03048917,9.6907215
69251113133940,-0.044938307,-0.008506175,9.723769
69251132989813,-0.075625606,-0.031634502,9.705753
69251152845558,-0.065441094,-0.052649353,9.723983
69251172701431,-0.0619257,-0.03927637,9.736807
69251192553574,-0.058064375,0.008151137,9.757859
69251212409319,-0.026420508,0.061146446,9.809772
69251232265043,-0.033172533,-0.011048341,9.829436
69251252120660,-0.044586122,-0.059244134,9.824449
69251271976405,-0.06489937,-0.091824286,9.785533
69251291829066,-0.087138794,-0.02857354,9.79106
69251311684683,-0.06354247,0.016454792,9.761978
69251331540300,-0.04756134,0.012102392,9.721461
69251351395789,-0.031970117,-0.024959061,9.708091
69251371251406,-0.031054676,-0.045102436,9.721234
69251391107023,-0.013495305,-0.03181971,9.722911
69251410961202,-0.058672916,-0.024114022,9.751834
69251430816819,-0.09032102,-0.028078787,9.738361
69251450672436,-0.04382155,-0.0029020547,9.756686
69251470527925,-0.028542422,-0.0014816761,9.777002
69251490383322,-0.029401654,0.006669412,9.783008
69251510238811,-0.05647348,0.046746437,9.793508
69251530094300,-0.074017495,0.04253974,9.805303
69251549949917,-0.07155522,0.010638247,9.785917
69251569805406,-0.059058864,-0.014148975,9.789827
69251589659145,-0.023396365,7.252216E-5,9.810013
69251609514762,-0.039520465,0.010258258,9.785285
69251629370251,-0.041756585,0.008760751,9.772671
69251649225740,-0.035592828,0.014355805,9.745903
69251669081357,-0.058328085,-0.013011464,9.708161
69251688936846,-0.04759107,-4.2830905E-4,9.718407
69251708786341,-0.030676588,-0.02430232,9.714805
69251728641702,-0.012702714,-0.04609332,9.738502
69251748497063,-0.011465803,-0.036730163,9.751498
69251768352424,-0.01918516,-0.03489576,9.761947
69251788213235,-0.03407686,0.0108048925,9.791785
69251808068596,-0.051402498,-0.008006631,9.7619705
69251827923957,-0.06484864,-0.019436305,9.7754545
69251847779446,-0.028660892,-0.07296573,9.817636
69251867634807,-0.009753145,-0.092317246,9.797118
69251887490168,-0.0017477499,-0.051109556,9.748575
69251907349921,-0.032014653,-0.04725275,9.731024
69251927205410,-0.06620786,-0.051323973,9.739418
69251947060899,-0.07210328,-0.04388028,9.738147
69251966916388,-0.047435727,-0.045864135,9.702363
69251986771877,-0.026919477,-0.03944507,9.7350645
69252006630932,-0.024630377,-0.050173555,9.769938
69252026486549,-0.024171062,-0.06906467,9.8015995
69252046342038,-0.038177792,-0.07519074,9.812642
69252066197655,-0.029550977,-0.07613551,9.785139
69252086056776,0.005063943,-0.053833414,9.755185
69252105912393,0.025879353,-0.051708236,9.743288
69252125768138,0.01450013,-0.06619939,9.747307
69252145623755,-0.012084009,-0.08952258,9.752075
69252165479500,-0.00452124,-0.06554216,9.76718
69252185335224,0.046563458,-0.028101219,9.762999
69252205192035,-6.9316E-4,-0.018430792,9.744235
69252225047780,0.0028887053,-0.02315295,9.729112
69252244903525,0.019090164,-0.063739166,9.731587
69252264759270,0.040379323,-0.108536944,9.726723
69252284614887,0.020851895,-0.0926655,9.748622
69252304478934,-8.7322755E-4,-0.060756326,9.755891
69252324334807,-0.012621106,-0.043527618,9.776934
69252344190680,5.1113375E-4,-0.04347699,9.789131
69252364046681,0.017548654,-0.036525767,9.800857
69252383902554,-0.0016326775,-0.034891948,9.7631855
69252403758427,-0.0038886843,-0.027572297,9.754298
69252423616006,-0.014472513,-0.035763755,9.765727
69252443472007,-0.01586142,-0.06921381,9.726914
69252463328008,6.9984206E-4,-0.069561414,9.749531
69252483184009,0.013278951,-0.049460325,9.79516
69252503040626,0.013454472,-0.023305746,9.777934
69252522896627,-0.023676552,0.001565384,9.761373
69252542752628,-0.025681209,-0.036722973,9.7561655
69252562608629,0.0059624966,-0.09203104,9.768413
69252582464630,-0.0026079935,-0.07996853,9.776649
69252602316995,-0.005816656,-0.042834543,9.74609
69252622172996,-0.009425365,0.010026606,9.723421
69252642028869,-0.04683047,-3.4915845E-4,9.675323
69252661884849,0.0027888955,-0.057643928,9.656624
69252681740722,0.032180738,-0.048693348,9.698206
69252701596723,0.043508988,-0.044787686,9.7173605
69252721451790,0.041273348,-0.021217264,9.74532
69252741307791,-0.0044532544,0.0060438183,9.793156
69252761163664,-0.013590792,-0.016565928,9.79179
69252781019537,-0.014933822,-0.03457956,9.779788
69252800877946,-0.02385785,-0.041894533,9.767391
69252820733947,-0.025171647,-0.02560507,9.783712
69252840589948,-0.010377987,-0.046532143,9.804384
69252860445949,0.0014115822,-0.06504074,9.78831
69252880301950,0.023475941,-0.077805094,9.759597
69252900157951,0.031645495,-0.055716332,9.750861
69252920009460,0.020653194,-0.031968087,9.733654
69252939865333,-0.019697685,-0.032626815,9.72052
69252959721206,-0.024582414,-0.030364992,9.715759
69252979577207,0.013488698,-0.03881729,9.743779
69252999433080,0.039547432,-0.03713875,9.768452
69253019280087,0.043065898,-0.05502196,9.758577
69253039135831,0.03990986,-0.06089641,9.776801
69253058991576,0.02534407,-0.04342664,9.788239
69253078847319,0.009609011,-0.05775066,9.769716
69253098696121,-0.0056461208,-0.042663462,9.800523
69253118551738,0.012220756,-0.00624517,9.820436
69253138407353,0.048751578,-0.006200951,9.776945
69253158262969,0.05608422,-0.0028311086,9.758359
69253178118586,0.053408124,-0.022881862,9.733278
69253197974073,0.051107276,-0.05241281,9.71329
69253217823649,0.03526435,-0.052539375,9.725316
69253237679010,0.022426665,-0.026697958,9.739252
69253257534497,0.026002884,-0.0062854835,9.734999
69253277389857,0.03320067,-0.0060341135,9.762621
69253297245346,0.047255225,-0.027122848,9.777196
69253317094221,0.059957992,-0.043051958,9.780701
69253336949453,0.06269024,-0.050286755,9.781483
69253356804686,0.04564465,-0.032537032,9.795736
69253376659917,0.03329,-0.0024182582,9.783676
69253396507860,0.040415023,9.094963E-4,9.789611
69253416362965,0.055615474,-0.017167259,9.772717
69253436218068,0.044684373,-0.04393314,9.765377
69253456073172,0.04214718,-0.035081737,9.737759
69253475928277,0.04893155,-0.016089508,9.727859
69253495783380,0.050730225,-0.023650413,9.711582
69253515644133,0.047069885,-0.048931513,9.707849
69253535499238,0.09304891,-0.022268558,9.690494
69253555354469,0.04882084,-0.024669923,9.710108
69253575209573,0.009147835,-0.01553769,9.730237
69253595064806,0.010961767,-0.024341356,9.814673
69253614915407,0.026197052,-0.055313226,9.893792
69253634770512,0.06444252,-0.051778935,9.910867
69253654625489,0.06943579,-0.039036863,9.857401
69253674480589,0.022293817,-0.028382914,9.786766
69253694334340,-0.016464112,-0.066903576,9.753271
69253714189317,0.009843267,-0.06381067,9.693028
69253734044292,0.05210064,-0.030129243,9.680255
69253753899396,0.10367845,-0.008367789,9.712482
69253773754373,0.08079508,-0.016732903,9.731418
69253793609348,0.018351553,-0.014999298,9.696406
69253813470712,-0.0066471575,-0.02849179,9.733872
69253833325689,0.00698085,-0.03230431,9.770905
69253853180792,0.013154119,-0.06363117,9.795876
69253873035896,0.013210871,-0.06410966,9.828177
69253892890873,0.009110815,-0.02428877,9.840537
69253912747445,-0.012762942,-0.014915657,9.809536
69253932602549,-0.003404022,-0.03378011,9.802922
69253952457654,0.08597475,-0.05865485,9.762813
69253972312885,0.07143804,-0.032271236,9.733372
69253992167989,0.026332136,0.010882442,9.70948
69254012023094,0.03681811,0.025696313,9.714007
69254031889412,0.023309804,0.00969177,9.701878
69254051744644,0.03979195,-0.0102470415,9.701534
69254071600005,0.049785074,-0.05493262,9.697064
69254091455364,0.024294458,-0.06011083,9.736867
69254111312049,-0.005217446,-0.056870952,9.748681
69254131167410,-0.0072837006,-0.04878013,9.784192
69254151022771,0.020568218,-0.035430152,9.807001
69254170878132,0.033297006,-0.054365955,9.8463
69254190733621,-0.026930604,-0.043803666,9.860096
69254210594731,-0.0126113,-0.042778805,9.846682
69254230450347,-0.027923375,-0.045512382,9.836191
69254250305836,-0.019832501,-0.052132696,9.79541
69254270161323,-0.009399339,-0.049752735,9.7520485
69254290015526,0.017100956,-0.05612643,9.6839905
69254309871015,-0.0038120702,-0.04298618,9.667286
69254329734558,-0.01315559,-0.071434155,9.648022
69254349590303,-0.014147989,-0.08814321,9.641615
69254369445920,0.004158839,-0.0815957,9.6987
69254389301665,0.027093738,-0.056730356,9.768177
69254409159748,0.014307089,-0.030579487,9.771789
69254429015493,-0.024307044,-0.0060751094,9.835624
69254448871366,-0.029607361,-0.016372658,9.831069
69254468727239,-0.05193375,-0.04910202,9.842888
69254488583112,-0.06557738,-0.03484726,9.845426
69254508442493,-0.039267406,-0.037465107,9.832065
69254528298494,-1.1428787E-4,-0.044820655,9.796838
69254548154495,0.0017356687,-0.04409447,9.755265
69254568010368,-0.01779582,-0.07238892,9.721064
69254587866369,-0.050973292,-0.088531874,9.696677
69254607722370,-0.053251505,-0.065683976,9.680418
69254627578517,0.025766034,-0.053846218,9.683865
69254647434518,0.007584562,-0.036114763,9.710271
69254667290519,-0.044503186,-0.047918525,9.738376
69254687146392,-0.0644844,-0.043688513,9.7608795
69254707002721,-0.024127692,-0.04822568,9.768252
69254726858722,-0.015677186,-0.0062793745,9.788264
69254746714723,-0.023440966,0.014233386,9.807593
69254766570702,-0.05433409,0.009430743,9.8266945
69254786426703,-0.048909586,-0.013853527,9.823907
69254806282704,-0.031589597,-0.04768739,9.810979
69254826137913,-0.013712178,-0.04754735,9.768454
69254845993914,-0.04153743,-0.036186162,9.744923
69254865849915,-0.05629909,-0.035040557,9.706618
69254885705916,-0.029544512,-0.046510745,9.700157
69254905561917,-0.010733965,-0.053178,9.689565
69254925418936,0.0027241115,-0.059470534,9.727169
69254945275065,-0.03687338,-0.04326259,9.755492
69254965131066,-0.09024222,-0.011303306,9.759196
69254984987067,-0.07960933,-0.04818765,9.731981
69255004831262,-0.037750978,-0.074086994,9.819901
69255024687007,-0.043856222,-0.079073824,9.810575
69255044542624,-0.05852127,-0.049824193,9.7867
69255064398369,-0.110717505,-0.013324501,9.771217
69255084254114,-0.1056537,-0.04015025,9.77056
69255104109859,-0.08954961,-0.059439864,9.8004675
69255123959868,-0.07060397,-0.061294213,9.795207
69255143815613,-0.041903205,-0.043934204,9.761604
69255163671230,-0.036986046,8.34776E-4,9.726456
69255183526847,-0.07316558,-0.0016464475,9.697346
69255203382592,-0.068148844,-0.041472603,9.685835
69255223236319,-0.053307675,-0.087096766,9.698668
69255243091915,-0.04558117,-0.054337002,9.730214
69255262947532,-0.039650474,-0.002993418,9.79236
69255282803021,-0.028881064,-0.0050831344,9.812257
69255302647788,-0.044319242,-1.2331194E-4,9.796341
69255322503149,-0.057158977,-0.02116107,9.761875
69255342358382,-0.053302474,-0.025030041,9.774948
69255362213743,-0.037847824,-0.015267575,9.739933
69255382069104,-0.057292014,-0.023870816,9.749266
69255401924337,-0.060348272,-0.029518964,9.755516
69255421780550,-0.04293382,-0.0373521,9.764295
69255441635911,-0.032118555,-0.056423094,9.753267
69255461491272,-0.038355324,-0.034137752,9.7731085
69255481346633,-0.044578273,7.664806E-4,9.749296
69255501201866,-0.041472703,0.021518134,9.746624
69255521055417,-0.050054826,0.0068439837,9.755781
69255540910650,-0.002529836,-0.028888762,9.782521
69255560765883,-0.018333875,-0.031676903,9.783287
69255580621116,-0.03054931,-0.04585673,9.779184
69255600476349,-0.0442784,-0.02131127,9.779968
69255620331582,-0.02820175,-0.0067940946,9.782593
69255640192441,-0.017379528,-0.019555785,9.749738
69255660047802,-0.0054345857,-0.015001833,9.743174
69255679903291,0.004712765,-0.02184626,9.725431
69255699758652,-0.035457093,0.0047102813,9.719692
69255719610109,-0.08448852,-0.0014455683,9.741549
69255739465470,-0.06757252,-0.019736314,9.754399
69255759320703,-0.059189215,-0.037597585,9.779987
69255779175936,-0.08307206,-0.040395845,9.771287
69255799031169,-0.09313371,-0.04384199,9.790784
69255818887548,-0.072212026,-0.048569776,9.778386
69255838742781,-0.08611293,-0.0034431813,9.7756605
69255858598014,-0.046515558,-0.019651009,9.747336
69255878453375,-0.019176854,-0.030954063,9.738558
69255898308608,-0.046245247,-0.010025253,9.758001
69255918163841,-0.037820444,-0.049074423,9.767215
69255938022768,-0.041415423,-0.07187096,9.744857
69255957878129,-0.0658375,-0.06393905,9.756602
69255977733490,-0.06989771,-0.009888615,9.727286
69255997588723,-0.021101167,-0.010873904,9.741998
69256017443798,-0.003831065,-0.031932652,9.774547
69256037299159,-0.0706744,-0.008402885,9.791575
69256057154520,-0.14850125,0.029003834,9.759791
69256077009753,-0.15125401,-0.024497604,9.740383
69256096865114,-0.030581448,-0.16104025,9.741159
69256116722115,0.022741778,-0.17601795,9.768382
69256136577348,-0.062213793,0.014077246,9.73343
69256156432709,-0.17319389,0.114233196,9.695333
69256176288070,-0.08735292,0.0191324,9.734882
69256196143408,0.036134806,-0.1530916,9.738748
69256215998769,-0.027843475,-0.15013961,9.7624445
69256235860060,-0.11505375,-0.09001137,9.769548
69256255715549,-0.091412194,-0.04161917,9.722051
69256275571038,-0.045295436,-0.0021103376,9.739004
69256295426527,-0.03850224,-0.049466506,9.804155
69256315281878,-0.060708623,-0.11998383,9.823183
69256335137367,-0.12766713,-0.054459836,9.818451
69256354992984,-0.12907903,-0.011303199,9.774161
69256374848473,-0.07342517,-0.0598011,9.764892
69256394703962,-0.049866688,-0.08593841,9.7739
69256414559451,-0.038409613,-0.05344774,9.784083
69256434426492,-0.009717747,-0.044500194,9.779583
69256454282237,-0.046078112,-0.034812693,9.776066
69256474137982,-0.029229367,-0.025987627,9.728953
69256493993727,0.021988165,-0.06657743,9.694374
69256513849600,-0.012722976,-0.090802215,9.691303
69256533710813,-0.04164024,-0.098478355,9.703265
69256553566814,-0.045890383,-0.040671818,9.728645
69256573422687,-0.02119845,-0.011099114,9.776621
69256593278688,0.0037892798,-0.035689283,9.8207655
69256613131989,-0.021850476,-0.0431949,9.833567
69256632987862,-0.05180927,-0.0826836,9.835545
69256652843735,-0.085692994,-0.063308775,9.813541
69256672699586,-0.09977144,-0.03178903,9.780075
69256692555587,-0.060947552,-0.072286785,9.759709
69256712411460,-0.06938774,-0.07583854,9.752374
69256732269997,-0.064479165,-0.06736093,9.697273
69256752125870,-0.07560963,-0.06881293,9.679505
69256771981871,-0.05554027,-0.08123044,9.6514845
69256791837744,-0.034941353,-0.084912,9.681172
69256811693745,-0.041809343,-0.07579394,9.692477
69256831547594,-0.08778112,-0.044216715,9.742587
69256851403467,-0.05811583,-0.03538555,9.8027
69256871259468,-0.039720852,-0.037025534,9.854265
69256891115469,-0.042458437,-0.047925904,9.83298
69256910968514,-0.05413074,-0.04075084,9.842936
69256930824387,-0.083262116,-0.036639918,9.825981
69256950680132,-0.10122648,-0.05647104,9.824973
69256970536005,-0.09348993,-0.04317733,9.778362
69256990391878,-0.054463893,-0.019054582,9.757753
69257010247623,-0.039773412,-0.025169397,9.701593
69257030101618,-0.052931376,-0.040954556,9.69466
69257049957491,-0.05518864,-0.08610155,9.678457
69257069813236,-0.024715047,-0.10835645,9.687014
69257089669109,-0.012270289,-0.06336305,9.718156
69257109524854,-0.007017887,-0.038187385,9.760912
69257129371817,-0.013387514,-0.01861161,9.768144
69257149227414,-0.054473083,-0.027467286,9.786858
69257169083031,-0.09314063,-0.050151397,9.812612
69257188938776,-0.06984215,-0.047520213,9.823629
69257208790485,-0.051342554,-0.042625464,9.818743
69257228645974,-0.04636714,-0.061263837,9.823606
69257248501591,-0.04609414,-0.04953482,9.826996
69257268357208,-0.062380604,-0.048058562,9.780903
69257288212825,-0.04400509,-0.037460975,9.734305
69257308068442,-0.040849097,-0.029484535,9.686155
69257327917957,-0.027390264,-0.06365587,9.6747055
69257347773446,-0.04907612,-0.074805304,9.665956
69257367628807,-0.03175453,-0.07865727,9.694807
69257387484296,-0.017879521,-0.059995353,9.712031
69257407339657,-0.043917697,-0.01776979,9.777839
69257427196982,-0.06421744,-0.008287298,9.827877
69257447052471,-0.053993225,-0.03383477,9.840993
69257466907960,-0.08038678,-0.018823182,9.845323
69257486763321,-0.08393279,0.0013624057,9.875596
69257506618810,-0.06323804,-0.03207593,9.828883
69257526474299,-0.040822864,-0.035412565,9.762491
69257546313636,-0.06500924,-0.04821819,9.688616
69257566168741,-0.071827166,-0.05187546,9.654444
69257586023846,-0.08551777,-0.050620962,9.6461315
69257605879079,-0.044579055,-0.0570941,9.658464
69257625736569,-0.025315342,-0.03632225,9.674723
69257645591674,-0.04318348,-0.028049482,9.688147
69257665446779,-0.07914736,-0.012335979,9.729731
69257685301884,-0.09302569,-0.005222357,9.768836
69257705156989,-0.06642486,-0.038330663,9.8152485
69257724997472,-0.05876096,-0.06117191,9.837819
69257744852193,-0.046458285,-0.027300883,9.885456
69257764707042,-0.05506725,-0.0081681255,9.8673315
69257784561763,-0.06794338,-0.0038116812,9.834687
69257804416612,-0.060788807,0.0114183165,9.783117
69257824271333,-0.046055738,0.014097642,9.752361
69257844117588,-0.055703934,0.0035209993,9.716977
69257863972181,-0.05024089,-0.04305445,9.705092
69257883826774,-0.042519584,-0.07236135,9.660357
69257903681367,-0.007636922,-0.068717815,9.666942
69257923530702,-0.021948045,-0.042236187,9.662766
69257943385039,-0.0495015,0.008732782,9.691681
69257963239376,-0.054579213,0.022939563,9.735994
69257983093841,-0.046256557,-0.020541059,9.794381
69258002948178,-0.010002236,-0.06674502,9.8125725
69258022823237,0.0152809555,-0.03069576,9.836403
69258042678086,-0.012326585,9.633186E-4,9.876292
69258062532807,-0.06606244,-0.004807161,9.854898
69258082387656,-0.06606168,-0.032685842,9.805843
69258102242353,0.048274714,-0.023414332,9.8028755
69258122097202,0.039552864,0.033467464,9.771494
69258141963223,0.023464955,0.050295077,9.732986
69258161818200,0.0011182274,-0.006542579,9.68516
69258181673177,0.034275208,-0.009848862,9.676716
69258201528154,0.04001661,0.012537576,9.702719
69258221393279,0.04325874,0.009299301,9.699057
69258241248512,0.047377322,-0.0160185,9.720384
69258261103617,0.033242326,-0.015894128,9.7375145
69258280958850,0.005055361,-0.0467661,9.772741
69258300814083,0.037470054,-0.021209631,9.797627
69258320669188,0.09035895,0.012463055,9.820931
69258340524975,0.08111993,0.018065654,9.806237
69258360380208,0.03036128,0.010498205,9.810282
69258380235441,0.005967543,0.022984305,9.78705
69258400090802,5.3661707E-4,0.018019132,9.781937
69258419946035,0.024964137,8.505411E-4,9.767059
69258439815318,0.06324175,0.01725899,9.751983
69258459670807,0.03756347,0.020548413,9.759231
69258479526424,0.014474556,0.02474455,9.753878
69258499381913,0.026957968,0.01803776,9.750499
69258519252110,0.04455964,0.028911611,9.754899
69258539107983,0.035888672,-0.0028518916,9.729894
69258558963856,0.0341801,-0.021569952,9.738665
69258578819837,0.030505732,0.020260213,9.748952
69258598675710,0.036931578,0.009500544,9.741148
69258618531583,0.06792354,0.039875846,9.757862
69258638397098,0.054252625,0.06336285,9.759059
69258658253355,0.02408839,0.016435502,9.774665
69258678109484,0.005504474,-0.0072737443,9.783233
69258697965741,0.0272325,0.009187316,9.775489
69258717821870,0.047099132,0.013632479,9.766607
69258737684637,0.031215183,0.010860442,9.816884
69258757541022,0.034711886,0.037884217,9.762662
69258777397407,0.041306384,-0.008534134,9.732864
69258797253664,0.060941964,0.01457382,9.728933
69258817113609,0.067303225,0.042546816,9.755874
69258836969994,0.044618137,0.024316603,9.758655
69258856826507,0.0394211,-0.015768198,9.76701
69258876683020,0.034291703,-0.034498874,9.726137
69258896539533,0.028898824,-0.015200188,9.707584
69258916395918,0.033992976,0.041839555,9.681648
69258936253235,0.05409561,0.04873729,9.742344
69258956109876,0.0336347,0.00320936,9.802965
69258975966389,0.013900248,-0.0018573378,9.86867
69258995823030,-0.010392747,0.02020965,9.877044
69259015679543,6.2403455E-4,0.041979607,9.810533
69259035534788,0.0252441,0.018908197,9.792052
69259055391537,0.020755898,-0.0067499327,9.793675
69259075248178,0.026957626,0.017956214,9.762736
69259095104819,-0.003372108,0.077533275,9.769005
69259114961588,-0.019369483,0.043600164,9.807299
69259134818229,-0.023033766,0.037021223,9.766086
69259154662962,-0.0116289,0.015287836,9.715791
69259174519347,0.019068647,0.013477918,9.675633
69259194375732,0.044699717,0.004919383,9.678757
69259214232117,0.040862896,0.028652027,9.707321
69259234083680,0.046098504,0.055751245,9.7459545
69259253940065,0.028433735,0.06313145,9.760543
69259273796450,0.029268326,0.0052961246,9.799068
69259293652963,0.03725965,-0.042595137,9.798765
69259313509348,0.023161689,-0.04406497,9.82962
69259333346113,0.02989738,-0.0013669768,9.808706
69259353202114,0.030319463,0.0230995,9.776787
69259373057987,0.041797232,0.026329715,9.796128
69259392913988,0.041482676,0.029661436,9.791308
69259412769861,0.008266383,0.055219173,9.740912
69259432625862,-0.005027426,0.056858603,9.736962
69259452472793,0.021791438,0.012915208,9.741732
69259472328410,0.036985528,0.0065605,9.764915
69259492184027,0.05018198,-0.0105079105,9.74392
69259512039644,0.010014588,0.011154727,9.747235
69259531885910,-0.031458225,0.0070246784,9.73158
69259551741271,-0.004060305,0.028434768,9.730443
69259571596504,0.02316822,0.038138594,9.731827
69259591451865,-0.029699173,0.037095528,9.734811
69259611307098,0.0025997984,0.008375543,9.785691
69259631164141,-0.005835934,-0.01030318,9.800796
69259651019502,-0.029167801,-0.009991517,9.789289
69259670874863,-0.017989447,0.011418624,9.775678
69259690730224,-0.01199235,0.025518851,9.761905
69259710585585,0.0147712,0.041156486,9.722514
69259730440946,0.024722708,0.008326799,9.752795
69259750300149,0.00680849,0.009418884,9.745278
69259770155638,-0.017278722,0.037666015,9.772455
69259790010999,-0.023173537,0.05350712,9.777361
69259809866488,-0.029504806,0.035350006,9.772257
69259829723087,0.0050468436,0.028746454,9.743892
69259849578576,0.029359207,0.02757583,9.762857
69259869433937,0.0039229933,0.027365997,9.771559
69259889289426,-0.028017312,0.023773616,9.786875
69259909144787,-0.04369567,0.03831479,9.773695
69259929000276,0.0024314749,0.042505268,9.773498
69259948849007,0.0064589325,0.04253053,9.785273
69259968704112,-0.0016677185,0.041360017,9.779286
69259988559217,-0.0062949746,0.06082133,9.721396
69260008414427,0.018218193,0.071542844,9.741478
69260028269532,-0.0071362,0.0658518,9.748372
69260048134969,-0.06626568,0.05129011,9.716915
69260067990330,-0.01490184,0.036713004,9.6965885
69260087845691,-0.018467033,0.06544199,9.683063
69260107701052,0.018688343,0.08175882,9.731672
69260127556145,0.026080491,0.05977969,9.740714
69260147411634,0.006135926,0.046268307,9.766042
69260167266995,-0.0202899,0.025337243,9.793857
69260187122356,0.016670072,0.03009884,9.800589
69260206977717,0.016955689,0.05355799,9.795211
69260226833206,0.0025517005,0.07289644,9.8222685
69260246693029,-0.011106891,0.05524939,9.803231
69260266548518,0.007903572,0.018454133,9.784531
69260286404007,0.012825941,0.0054937494,9.779453
69260306259496,-0.0077543985,-0.0028895896,9.749262
69260326114985,-0.0068611945,0.018650673,9.712082
69260345973582,0.022962354,0.01901977,9.7355385
69260365829199,0.0016670276,0.005727927,9.751087
69260385684816,0.009451831,0.014035686,9.740812
69260405540433,0.0066363565,0.03752109,9.748179
69260425398714,-0.018146913,0.05581775,9.752014
69260445254459,-0.0012559635,0.02238499,9.772392
69260465110204,0.031234862,0.009536773,9.756473
69260484965799,0.039897487,0.041933816,9.748305
69260504821544,0.029520476,0.05462855,9.769609
69260524677289,-0.008314189,0.04760639,9.782021
69260544536332,-0.0118871825,0.039875537,9.779233
69260564392205,0.011345745,0.016737012,9.7704115
69260584247950,0.01523924,0.01965881,9.796413
69260604103823,0.011986561,0.03151292,9.782113
69260623959696,-0.023001213,0.076008685,9.761174
69260643817167,-0.007319572,0.05199187,9.768584
69260663673168,-0.014432313,0.006554428,9.749385
69260683529041,-0.038268995,-1.445177E-4,9.722382
69260703384914,-0.018484542,0.02569155,9.689162
69260723240787,0.0060446933,0.042973284,9.731196
69260743096660,2.764183E-4,0.018848812,9.776686
69260762952825,-0.00332618,0.031613518,9.811749
69260782808826,-0.014281596,0.04568774,9.827912
69260802664699,-0.02834909,0.02377476,9.847041
69260822520572,-0.029480051,0.0155185545,9.774677
69260842372203,-0.013124534,6.9663307E-4,9.745436
69260862227948,-0.03201427,0.002546208,9.748056
69260882083821,-0.014638783,0.023326147,9.73606
69260901939694,-0.020783056,0.017683918,9.730776
69260921795439,-0.0956125,0.020604046,9.732166
69260941643814,-0.07927591,0.046625484,9.744003
69260961499409,-0.0066984408,0.06719408,9.752768
69260981355026,0.006523597,0.041041628,9.7484255
69261001210643,0.033779103,-0.0021698494,9.768024
69261021066132,0.047050744,0.0103018405,9.778237
69261040921749,0.009433113,0.049898665,9.791124
69261060779834,0.016699603,0.05197131,9.813977
69261080635451,-0.0038752954,0.059149113,9.815099
69261100491196,0.025594618,0.051658787,9.784822
69261120346813,0.032841355,0.034162518,9.748462
69261140196586,0.01313632,0.027880022,9.728943
69261160052075,0.0017746564,0.042692557,9.712135
69261179907564,9.592473E-4,0.03377052,9.718474
69261199763181,-0.004311361,0.035449546,9.749114
69261219618670,0.022062918,0.026417276,9.7741785
69261239474769,0.028413588,0.0031547812,9.768495
69261259330258,0.030585725,0.040539723,9.748098
69261279185747,0.00856163,0.043129686,9.772436
69261299041236,0.030829428,0.01086623,9.794135
69261318896725,0.01532312,0.003939789,9.768821
69261338752214,0.0022152306,0.0053855176,9.749264
69261358604411,0.01921531,0.03546536,9.76121
69261378459900,0.0073738913,0.048642557,9.781854
69261398315389,0.041175958,0.035370655,9.781093
69261418170878,0.048122376,0.00926629,9.75339
69261438025603,0.018402759,-0.008123635,9.736604
69261457881092,0.020215085,0.00964517,9.750443
69261477736453,0.011883263,0.034289736,9.75015
69261497591942,-0.012828551,0.046130966,9.765124
69261517447303,0.0153637165,0.042593822,9.72328
69261537302792,0.020523187,0.010703388,9.732878
69261557151959,-0.024758255,-0.0043960507,9.672393
69261577007320,-0.032610778,0.008906817,9.64432
69261596862553,0.030821789,0.008049626,9.686854
69261616717914,0.02955043,0.015567663,9.787212
69261636573147,0.020786885,0.0020198694,9.875394
69261656431300,-0.020341126,0.019862475,9.922119
69261676286661,4.695758E-4,0.048351847,9.925508
69261696142022,0.010546682,0.041966297,9.885132
69261715997383,0.021672849,0.016945945,9.852796
69261735848184,0.017815454,0.00840608,9.7535925
69261755703417,0.0059365076,0.02523725,9.72566
69261775558778,-0.013916303,0.025290852,9.726949
69261795414011,-0.042327438,0.032150004,9.760826
69261815269244,-0.0851396,0.024853025,9.738082
69261835124477,-0.070850894,0.03747561,9.708396
69261854974626,-0.032461446,0.050247837,9.671631
69261874829731,6.9442262E-6,0.0581747,9.7086
69261894684964,0.01854777,0.026495669,9.688402
69261914540047,0.006603662,0.041066322,9.694304
69261934395152,-0.020308193,0.06930848,9.754213
69261954248379,-0.01275278,0.05260369,9.79641
69261974103356,0.0027165208,0.02659109,9.76363
69261993958461,-0.0062460722,0.054720886,9.774876
69262013813566,0.024090124,0.062353957,9.809034
69262033672683,0.035756208,0.058463126,9.843875
69262053527788,0.046329472,0.009044711,9.819835
69262073382893,-0.010773724,-0.034256086,9.795924
69262093237998,0.0013502245,-0.026535284,9.787295
69262113093103,0.006911589,0.053923238,9.73482
69262132948208,-0.015760189,0.10761066,9.701816
69262152810907,-0.0057237744,0.072648026,9.688624
69262172666140,-0.0019902228,-0.0037342447,9.711277
69262192521501,-0.004410474,-0.04918525,9.751628
69262212376734,9.57591E-4,-0.031831242,9.787988
69262232231967,0.009819606,0.03150049,9.788635
69262252095668,0.032019,0.013303838,9.802877
69262271951157,0.031050466,-0.01602005,9.752019
69262291806518,0.02834628,-0.010820589,9.732267
69262311662007,0.009078959,0.04110065,9.745668
69262331506804,0.003978431,0.07171617,9.753264
69262351362037,-0.029727586,0.034309,9.762842
69262371217270,-0.0022434941,-0.03992874,9.782228
69262391072610,-0.013826562,-0.061714258,9.766331
69262410927843,0.04551236,-0.038686916,9.775823
69262430783076,0.05631519,0.03966723,9.749659
69262450646171,0.06364749,0.044810347,9.743314
69262470501660,0.07419548,-0.010414288,9.711638
69262490357021,0.035232466,-0.034050748,9.724298
69262510212382,0.04262057,-0.04067344,9.749169
69262530067871,0.0737309,-1.8379858E-4,9.744713
69262549932368,0.08286621,0.02352835,9.769071
69262569787985,0.0524302,-0.0014996376,9.806735
69262589643602,0.040463038,-0.0032606183,9.762541
69262609499091,0.034173302,-0.0054996284,9.731755
69262629354708,0.03645306,-0.006230262,9.741032
69262649210325,0.03315052,0.0014410873,9.769655
69262669071094,0.0293545,0.0017774233,9.832452
69262688926839,0.03603794,-0.03227589,9.820705
69262708782584,0.036020488,-0.053313915,9.828947
69262728638329,0.01787668,-0.028352046,9.778482
69262748499754,0.04215007,0.0031364118,9.75521
69262768355627,0.04095867,0.050971225,9.694959
69262788211500,0.032904524,0.05544937,9.6305065
69262808067373,-0.009528722,0.016691558,9.620568
69262827923118,-0.04835083,-0.012911136,9.694561
69262847782173,-0.03641049,0.018180927,9.706443
69262867638153,0.025201162,0.046896316,9.757751
69262887494154,0.013519031,0.037977837,9.810841
69262907350027,0.0050861747,0.0100252135,9.863932
69262927206028,-0.052635964,-0.032677196,9.865126
69262947062029,-0.024966015,-0.00866894,9.846723
69262966907516,0.01623928,-0.0034446474,9.830087
69262986763389,0.036382165,0.010539425,9.814718
69263006619134,-0.0020345422,-0.007773626,9.800704
69263026475007,0.00942265,-0.03686097,9.780293
69263046326762,0.03334807,-0.036698043,9.751335
69263066182507,0.0357856,-0.03146583,9.710395
69263086038252,0.051798575,-0.0025144122,9.70398
69263105893997,0.03346455,-0.011069837,9.698293
69263125749742,-0.025237933,-0.035253737,9.709082
69263145600863,0.00632798,-0.029865753,9.703102
69263165456480,0.015396273,-0.05603441,9.767691
69263185312097,0.049639758,-0.037225805,9.799456
69263205167842,0.051526602,-0.026959931,9.787008
69263225023459,0.0038131762,-0.029078653,9.782636
69263244879076,-0.024772264,-0.04751861,9.792588
69263264735115,-0.016312696,-0.053308487,9.783105
69263284590860,0.0308981,-0.048861537,9.812825
69263304446477,0.026828568,-0.029668285,9.798083
69263324302222,0.005323353,-0.014353084,9.801001
69263344151209,-0.0126791615,0.010483801,9.807004
69263364006698,0.036446463,-0.010804041,9.81573
69263383862187,0.07282969,0.010191096,9.786362
69263403717804,0.04843959,0.014557429,9.779188
69263423573293,-0.022418931,0.018384233,9.760158
69263443428782,-0.023101531,0.015278522,9.744593
69263463283229,8.437575E-4,0.016807461,9.686486
69263483138590,0.075165525,0.008625862,9.639899
69263502994079,0.06345834,0.0132447155,9.58495
69263522849440,0.032816716,0.03442834,9.572487
69263542704929,-0.030044245,-0.013955801,9.651231
69263562563076,-0.02776013,-0.04358449,9.727798
69263582418565,0.03994202,-0.03010214,9.830484
69263602273926,0.07185057,-0.02497788,9.891448
69263622129415,0.04503889,-0.037729785,9.917279
69263641979382,0.035637066,-0.058574185,9.880576
69263661834743,0.0025614363,-0.038942054,9.85305
69263681689976,-0.029810164,-0.012039019,9.782769
69263701545337,0.029356971,0.0034841215,9.792554
69263721400698,0.044929694,0.0014753207,9.795957
69263741255931,0.08378111,0.012621044,9.771393
69263761116584,0.10218831,-0.0076262574,9.715661
69263780971945,0.05905308,0.0013271191,9.743036
69263800827434,0.017133357,0.0065032598,9.695198
69263820682899,-0.010151858,-0.008380365,9.6631155
69263840538260,-0.012664186,-0.02339068,9.65224
69263860391677,0.027449014,-0.019614993,9.706854
69263880247166,0.074800715,0.0012056767,9.737854
69263900102655,0.07506847,0.0034537797,9.777938
69263919958016,0.01485675,-0.0036987453,9.785897
69263939803229,-0.029898115,-0.006695556,9.803536
69263959658334,-0.01835668,-0.0011780023,9.80644
69263979513439,0.02390539,0.017399026,9.802683
69263999368416,0.0028823637,-0.018595098,9.820298
69264019223521,0.021316886,-0.003938063,9.810051
69264039078626,0.009084568,0.013690712,9.805424
69264058942083,0.030443486,0.022816151,9.776292
69264078797316,0.054035425,0.010599978,9.749201
69264098652549,0.020371199,0.011437134,9.72734
69264118507782,-0.004632292,0.00458205,9.725173
69264138363015,0.015938273,6.0606474E-4,9.720107
69264158219930,0.006249369,-0.018930113,9.787809
69264178075163,0.033711493,-0.013096853,9.801896
69264197930524,0.04121088,-0.029916916,9.752703
69264217785885,0.03625411,-0.050097752,9.656702
69264237641246,0.014476596,-0.035837695,9.627284
69264257496607,0.012157268,-0.055596475,9.642432
69264277359746,0.025008146,-0.06524592,9.797295
69264297215212,0.0103235785,-0.045325063,9.898069
69264317070701,0.064993456,0.011445875,9.907675
69264336926190,0.025261372,0.004636047,9.840841
69264356783009,-0.021724436,-0.0235569,9.756553
69264376638498,-0.039180826,-0.055178646,9.811091
69264396494115,-0.036334205,-0.060069792,9.836933
69264416349732,0.029374748,0.011157094,9.785462
69264436205349,0.07692033,0.02699234,9.7998705
69264456064654,0.04502493,0.0051563233,9.7981415
69264475920399,0.0131811,-0.032468725,9.782541
69264495776144,-0.025200117,-0.046199046,9.778177
69264515631889,0.016083993,0.035430107,9.7970705
69264535487506,0.016640743,0.052157428,9.821041
69264555343251,-0.018640032,-0.00366013,9.823241
69264575202434,-4.666654E-4,-0.017246127,9.8586235
69264595058179,0.03694418,-0.011597993,9.853573
69264614913924,0.042580605,-0.0036839992,9.855338
69264634769669,0.04702264,0.0036235596,9.866887
69264654619440,-0.013472294,-0.0073897014,9.920966
69264674475057,-0.017888246,0.009989601,9.915642
69264694330674,0.011635645,0.021129915,9.946905
69264714186291,0.006317921,0.00515549,9.928265
69264734041908,-0.008184759,-0.039518632,9.957144
69264753897251,-0.0035187658,-0.039686523,9.949495
69264773752845,0.039980385,-0.014807545,9.974003
69264793608462,0.024917876,-0.007867164,9.9469
69264813464079,-0.0052913716,-0.027329227,9.921456
69264833319696,-0.020257536,-0.05557127,9.895451
69264853175313,0.0129532525,-0.04480626,9.913614
69264873030144,0.04354932,-0.037521552,9.945885
69264892885761,0.03556745,-0.016067032,9.986293
69264912741378,0.033986676,-0.028729904,9.988161
69264932596995,0.019525427,-0.038412567,9.971707
69264952441422,-0.018298132,-0.049942575,10.054962
69264972296783,-0.0033621606,-0.029533857,10.049349
69264992152144,-0.012134984,-0.03331323,10.043943
69265012007505,0.0031731476,-0.010095841,10.076093
69265031862866,0.0062052053,-0.01095973,10.1004305
69265051718099,-0.0065360945,-0.07708294,10.114284
69265071576744,0.013453843,-0.09552036,10.138243
69265091432105,0.01951738,-0.03326979,10.126262
69265111287594,-0.006780918,-0.0054582204,10.142074
69265131142955,-0.0061416584,-0.008355483,10.153675
69265150998444,0.03585335,0.001642095,10.146441
69265170849221,0.029206164,0.005602328,10.1799345
69265190704582,0.012810982,-0.0071717286,10.190008
69265210559943,-0.0067968923,-0.017242119,10.203406
69265230415304,-0.00975693,-0.00525916,10.211507
69265250265116,0.03354533,-0.005289767,10.203742
69265270120349,0.040179353,-0.0022185955,10.23932
69265289975582,0.017513655,-0.032276154,10.235984
69265309830815,-0.020756422,-0.017136155,10.228915
69265329686048,-0.0030176467,-2.2531225E-4,10.25349
69265349541153,0.03685784,-0.0041023833,10.2857275
69265369390412,0.035693973,-0.030320115,10.323517
69265389245517,-0.008390436,-0.029656332,10.3299055
69265409100622,-0.018835567,-0.022011882,10.321681
69265428955727,-0.010756599,-0.01747568,10.342837
69265448810832,0.0077337786,-0.0056075193,10.3785095
69265468662189,0.0085050715,-2.7217137E-4,10.392254
69265488517166,0.009246385,-0.034094248,10.351505
69265508372143,0.0142266005,-0.025545614,10.326622
69265528227120,0.043981686,-0.013630271,10.34036
69265548085657,0.07607388,0.013223075,10.30852
69265567940634,0.04686206,0.026798358,10.281518
69265587795611,0.0330317,0.008377459,10.271499
69265607650588,0.0042081545,0.011595139,10.311097
69265627505565,-0.04068592,0.009756371,10.348969
69265647360542,-0.024242548,-0.01737,10.325191
69265667217611,-0.07157536,0.029878048,10.348316
69265687072588,-0.018238349,0.0651575,10.326621
69265706927693,0.028081464,0.038986426,10.350875
69265726782647,0.02495217,-0.0025534946,10.403967
69265746637752,-0.019550277,-0.025748672,10.33568
69265766493943,-0.04658013,0.0026487603,10.333234
69265786348920,-0.04071708,0.036585957,10.371645
69265806203897,0.022028506,0.0036191535,10.395376
69265826058874,-0.019285213,-0.070950635,10.401261
69265845913851,-0.040148545,-0.09383713,10.396591
69265865768956,-0.0023072558,-0.07181125,10.370162
69265885627619,-0.045833692,-0.048151813,10.333201
69265905482724,-0.03517853,-0.066622265,10.326989
69265925337829,0.017358394,-0.085033596,10.306565
69265945192934,0.048621424,-0.094753124,10.333676
69265965054921,-0.0012833672,-0.068400435,10.35624
69265984910154,-0.05585579,-0.04265811,10.341228
69266004765387,-0.019707272,-0.038729865,10.325072
69266024620620,0.018591065,-0.050608873,10.359588
69266044475725,0.017368335,-0.059110373,10.384609
69266064331262,-0.015701663,-0.059012305,10.352534
69266084186495,-0.056382217,-0.061298586,10.344039
69266104041728,-0.024342725,-0.058601547,10.3965
69266123896961,0.021471938,-0.078238465,10.372808
69266143752194,0.024438513,-0.062953964,10.376772
69266163607427,-0.036549628,-0.03561654,10.369095
69266183472492,-0.037709113,-0.041279826,10.370093
69266203327960,-0.041992854,-0.06441668,10.364676
69266223183449,-0.01049108,-0.04703457,10.336407
69266243038938,0.0066946642,-0.009641747,10.38139
69266262901437,-0.041214414,0.026740452,10.387302
69266282757054,-0.049029388,0.04374357,10.368757
69266302612799,-0.04615964,0.06712362,10.350012
69266322468416,0.003174575,0.058570463,10.360972
69266342324033,0.012098628,0.038237516,10.361459
69266362183478,-0.0012113135,-5.659438E-4,10.363349
69266382039223,0.0027158717,-0.018975032,10.359044
69266401894968,0.009911664,0.0047189365,10.38021
69266421750713,0.037509475,0.024708308,10.426499
69266441606586,0.04883786,0.05147973,10.394307
69266461462331,0.005783397,0.0502691,10.378862
69266481316326,-0.01795451,-0.001140622,10.339872
69266501172199,0.019806823,-0.016702333,10.340933
69266521027944,0.07462314,-0.038441043,10.395955
69266540883689,0.06880462,-0.045571454,10.487758
69266560733430,0.049321998,-0.11543778,10.31839
69266580589047,-0.14037235,0.017197687,10.321668
69266600444792,-0.10878424,-0.006121332,10.347601
69266620300409,0.026113093,-0.07053222,10.451622
69266640156026,-0.084871404,0.16241135,10.373579
69266660011771,0.12286937,0.05640832,10.291535
69266679870291,0.18812177,-0.15255712,10.394062
69266699726036,-0.12079502,-0.14850174,10.382693
69266719581781,-0.13152386,-0.013257921,10.342033
69266739437654,0.018271007,0.12023674,10.397659
69266759293399,0.21299991,0.020530064,10.416554
69266779146566,0.011963217,-0.086206846,10.4616165
69266799002311,-0.21756537,-0.08348763,10.337532
69266818858056,-0.052702997,0.020702196,10.386509
69266838713673,0.1555709,0.12900071,10.394107
69266858567736,0.074953645,0.028738458,10.379838
69266878423353,-0.034756176,-0.06063919,10.322406
69266898279098,-0.057059813,0.052588467,10.40174
69266918134715,-0.01956008,0.079216145,10.252012
69266937990460,0.08455905,0.016347129,10.347514
69266957846077,-0.016225724,-0.079788625,10.335785
69266977689248,0.019530337,-0.10403393,10.3338785
69266997544609,-0.07060036,-0.016476799,10.307069
69267017399970,-0.064298965,0.078353,10.311452
69267037255331,0.06696041,0.0065729814,10.33432
69267057110692,-2.649768E-4,-0.0947309,10.337739
69267076960073,-0.06253131,-0.100270316,10.281431
69267096815306,-0.0014871735,-0.008924051,10.240596
69267116670539,0.050188497,0.07890602,10.25529
69267136525772,-0.022462722,0.044652835,10.258011
69267156383781,-0.018809889,0.004539694,10.200181
69267176239014,-0.011709784,-0.014427904,10.203107
69267196094375,-0.0035741366,0.011683388,10.254619
69267215949608,0.008224042,0.042523332,10.1788845
69267235804969,0.008894829,-0.055301547,10.119461
69267255660202,0.027536457,-0.13558328,10.245851
69267275510985,0.07725687,-0.06418788,10.192008
69267295366218,0.05244652,0.037298724,10.157289
69267315221323,0.054834045,0.04338862,10.124315
69267335076556,0.08832701,0.00697871,10.136369
69267354931661,0.0012631714,0.01884884,10.130517
69267374785696,0.0040432895,0.033524632,10.10716
69267394640801,0.11008669,2.8737777E-4,10.148015
69267414495906,0.08965846,-2.6480382E-4,10.146956
69267434351011,0.039352212,0.05497793,10.091934
69267454206244,0.011260101,0.02259323,10.087398
69267474061349,-0.0070192562,-0.055708174,10.069177
69267493910948,-0.021676121,0.039842296,9.998781
69267513765925,0.059472512,-0.008749244,10.002467
69267533620902,0.13517305,0.026110435,10.083971
69267553475751,-0.06569009,0.04624414,10.015739
69267573327364,-0.14995156,9.84974E-4,9.985621
69267593182341,0.03537507,-0.020610686,9.986005
69267613037190,0.15713418,-0.049365025,10.013865
69267632892146,0.040711757,-0.020067539,9.989856
69267652746995,0.0068433774,-0.031910352,9.909218
69267672601880,0.1476521,0.015870035,9.957802
69267692456729,0.05606032,-0.064582385,9.99151
69267712311578,-0.04797077,-0.05438281,9.95866
69267732166427,0.07122874,0.0067785196,9.93333
69267752021276,0.117081665,0.050145645,9.925913
69267771876125,0.047646847,0.01413516,9.89243
69267791741708,0.030284185,-0.05921467,9.875925
69267811596685,0.019135514,-0.047183197,9.883535
69267831451790,0.056387533,-0.008509949,9.857372
69267851306767,0.072612844,0.06699125,9.817558
69267871169266,0.06068126,0.056675103,9.782472
69267891024499,-0.0087798145,0.0189053,9.812783
69267910879732,-0.02612861,0.008351192,9.779934
69267930734965,-0.001737833,-0.027969988,9.786406
69267950590198,0.036470193,-0.058259565,9.826947
69267970451623,0.025027007,-0.08394182,9.834957
69267990307112,-0.029860962,-0.048142035,9.785388
69268010162473,-0.08309672,-0.010410878,9.775887
69268030017834,-0.0502849,0.014981812,9.8426
69268049873195,-0.011180263,0.05448724,9.838939
69268069728684,-0.021728108,-0.00754198,9.77608
69268089581717,-0.060572233,-0.074978724,9.785085
69268109437057,-0.0020306178,-0.036303867,9.766743
69268129292418,0.051930025,0.02158968,9.807393
69268149147779,0.046235275,0.02982028,9.784604
69268169004360,-0.022925504,3.4752162E-4,9.78772
69268188859721,-0.0059082587,-0.030639771,9.75818
69268208715082,0.011078348,-0.07592888,9.754693
69268228570443,-0.0036196776,-0.039992888,9.790475
69268248425804,-0.014527807,-0.024599807,9.784161
69268268281165,-0.028577356,-0.030300383,9.770008
69268288146744,0.01828898,-0.055894464,9.774727
69268308002361,0.00970113,-0.0635751,9.82444
69268327857978,-0.026760127,-0.03286665,9.784232
69268347713467,0.031949658,-0.03424225,9.721239
69268367569084,0.007829798,1.7286437E-4,9.734159
69268387425701,-0.15068926,0.020880409,9.717822
69268407281318,-0.10312958,0.01026109,9.807817
69268427137063,0.045141138,-0.058993243,9.838885
69268446992680,0.09969957,-0.068475835,9.813269
69268466855125,0.06781311,0.0024251412,9.827714
69268486710998,0.0735177,0.1485933,9.812628
69268506566871,0.0016722429,0.20331946,9.784904
69268526422744,-0.056289066,0.121903464,9.790119
69268546278489,0.0034722597,0.09953965,9.726836
69268566134362,0.18598983,0.10215678,9.645925
69268585984100,-0.08247764,-0.34721407,9.749898
69268605839845,0.063355766,-0.52041745,9.88556
69268625695590,0.20385528,-0.41484177,9.927963
69268645551335,-0.18180075,0.029395787,9.68512
69268665407080,-0.7851273,-0.11744727,9.702364
69268685265099,-1.6424389,-0.2504951,9.708944
69268705120844,-1.7846615,0.049092393,9.637863
69268724976589,-1.1196057,0.14008267,9.748319
69268744832334,-0.5669223,0.30077848,9.783625
69268764691121,-0.19793355,0.42361745,9.510526
69268784546994,-0.30290213,0.34881103,9.797704
69268804402867,-0.18401936,-0.18881805,9.980648
69268824258740,0.39571565,-0.50512546,10.271468
69268844114613,0.44358844,-0.6078382,10.342607
69268863970486,0.024882978,-0.4167733,9.780009
69268883819489,-0.5115883,0.1578183,9.276466
69268903675234,-1.0691578,0.21595277,9.432441
69268923530979,-1.3730383,-0.51983726,9.95727
69268943386724,-1.3187865,-0.69184285,10.242971
69268963242469,-0.52628255,-0.80725914,9.822244
69268983095412,0.79391706,-0.8768613,9.235193
69269002951029,3.3501923,-2.0334744,7.541014
69269022806774,3.7012172,-3.047989,9.975097
69269042662519,1.0916818,-2.0845394,11.738511
69269062518243,-1.0475482,-1.2614716,9.326856
69269082373988,-0.3556005,0.091067225,9.548967
69269102217797,0.5570341,1.1397259,9.329819
69269122073286,0.17346638,0.9509821,9.917427
69269141928647,0.6936628,-1.0023648,10.269585
69269161784136,3.8147988,-1.0859216,9.027946
69269181639625,3.0122962,0.7620094,10.680606
69269201486702,0.90103406,1.1374197,10.019148
69269221341935,2.6856222,3.0878315,9.764614
69269241197168,3.0512233,3.7018003,8.88761
69269261052401,4.3831344,5.300991,9.874185
69269280907506,2.2600408,6.101483,13.390216
69269300757145,1.2939093,1.7349262,17.100496
69269320612250,-8.832099,-12.1077175,7.092816
69269340467355,-8.991075,-10.261022,-2.8982158
69269360322332,-1.8367115,-4.223316,4.623844
69269380177437,-5.783463,-2.7747908,10.5339985
69269400028110,-4.268462,-4.3704915,9.227067
69269419883087,-2.5151632,-4.0388756,7.4067426
69269439738064,-3.424059,-1.7818156,8.293226
69269459593041,-3.2379432,-4.3064337,7.640624
69269479448018,0.90196896,-8.836639,5.497599
69269499307261,-3.3726432,-5.926489,8.16478
69269519162366,-5.7545724,3.2401955,12.365707
69269539017451,-0.65452546,10.864265,7.625805
69269558872428,0.17366175,5.457621,9.4525585
69269578727533,-2.7426333,1.3477178,11.970671
69269598583260,-2.6867647,0.8070054,11.00324
69269618438365,-3.1750097,1.4966562,9.822299
69269638293470,-2.9179254,7.5922794,10.0704975
69269658148447,-3.5144756,4.891625,8.835093
69269678003552,-2.9254014,-0.80016214,7.782455
69269697860047,-1.8229699,1.2580132,9.431283
69269717715024,-0.8091777,2.815508,10.2286625
69269737570129,-0.62044257,1.4671748,8.950368
69269757425106,-0.22717266,0.30750668,9.375186
69269777280083,0.9316599,-3.9682245,9.462304
69269797141278,-1.0164453,-0.782388,11.324059
69269816996383,-1.1864679,2.71872,11.003584
69269836851488,-0.015747277,-1.3328248,7.6558046
69269856706593,0.9842434,-0.5533019,7.9434094
69269876561698,-0.6438363,-1.6809412,10.620422
69269896419459,-3.6693065,-5.28208,11.732818
69269916274564,1.4369843,-6.0826874,8.260143
69269936129797,10.381381,7.8957963,8.1501875
69269955985030,-2.6358087,2.132494,10.570855
69269975840263,-0.916854,-1.3402076,8.780374
69269995694252,1.9126415,-1.9828591,10.231612
69270015549335,0.72581494,1.7393314,11.250384
69270035404440,0.6829768,1.3671193,9.64992
69270055259673,2.637036,0.33438227,9.463871
69270075114778,2.437907,0.4008018,10.034851
69270094970949,3.013364,0.47062603,10.146529
69270114826182,5.1845436,-0.95619357,9.130044
69270134681415,4.207243,-5.538783,8.116751
69270154536648,4.7140384,-5.036958,7.401607
69270174391881,3.6242275,8.841406,5.808353
69270194246638,-5.8139925,16.109892,9.91807
69270214101743,-2.6898649,-0.44552583,13.3400755
69270233956976,1.037104,-2.8770537,14.256386
69270253812209,0.15526931,0.108843595,13.491507
69270273667442,0.22637323,4.280924,9.507193
69270293525851,-0.038653612,2.8677626,7.0397916
69270313381212,-0.7436243,0.6121202,10.915434
69270333236573,-0.56677437,0.8223631,12.189809
69270353091806,0.016049938,0.67700493,13.181355
69270372947167,-0.24857223,0.37722027,12.294797
69270392807642,0.36184186,-0.41914836,10.663402
69270412663003,0.1735867,-1.1625674,10.136131
69270432518492,0.79875904,-0.5706025,9.100687
69270452373981,0.19107628,-0.897826,7.807608
69270472229470,-1.3477002,1.3581454,9.093197
69270492087273,-11.284598,-4.421845,9.026982
69270511942762,-16.699104,-5.528517,3.9039915
69270531798379,-9.613502,1.058718,4.518666
69270551653868,-0.41551408,4.828604,9.014541
69270571509357,4.6855755,-3.5547597,9.775988
69270591362580,3.049648,-4.885382,9.173359
69270611218069,-1.3876518,-1.6662376,4.6366367
69270631073558,-0.7315824,0.22445467,6.9257097
69270650929047,5.4094677,-1.0861623,11.104874
69270670784664,14.6922035,-1.9673877,13.8377905
69270690636681,8.722774,-0.90182835,10.9220295
69270710492042,1.4471451,-1.1948093,12.565232
69270730347531,-0.73549706,1.7964907,10.850168
69270750202892,-0.679219,2.398448,9.740971
69270770058381,-0.6835448,-1.5093513,10.771395
69270789921410,-3.4156103,-1.4107147,7.4899197
69270809777027,-8.953093,-1.6826056,6.137801
69270829632516,-13.822139,-5.2763953,4.163664
69270849488133,-1.5271268,-26.17358,16.986038
69270869343622,-7.567999,-4.69877,11.491744
69270889199367,-9.365996,2.220037,6.4639025
69270909054856,-0.8986705,-5.7863317,12.029565
69270928910473,-3.1348667,-2.3775735,6.9518685
69270948765962,-4.344035,-3.7672188,2.8090827
69270968621558,-4.2711754,-2.1799135,5.990697
69270988472621,-4.0745964,-0.7975464,8.555732
69271008327982,-2.5165331,-2.2740617,5.496521
69271028183343,-1.0730982,-3.3499582,3.8604808
69271048038832,-0.26773325,-3.5979424,4.5357447
69271067894193,0.6394541,-3.9581182,3.4211688
69271087745122,2.4582462,-5.0573926,2.1451335
69271107600355,2.4617033,-2.9554145,5.612961
69271127455716,0.84460527,-0.70257205,6.381278
69271147311077,1.3510044,-0.10907135,6.809846
69271167166438,3.1707885,1.4622502,10.905154
69271187012181,-0.5988924,-1.1941618,11.971707
69271206867286,-2.0226467,-3.5242717,11.440557
69271226722519,-2.6721094,-0.54238594,9.901483
69271246577624,-2.499579,3.3518362,10.491549
69271266432729,-0.80030864,0.890192,11.461632
69271286289224,-0.81772566,-1.1830293,15.686803
69271306144457,-0.088686526,1.2748312,17.194468
69271325999562,-0.26810274,5.435613,14.126388
69271345854795,-0.6744747,1.4703381,11.71402
69271365709900,-1.0587419,1.3203726,9.245265
69271385565255,-1.3186522,2.787231,7.865144
69271405420488,-1.5520769,2.630314,5.9230037
69271425275721,-0.011714258,3.067407,6.556931
69271445130932,5.1534624,-2.6359174,9.712325
69271464986165,3.1955903,-2.671192,10.213848
69271484848108,1.4348081,-2.6789355,8.257771
69271504703469,1.6223431,-2.5446484,9.001532
69271524558702,1.6217725,-2.0187242,9.371055
69271544414063,0.8929389,-1.2196864,9.742219
69271564269424,-0.26607513,-0.50911015,9.459226
69271584080997,-0.5305599,-0.39613453,8.518007
69271603935462,-0.78979224,-0.83890134,7.5848536
69271623789927,-0.83396536,-0.75625753,7.7415786
69271643644392,-0.66890085,-0.677196,8.72154
69271663498857,-0.8085774,-1.0421392,8.898293
69271683353700,-0.8311536,-0.5841564,8.817325
69271703208165,-0.8120863,-0.3817804,9.090216
69271723062502,-0.8537937,-0.33651125,9.507805
69271742916967,-1.0921851,-0.22915082,9.356917
69271762771432,-1.1529987,-0.4595923,9.434026
69271782630815,-1.1916745,-0.03716459,9.7997675
69271802485280,-1.1588045,0.101371355,9.912098
69271822339729,-0.74936515,-0.17851807,9.762096
69271842194193,-1.2535204,-0.7782498,8.853978
69271862048529,-2.3878713,-0.24922447,8.519175
69271881912971,-1.1094542,0.34059966,10.050669
69271901767563,0.563409,-0.47048017,11.219333
69271921622027,0.632609,-0.6694962,10.53687
69271941476619,-0.88982457,-0.15764411,9.416386
69271961331211,-1.3136019,-0.2638382,9.920715
69271981193654,0.05222673,-0.98497725,11.418376
69272001048374,0.22821008,-0.44378668,11.218439
69272020903094,-0.18908182,0.01922963,11.486917
69272040757814,0.0744199,0.594144,11.989315
69272060612534,-0.30520257,1.3261459,11.807409
69272080471076,-1.6263604,1.6258464,10.168468
69272100325796,-2.1343265,1.3880371,9.830069
69272120180644,-1.9987748,-7.479262,5.4392214
69272140035364,-0.31134707,-2.3049917,8.593201
69272159890212,-0.18424562,1.4630599,10.974867
69272179753886,0.22157046,0.2734852,10.115471
69272199608862,-1.7229884,-0.44225612,7.299146
69272219463710,-0.87576556,-1.1444337,7.1187725
69272239318686,0.11624766,-1.3199239,8.465919
69272259173534,-1.7032038,-1.0020204,8.850802
69272279040085,-1.8319892,-1.207744,8.649838
69272298895189,-2.4290843,0.3005545,9.046211
69272318750421,-2.7938497,0.3152289,8.643939
69272338605525,-3.6363008,-0.30235407,7.154906
69272358460629,-2.7158368,0.53830415,6.7579503
69272378328082,-0.58088756,0.60865426,7.675684
69272398183570,0.28760603,0.62547714,8.617999
69272418039059,2.462127,1.2398349,11.108009
69272437894546,0.17354159,1.7421392,7.2823915
69272457750034,2.0573893,-1.8245766,10.133356
69272477605523,4.630922,-2.4218233,16.309288
69272497470305,2.1435578,-0.06528234,14.426333
69272517326049,-0.2234185,0.18253732,11.801273
69272537181922,-0.616073,0.16700436,10.148173
69272557037665,0.047487896,-0.6401934,10.042875
69272576895669,0.8184136,-2.4395106,11.016021
69272596751670,0.7403802,-1.9835159,11.195982
69272616607541,-0.27810165,-0.5750416,9.802917
69272636463413,-1.3594234,0.33689365,9.55587
69272656319286,-1.3767267,-0.3749513,10.257941
69272676184080,-0.740316,-0.52405167,10.329758
69272696040208,-0.7102584,-0.2790319,9.483491
69272715896337,-1.1870394,-0.77332646,9.38431
69272735752464,-0.8904517,0.20575394,9.831426
69272755608592,-0.32373652,-0.6054575,10.029902
69272775464721,-0.134403,-1.2158722,10.137726
69272795329755,-0.51900285,-0.21061659,10.166589
69272815186011,-1.0177405,0.055697136,9.405278
69272835042396,-1.1415617,-0.27024975,9.247812
69272854898651,-0.78115284,-0.18344918,10.056292
69272874754011,-0.38974157,-0.35320067,10.1901865
69272894610396,-0.34923348,-0.34306794,10.240994
69272914466779,-0.37819406,-0.20033024,9.645401
69272934323163,-0.37605792,-0.6726105,8.866692
69272954179548,-0.48866972,-0.6733508,8.85987
69272974035931,-0.57416487,-0.24323337,9.948267
69272993888047,-0.5217543,-0.030232014,10.415807
69273013744432,-0.39087406,-0.35899937,10.473948
69273033600815,-0.35432917,-0.1656717,10.318728
69273053457199,-0.76823235,-0.10845074,9.517973
69273073313584,-1.044238,-0.08846674,9.359434
69273093165590,-0.7240265,-0.18738906,9.577846
69273113022102,-0.3735806,-0.42307073,9.7843
69273132878615,-0.4264659,-0.102589786,10.369473
69273152735126,-0.54842365,-0.1255499,10.229948
69273172570498,-0.5847679,-0.3782432,9.691417
69273192426243,-0.64222187,-0.3967823,9.555604
69273212281986,-0.7007463,-0.12146605,9.4846325
69273232137602,-0.71083516,-0.020961005,9.670159
69273251993347,-0.6984116,-0.030257966,9.881071
69273271849090,-0.67644346,-0.093974225,9.806233
69273291696474,-0.6720905,-0.15382542,9.797734
69273311551963,-0.6474855,-0.28230026,9.532914
69273331407578,-0.5719807,-0.29815546,9.562614
69273351263066,-0.5931491,-0.2974734,9.84474
69273371118555,-0.5632984,-0.22791547,9.99718
69273390969224,-0.46599782,-0.35587123,9.752913
69273410824712,-0.43141046,-0.5938257,9.4348135
69273430680073,-0.5326125,-0.43944618,9.383581
69273450535432,-0.5251245,-0.21686983,9.907318
69273470392663,-0.64014924,0.1187716,10.518571
69273490248024,-0.7009038,0.15074566,10.084832
69273510103511,-0.7955945,-0.90335673,8.591184
69273529958871,-0.6606054,-0.23679857,9.194169
69273549814360,-0.47160566,0.15775502,10.548075
69273569669719,-0.24424286,0.008446014,10.978756
