UPTIMENANO,Ax,Ay,Az
69389171279079,-1.5064673000000002,9.510622999999999,-1.0083033000000001
69389191128930,-1.5088624,9.477093,-1.0298585
69389210985187,-1.5328126,9.498648,-1.0322535
69389230841316,-1.5639478,9.534574000000001,-1.0466236
69389250697445,-1.5783178999999998,9.5489435,-1.0466236
69389270553552,-1.5711329,9.584868,-0.9532178
69389290411143,-1.5567628,9.637559,-0.8430469
69389310267272,-1.5543678,9.659114,-0.8909473
69389330123529,-1.5543678,9.654325,-0.98195803
69389349979658,-1.5447876,9.632769,-1.0178833
69389369835787,-1.5471827,9.618399,-0.9532178
69389389693122,-1.5399976,9.601633999999999,-0.974773
69389409549251,-1.5328126,9.570497999999999,-1.0274634
69389429405380,-1.5328126,9.5561285,-1.0154883
69389449261509,-1.5232325,9.5489435,-0.9412427
69389469117766,-1.5328126,9.553733,-0.9316626
69389488969403,-1.5447876,9.541758999999999,-0.9915381
69389508825404,-1.5471827,9.541758999999999,-1.0418334999999999
69389528681533,-1.5471827,9.517808,-1.0154883
69389548537534,-1.5567628,9.575289,-1.0202783000000002
69389568393535,-1.5543678,9.582474000000001,-1.0538087
69389588246312,-1.5304176,9.565708,-1.0729688
69389608102313,-1.5184423999999999,9.616004,-1.0538087
69389627958314,-1.5256275,9.618399,-0.9867481
69389647814315,-1.5807129,9.589659,-1.0346485
69389667670316,-1.5352076000000001,9.596844,-1.0466236
69389687526115,-1.4992822000000001,9.637559,-0.9963281999999999
69389707382116,-1.4873072,9.630374,-0.974773
69389727238117,-1.5160475,9.580078,-0.97956306
69389747094097,-1.5280225,9.546548,-1.0202783000000002
69389766950098,-1.5232325,9.524992999999998,-1.0705738
69389786809787,-1.5232325,9.522598,-1.0418334999999999
69389806665788,-1.5160475,9.544153,-1.0298585
69389826521789,-1.465752,9.558523,-1.0801538
69389846377918,-1.5232325,9.580078,-1.0202783000000002
69389866233919,-1.5352076000000001,9.601633999999999,-0.9699829
69389886091310,-1.5184423999999999,9.635164,-1.0106983
69389905947439,-1.5016773,9.613608000000001,-1.0322535
69389925803440,-1.4705421,9.623189,-0.9915381
69389945659569,-1.4801221000000002,9.611214,-0.98435307
69389965515570,-1.5328126,9.570497999999999,-1.0059083
69389985380379,-1.5376027,9.544153,-1.0322535
69390005236636,-1.5376027,9.544153,-1.0154883
69390025092765,-1.4897022,9.551338000000001,-1.0011181999999998
69390044949022,-1.465752,9.594449000000001,-1.0322535
69390064805279,-1.5040723,9.582474000000001,-1.0083033000000001
69390084657872,-1.5328126,9.565708,-1.0154883
69390104514129,-1.5280225,9.570497999999999,-1.0442286
69390124370258,-1.5136524,9.599238,-1.0178833
69390144226387,-1.5184423999999999,9.596844,-1.0202783000000002
69390164082644,-1.5304176,9.570497999999999,-1.0059083
69390183942283,-1.5471827,9.570497999999999,-1.0418334999999999
69390203798412,-1.5304176,9.575289,-1.0585986
69390223654648,-1.5064673000000002,9.580078,-1.0202783000000002
69390243510777,-1.5088624,9.587264,-1.0322535
69390263372136,-1.5088624,9.570497999999999,-1.0562036
69390283228393,-1.5567628,9.536968,-1.0466236
69390303084778,-1.5783178999999998,9.529783,-1.0154883
69390322941035,-1.5208374,9.5633135,-1.0011181999999998
69390342797420,-1.4801221000000002,9.584868,-1.0226734
69390362653805,-1.5184423999999999,9.608819,-1.0083033000000001
69390382514342,-1.5591576999999999,9.620794,-0.9915381
69390402370855,-1.5447876,9.604028999999999,-1.0466236
69390422227368,-1.5208374,9.620794,-1.0490186000000001
69390442083881,-1.5304176,9.589659,-1.0011181999999998
69390461940266,-1.5064673000000002,9.553733,-1.0106983
69390481805345,-1.5136524,9.5561285,-1.0442286
69390501662114,-1.5352076000000001,9.572892999999999,-1.0106983
69390521518755,-1.5184423999999999,9.572892999999999,-0.97956306
69390541375396,-1.4944923,9.620794,-1.0274634
69390561229283,-1.5232325,9.608819,-1.0418334999999999
69390581085924,-1.5495777,9.596844,-1.0418334999999999
69390600942693,-1.575923,9.575289,-1.0394385
69390620799334,-1.5950831,9.536968,-0.98914313
69390640655975,-1.5376027,9.539363,-1.0083033000000001
69390660512616,-1.4992822000000001,9.5561285,-1.0609937
69390680367019,-1.5136524,9.553733,-1.0681788
69390700223638,-1.5399976,9.5633135,-1.0466236
69390720080151,-1.5208374,9.592053,-1.0466236
69390739936792,-1.5160475,9.582474000000001,-1.0585986
69390759793433,-1.5519726999999999,9.570497999999999,-1.0777588
69390779654408,-1.5352076000000001,9.577683,-1.0274634
69390799511049,-1.5208374,9.635164,-1.0298585
69390819367690,-1.463357,9.601633999999999,-0.9963281999999999
69390839224331,-1.4178516,9.601633999999999,-1.0442286
69390859081100,-1.456172,9.592053,-1.0562036
69390878937741,-1.4920973,9.596844,-0.9867481
69390898797624,-1.5256275,9.568104,-0.977168
69390918654393,-1.6190332,9.558523,-1.0154883
69390938511162,-1.6190332,9.529783,-1.0130934
69390958367931,-1.5160475,9.508227999999999,-0.98195803
69390978224236,-1.4489869,9.565708,-1.0035132
69390998081005,-1.4489869,9.592053,-1.0202783000000002
69391017937774,-1.5495777,9.601633999999999,-1.0585986
69391037794671,-1.6190332,9.568104,-1.0538087
69391057651440,-1.583108,9.582474000000001,-0.9915381
69391077496421,-1.4968873,9.599238,-0.9268726
69391097353062,-1.4729371,9.582474000000001,-0.9651929
69391117209575,-1.5016773,9.541758999999999,-1.0753639
69391137066216,-1.5399976,9.541758999999999,-1.1041040000000002
69391156922857,-1.5519726999999999,9.565708,-1.0609937
69391176779349,-1.5807129,9.560919,-1.0011181999999998
69391196624018,-1.5591576999999999,9.575289,-0.9963281999999999
69391216480403,-1.5447876,9.613608000000001,-0.9867481
69391236336660,-1.5352076000000001,9.584868,-0.93405765
69391256193045,-1.5280225,9.594449000000001,-0.9316626
69391276051576,-1.4968873,9.604028999999999,-0.9436377
69391295907833,-1.4753321000000001,9.575289,-1.0011181999999998
69391315764090,-1.4873072,9.592053,-1.0035132
69391335620475,-1.5256275,9.613608000000001,-0.9316626
69391355476732,-1.5495777,9.606423,-0.93405765
69391375332917,-1.5639478,9.623189,-0.97956306
69391395189174,-1.5088624,9.580078,-0.9987232
69391415045431,-1.4944923,9.544153,-0.98435307
69391434901816,-1.5543678,9.524992999999998,-0.9867481
69391454758073,-1.583108,9.570497999999999,-0.977168
69391474614330,-1.5591576999999999,9.623189,-0.96758795
69391494468399,-1.5208374,9.632769,-0.98914313
69391514324656,-1.4944923,9.5633135,-1.0130934
69391534180913,-1.5447876,9.477093,-1.0035132
69391554037170,-1.587898,9.455538,-1.0202783000000002
69391573890801,-1.5519726999999999,9.441168,-1.0083033000000001
69391593747058,-1.4944923,9.510622999999999,-0.97237796
69391613603315,-1.4825171,9.594449000000001,-0.9627979
69391633459444,-1.5783178999999998,9.685459,-1.0274634
69391653315678,-1.6262183000000001,9.68067,-1.0466236
69391673171807,-1.6142433,9.716595,-0.9915381
69391693026364,-1.587898,9.687855,-0.8909473
69391712882493,-1.5711329,9.635164,-0.96758795
69391732738494,-1.5711329,9.592053,-1.0681788
69391752594623,-1.5998731000000002,9.5489435,-1.0609937
69391772450752,-1.5711329,9.534574000000001,-1.0442286
69391792309545,-1.5304176,9.560919,-1.0394385
69391812165674,-1.5376027,9.520203,-1.0585986
69391832021803,-1.5735278999999998,9.510622999999999,-1.0729688
69391851878060,-1.5711329,9.532178,-1.0370435
69391871738517,-1.5783178999999998,9.570497999999999,-1.0059083
69391891594646,-1.5735278999999998,9.572892999999999,-1.0011181999999998
69391911450903,-1.5543678,9.599238,-1.0130934
69391931307160,-1.5591576999999999,9.606423,-1.0130934
69391951163289,-1.5711329,9.623189,-0.9963281999999999
69391971019546,-1.5399976,9.627979,-0.95561284
69391990878979,-1.4897022,9.620794,-0.9508228000000001
69392010735236,-1.4897022,9.635164,-0.95561284
69392030591493,-1.5615528,9.606423,-0.97956306
69392050447750,-1.585503,9.568104,-0.9651929
69392070304007,-1.5519726999999999,9.5489435,-0.98914313
69392090161588,-1.5328126,9.553733,-0.99393314
69392110017845,-1.5184423999999999,9.584868,-0.98435307
69392129874207,-1.5495777,9.572892999999999,-0.9627979
69392149730592,-1.5998731000000002,9.505833,-0.95561284
69392169589201,-1.5567628,9.536968,-0.96040285
69392189445586,-1.5088624,9.580078,-0.97237796
69392209301971,-1.4897022,9.596844,-0.9364527
69392229158356,-1.5495777,9.613608000000001,-0.90771246
69392249014741,-1.6022681,9.589659,-0.96040285
69392268870998,-1.587898,9.611214,-0.9963281999999999
69392288733241,-1.5687379,9.608819,-0.8861573
69392308589754,-1.5304176,9.582474000000001,-0.9053174
69392328446267,-1.5328126,9.5489435,-1.0130934
69392348302652,-1.5447876,9.558523,-1.0059083
69392368159165,-1.5711329,9.5633135,-0.9963281999999999
69392388017404,-1.5711329,9.587264,-0.9963281999999999
69392407873917,-1.575923,9.592053,-1.0274634
69392427730558,-1.575923,9.611214,-0.977168
69392447587071,-1.5783178999999998,9.611214,-0.9053174
69392467443712,-1.5974781999999998,9.599238,-0.8909473
69392487300225,-1.583108,9.568104,-0.97237796
69392507156310,-1.5184423999999999,9.5489435,-1.0035132
69392527012951,-1.5256275,9.577683,-0.9987232
69392546869592,-1.5615528,9.553733,-1.0083033000000001
69392566726233,-1.5591576999999999,9.584868,-1.0202783000000002
69392586582404,-1.5543678,9.565708,-0.96758795
69392606439153,-1.5519726999999999,9.5633135,-0.9196875
69392626295794,-1.5543678,9.5633135,-0.9053174
69392646152435,-1.5735278999999998,9.582474000000001,-0.9867481
69392666009076,-1.5615528,9.577683,-1.0370435
69392685859233,-1.5399976,9.580078,-1.0178833
69392705715618,-1.5304176,9.611214,-0.98435307
69392725572131,-1.5471827,9.572892999999999,-0.98914313
69392745428644,-1.6046631000000002,9.5561285,-1.0059083
69392765285157,-1.5735278999999998,9.587264,-0.96758795
69392785141670,-1.5208374,9.625584,-0.92926764
69392804992149,-1.5040723,9.630374,-0.94603276
69392824848406,-1.5567628,9.611214,-0.92926764
69392844704663,-1.5591576999999999,9.577683,-0.90052736
69392864561048,-1.5399976,9.570497999999999,-0.96758795
69392884414269,-1.5495777,9.551338000000001,-0.9651929
69392904270654,-1.5495777,9.536968,-0.97237796
69392924126911,-1.5543678,9.5561285,-1.0370435
69392943983168,-1.5615528,9.572892999999999,-1.0490186000000001
69392963839425,-1.5639478,9.580078,-0.9699829
69392983694634,-1.5663428,9.627979,-0.90771246
69393003550891,-1.5495777,9.613608000000001,-0.88376224
69393023407148,-1.5735278999999998,9.608819,-0.91010743
69393043263405,-1.6118482,9.601633999999999,-0.9412427
69393063119662,-1.5998731000000002,9.575289,-0.98195803
69393082975896,-1.5519726999999999,9.565708,-0.9963281999999999
69393102818367,-1.5232325,9.558523,-0.98435307
69393122674240,-1.5280225,9.541758999999999,-1.0059083
69393142530241,-1.5495777,9.544153,-0.9436377
69393162386242,-1.5687379,9.5561285,-0.8765772
69393182236903,-1.5543678,9.580078,-0.89573735
69393202092648,-1.5519726999999999,9.575289,-0.96040285
69393221948521,-1.5543678,9.5561285,-0.977168
69393241804266,-1.5495777,9.596844,-0.99393314
69393261660011,-1.5399976,9.604028999999999,-1.0059083
69393281515884,-1.5328126,9.606423,-0.98195803
69393301378557,-1.5399976,9.64714,-0.91250247
69393321234430,-1.5447876,9.611214,-0.90771246
69393341090303,-1.5783178999999998,9.570497999999999,-0.9484278
69393360946176,-1.5471827,9.5633135,-0.96040285
69393380802177,-1.5304176,9.551338000000001,-0.9532178
69393400649876,-1.5208374,9.5561285,-0.9627979
69393420505493,-1.5495777,9.572892999999999,-0.94603276
69393440361238,-1.587898,9.5633135,-0.9412427
69393460216983,-1.5615528,9.570497999999999,-0.9627979
69393480071618,-1.5280225,9.580078,-0.9651929
69393499927235,-1.5136524,9.565708,-0.9388476999999998
69393519782980,-1.5208374,9.582474000000001,-1.0322535
69393539638597,-1.5687379,9.616004,-1.0681788
69393559494322,-1.5807129,9.632769,-0.98195803
69393579349939,-1.590293,9.632769,-0.8933423
69393599206166,-1.5783178999999998,9.630374,-0.87178713
69393619061911,-1.5639478,9.613608000000001,-0.91010743
69393638917656,-1.5495777,9.575289,-0.96040285
69393658773273,-1.5304176,9.534574000000001,-0.9316626
69393678629018,-1.5232325,9.551338000000001,-0.95561284
69393698481727,-1.5399976,9.541758999999999,-0.9867481
69393718337344,-1.5447876,9.532178,-1.0274634
69393738192833,-1.5471827,9.572892999999999,-0.9699829
69393758048450,-1.5208374,9.580078,-0.8909473
69393777907377,-1.5256275,9.596844,-0.9053174
69393797762994,-1.5639478,9.587264,-0.9364527
69393817618611,-1.5711329,9.599238,-0.93405765
69393837474356,-1.5495777,9.620794,-0.9268726
69393857329973,-1.5519726999999999,9.594449000000001,-0.9412427
69393877185590,-1.5423926000000001,9.611214,-0.98195803
69393897045145,-1.5256275,9.616004,-0.92926764
69393916900890,-1.5447876,9.532178,-0.88376224
69393936756763,-1.575923,9.513017999999999,-0.9580079
69393956612508,-1.5256275,9.541758999999999,-0.9987232
69393976468253,-1.5543678,9.623189,-0.98914313
69393996332892,-1.6429833999999999,9.618399,-0.8669971
69394016188893,-1.5663428,9.644744000000001,-0.85023195
69394036044745,-1.5112573999999999,9.695039999999999,-0.9580079
69394055900746,-1.5495777,9.6758795,-1.0705738
69394075756619,-1.5735278999999998,9.601633999999999,-0.9915381
69394095612492,-1.5423926000000001,9.5633135,-0.81909674
69394115469559,-1.5088624,9.503438000000001,-0.852627
69394135325560,-1.5471827,9.510622999999999,-1.0106983
69394155181561,-1.585503,9.5561285,-1.0562036
69394175037434,-1.5376027,9.520203,-0.96040285
69394194899043,-1.5376027,9.536968,-0.9532178
69394214755172,-1.590293,9.524992999999998,-0.9867481
69394234611173,-1.5950831,9.524992999999998,-1.0035132
69394254467302,-1.5663428,9.565708,-0.9484278
69394274323431,-1.5304176,9.613608000000001,-0.92926764
69394294182290,-1.5399976,9.632769,-0.9580079
69394314038419,-1.5615528,9.673484,-1.0106983
69394333894548,-1.5639478,9.656719,-0.974773
69394353750677,-1.5663428,9.673484,-0.9532178
69394373606934,-1.5471827,9.649534,-0.9532178
69394393463063,-1.5639478,9.604028999999999,-0.974773
69394413306812,-1.5783178999999998,9.580078,-0.9436377
69394433162685,-1.5423926000000001,9.5489435,-0.9699829
69394453018686,-1.5328126,9.501043,-1.0178833
69394472874687,-1.5376027,9.532178,-0.98435307
69394492735700,-1.575923,9.505833,-0.96758795
69394512591680,-1.6118482,9.491463000000001,-0.98195803
69394532447809,-1.5807129,9.534574000000001,-0.98435307
69394552303938,-1.5232325,9.587264,-0.97956306
69394572159939,-1.5352076000000001,9.671089,-0.97956306
69394592019380,-1.5926881000000002,9.656719,-0.9053174
69394611875636,-1.5974781999999998,9.632769,-0.8669971
69394631731765,-1.587898,9.625584,-0.91729254
69394651587892,-1.5807129,9.635164,-0.9196875
69394671444148,-1.5615528,9.620794,-0.91010743
69394691300277,-1.5615528,9.589659,-0.9508228000000001
69394711161630,-1.590293,9.546548,-0.9867481
69394731017887,-1.5926881000000002,9.532178,-0.9867481
69394750874016,-1.5711329,9.524992999999998,-0.9244776
69394770730273,-1.5423926000000001,9.505833,-0.90771246
69394790588926,-1.5615528,9.496253,-0.9244776
69394810445183,-1.6118482,9.522598,-0.9148975
69394830301432,-1.587898,9.536968,-0.93405765
69394850157688,-1.575923,9.604028999999999,-0.98435307
69394870013945,-1.5591576999999999,9.632769,-0.96758795
69394889872271,-1.5447876,9.651928999999999,-0.88376224
69394909728655,-1.5304176,9.6615095,-0.8646021
69394929585040,-1.5495777,9.651928999999999,-0.91010743
69394949441423,-1.575923,9.644744000000001,-0.9412427
69394969297808,-1.590293,9.582474000000001,-0.9029224
69394989154193,-1.5711329,9.5489435,-0.87418216
69395009005556,-1.5567628,9.560919,-0.9053174
69395028861809,-1.5328126,9.491463000000001,-0.9484278
69395048718066,-1.5184423999999999,9.527389,-0.974773
69395068574321,-1.5423926000000001,9.572892999999999,-0.9364527
69395088428829,-1.5352076000000001,9.544153,-0.96040285
69395108285086,-1.5711329,9.546548,-0.9580079
69395128141341,-1.5423926000000001,9.565708,-0.8646021
69395147997469,-1.5232325,9.625584,-0.8813671999999999
69395167853726,-1.5519726999999999,9.644744000000001,-0.87897223
69395187707781,-1.590293,9.68067,-0.86939216
69395207564037,-1.5663428,9.6686945,-0.9196875
69395227420166,-1.5471827,9.673484,-0.96040285
69395247276293,-1.5471827,9.649534,-0.9484278
69395267132549,-1.5687379,9.5561285,-0.99393314
69395286988678,-1.5663428,9.493857,-1.0154883
69395306850547,-1.587898,9.503438000000001,-0.9532178
69395326706803,-1.5735278999999998,9.527389,-0.8981324
69395346563060,-1.5376027,9.553733,-0.9508228000000001
69395366419315,-1.5639478,9.546548,-0.9699829
69395386270427,-1.5687379,9.551338000000001,-0.9316626
69395406126556,-1.5711329,9.558523,-0.9268726
69395425982683,-1.5519726999999999,9.577683,-0.93405765
69395445838811,-1.5376027,9.592053,-0.92926764
69395465695068,-1.5399976,9.625584,-0.92926764
69395485551195,-1.5591576999999999,9.6615095,-0.91729254
69395505413315,-1.5639478,9.685459,-0.91729254
69395525269444,-1.5567628,9.690249,-0.8909473
69395545125699,-1.5471827,9.632769,-0.9244776
69395564981955,-1.5495777,9.596844,-0.9484278
69395584838212,-1.5352076000000001,9.570497999999999,-0.9436377
69395604687454,-1.5184423999999999,9.522598,-0.9364527
69395624543582,-1.4992822000000001,9.501043,-0.94603276
69395644399711,-1.4968873,9.522598,-0.98914313
69395664255966,-1.5280225,9.553733,-0.9699829
69395684107645,-1.575923,9.5489435,-0.9148975
69395703963646,-1.5567628,9.577683,-0.8981324
69395723819773,-1.5136524,9.589659,-0.8909473
69395743675901,-1.5112573999999999,9.611214,-0.9388476999999998
69395763531902,-1.5447876,9.639954,-0.9196875
69395783388029,-1.587898,9.663903999999999,-0.9053174
69395803248056,-1.5807129,9.635164,-0.9388476999999998
69395823104185,-1.5591576999999999,9.627979,-0.9484278
69395842960312,-1.5328126,9.606423,-0.8885523000000001
69395862816568,-1.5304176,9.582474000000001,-0.94603276
69395882672697,-1.5567628,9.532178,-1.0562036
69395902526367,-1.5735278999999998,9.534574000000001,-1.0633887
69395922382495,-1.5783178999999998,9.544153,-0.97956306
69395942238624,-1.5615528,9.541758999999999,-0.90771246
69395962094879,-1.5639478,9.5633135,-0.9268726
69395981951007,-1.6022681,9.553733,-0.93405765
69396001807136,-1.5807129,9.5633135,-0.90052736
69396021662366,-1.5328126,9.577683,-0.90771246
69396041518366,-1.5136524,9.596844,-0.9699829
69396061374367,-1.5256275,9.606423,-1.0562036
69396081230238,-1.5328126,9.606423,-0.98914313
69396101085959,-1.5304176,9.589659,-0.89573735
69396120941960,-1.5471827,9.606423,-0.86220706
69396140797959,-1.5543678,9.618399,-0.9196875
69396160653960,-1.5304176,9.601633999999999,-0.95561284
69396180509961,-1.5352076000000001,9.604028999999999,-0.9244776
69396200361454,-1.5423926000000001,9.584868,-0.91250247
69396220217323,-1.5423926000000001,9.560919,-0.98435307
69396240073196,-1.5615528,9.618399,-1.0130934
69396259929067,-1.5543678,9.606423,-0.9532178
69396279779732,-1.5376027,9.522598,-0.9268726
69396299635605,-1.5232325,9.524992999999998,-0.9484278
69396319498999,-1.5040723,9.527389,-0.91250247
69396339254239,-1.5136524,9.575289,-0.9364527
69396359110240,-1.5591576999999999,9.596844,-0.9316626
69396378966369,-1.5974781999999998,9.604028999999999,-0.93405765
69396398823356,-1.5711329,9.611214,-0.9915381
69396418679485,-1.6142433,9.685459,-0.98914313
69396438535614,-1.6477735,9.580078,-0.9484278
69396458391743,-1.477727,9.568104,-0.98914313
69396478247872,-1.4729371,9.589659,-1.0154883
69396498108013,-1.6142433,9.568104,-1.0585986
69396517964142,-1.6693287,9.580078,-1.0418334999999999
69396537820399,-1.6238233,9.613608000000001,-0.8909473
69396557676528,-1.5423926000000001,9.613608000000001,-0.8598120000000001
69396577532785,-1.5687379,9.568104,-0.95561284
69396597388914,-1.5735278999999998,9.5633135,-1.0298585
69396617238293,-1.5447876,9.558523,-1.0346485
69396637094422,-1.5711329,9.584868,-0.9867481
69396656950423,-1.5807129,9.584868,-0.9484278
69396676806552,-1.5711329,9.527389,-0.9627979
69396696659791,-1.5471827,9.524992999999998,-0.94603276
69396716515792,-1.575923,9.5633135,-0.9484278
69396736371793,-1.5687379,9.517808,-1.0011181999999998
69396756227794,-1.583108,9.546548,-1.0346485
69396776083795,-1.5735278999999998,9.580078,-1.0226734
69396795939796,-1.583108,9.644744000000001,-1.0011181999999998
69396815803375,-1.6214283,9.7621,-0.97956306
69396835659504,-1.5950831,9.764495,-0.9651929
69396855515633,-1.5926881000000002,9.592053,-0.9244776
69396875371762,-1.585503,9.503438000000001,-0.974773
69396895227763,-1.5471827,9.448353,-0.9915381
69396915084684,-1.5519726999999999,9.414823,-1.0035132
69396934940941,-1.575923,9.405242,-0.9268726
69396954797070,-1.5639478,9.4435625,-0.95561284
69396974653327,-1.5711329,9.524992999999998,-1.0298585
69396994500304,-1.6166383,9.623189,-1.0394385
69397014356305,-1.6190332,9.687855,-1.0083033000000001
69397034212306,-1.6190332,9.70941,-0.974773
69397054068307,-1.6286133999999999,9.704619000000001,-1.0035132
69397073924308,-1.6453785,9.671089,-1.0178833
69397093780309,-1.6597486000000001,9.642349000000001,-1.0035132
69397113634902,-1.6453785,9.604028999999999,-1.0130934
69397133490903,-1.6334034,9.546548,-1.0130934
69397153346904,-1.6070582,9.501043,-1.0130934
69397173203033,-1.5807129,9.477093,-1.0370435
69397193059034,-1.585503,9.465117,-1.0394385
69397212908085,-1.6046631000000002,9.4507475,-1.0322535
69397232763830,-1.6214283,9.481883,-1.0370435
69397252619703,-1.6262183000000001,9.534574000000001,-1.0370435
69397272475576,-1.6166383,9.587264,-0.96758795
69397292328001,-1.6238233,9.632769,-0.94603276
69397312183746,-1.6166383,9.637559,-1.0059083
69397332039491,-1.6310083999999998,9.666299,-1.0729688
69397351895108,-1.6334034,9.656719,-1.0059083
69397371750853,-1.6070582,9.64714,-0.9867481
69397391606598,-1.6022681,9.620794,-1.0226734
69397411458387,-1.6190332,9.620794,-1.0250684
69397431314004,-1.6310083999999998,9.522598,-0.98914313
69397451169621,-1.6190332,9.474698,-0.99393314
69397471025238,-1.5423926000000001,9.479486999999999,-1.0083033000000001
69397490880855,-1.5352076000000001,9.481883,-1.0490186000000001
69397510736730,-1.5639478,9.496253,-1.0442286
69397530592347,-1.6046631000000002,9.532178,-0.9867481
69397550447836,-1.6238233,9.534574000000001,-0.9867481
69397570303453,-1.6166383,9.604028999999999,-1.0154883
69397590159070,-1.6262183000000001,9.673484,-0.98914313
69397610014559,-1.6190332,9.666299,-0.974773
69397629872144,-1.6214283,9.642349000000001,-1.0466236
69397649727761,-1.6262183000000001,9.582474000000001,-1.0729688
69397669583378,-1.6070582,9.584868,-1.0490186000000001
69397689438995,-1.6094532,9.553733,-1.0059083
69397709294522,-1.6142433,9.524992999999998,-1.0178833
69397729150139,-1.6310083999999998,9.536968,-1.0226734
69397749005756,-1.6238233,9.524992999999998,-1.0011181999999998
69397768861350,-1.587898,9.524992999999998,-1.0394385
69397788716967,-1.583108,9.546548,-1.0777588
69397808577172,-1.6070582,9.534574000000001,-1.0394385
69397828432789,-1.6118482,9.551338000000001,-0.9699829
69397848288534,-1.5950831,9.575289,-0.95561284
69397868144151,-1.5998731000000002,9.625584,-0.98195803
69397887999768,-1.6166383,9.654325,-1.0059083
69397907855513,-1.6142433,9.673484,-1.0154883
69397927715648,-1.6142433,9.649534,-1.0011181999999998
69397947571393,-1.6022681,9.64714,-1.0322535
69397967427138,-1.5711329,9.5633135,-1.0825489
69397987282883,-1.583108,9.532178,-1.0154883
69398007143912,-1.6310083999999998,9.524992999999998,-0.94603276
69398026999785,-1.6381934999999999,9.462723,-0.94603276
69398046855658,-1.5998731000000002,9.457932000000001,-1.0298585
69398066711403,-1.5399976,9.517808,-1.0298585
69398086567276,-1.5304176,9.568104,-1.0083033000000001
69398106429525,-1.5807129,9.577683,-1.0250684
69398126285526,-1.6597486000000001,9.580078,-1.0011181999999998
69398146141655,-1.6405883999999997,9.589659,-0.9699829
69398165997656,-1.6070582,9.606423,-0.94603276
69398185853785,-1.585503,9.618399,-0.9508228000000001
69398205709786,-1.583108,9.623189,-1.0466236
69398225567177,-1.5926881000000002,9.608819,-1.0921290000000001
69398245423283,-1.6022681,9.611214,-1.0705738
69398265279284,-1.6166383,9.594449000000001,-1.0538087
69398285135413,-1.6381934999999999,9.582474000000001,-1.0514137
69398305000838,-1.6357985000000002,9.5633135,-0.98435307
69398324857095,-1.6381934999999999,9.541758999999999,-0.93405765
69398344713352,-1.6334034,9.498648,-0.9915381
69398364569609,-1.6094532,9.493857,-1.0490186000000001
69398384425738,-1.583108,9.517808,-1.0801538
69398404281995,-1.5639478,9.544153,-1.0825489
69398424144502,-1.5711329,9.553733,-1.0657837
69398444000887,-1.6046631000000002,9.553733,-1.0154883
69398463857400,-1.6334034,9.577683,-0.98435307
69398483713913,-1.6286133999999999,9.584868,-0.9651929
69398503570426,-1.6238233,9.604028999999999,-0.977168
69398523433949,-1.6190332,9.606423,-0.9915381
69398543290718,-1.6118482,9.606423,-1.0298585
69398563147359,-1.583108,9.565708,-1.0490186000000001
69398583004000,-1.575923,9.616004,-1.0729688
69398602859275,-1.5950831,9.592053,-1.0370435
69398622715916,-1.6214283,9.508227999999999,-1.0274634
69398642572557,-1.5974781999999998,9.484278,-1.0011181999999998
69398662429198,-1.5783178999999998,9.505833,-0.974773
69398682285967,-1.5663428,9.539363,-0.977168
69398702142608,-1.587898,9.568104,-0.99393314
69398721998748,-1.6190332,9.572892999999999,-1.0202783000000002
69398741855517,-1.6429833999999999,9.606423,-1.0442286
69398761712158,-1.6286133999999999,9.589659,-0.98195803
69398781568799,-1.5998731000000002,9.608819,-0.98914313
69398801425440,-1.6094532,9.587264,-1.0083033000000001
69398821273675,-1.6262183000000001,9.575289,-1.0418334999999999
69398841130188,-1.6429833999999999,9.592053,-1.0322535
69398860986829,-1.6453785,9.570497999999999,-1.0011181999999998
69398880843342,-1.6238233,9.558523,-1.0298585
69398900702081,-1.6381934999999999,9.527389,-1.0083033000000001
69398920558722,-1.6238233,9.510622999999999,-0.9987232
69398940415235,-1.6214283,9.510622999999999,-1.0035132
69398960271876,-1.6070582,9.529783,-1.0106983
69398980128517,-1.587898,9.570497999999999,-1.0083033000000001
69398999985030,-1.5807129,9.577683,-1.0011181999999998
69399019828011,-1.587898,9.627979,-1.0226734
69399039684268,-1.5926881000000002,9.64714,-1.0059083
69399059540653,-1.6094532,9.635164,-1.0011181999999998
69399079396910,-1.6310083999999998,9.596844,-0.98435307
69399099253167,-1.6166383,9.582474000000001,-0.98195803
69399119104910,-1.6094532,9.575289,-1.0059083
69399138961039,-1.5711329,9.501043,-1.0250684
69399158817296,-1.5783178999999998,9.5561285,-1.0370435
69399178673425,-1.575923,9.582474000000001,-1.0370435
69399198529660,-1.6022681,9.529783,-1.0681788
69399218385917,-1.6118482,9.522598,-1.0322535
69399238236760,-1.575923,9.544153,-0.9508228000000001
69399258092761,-1.5639478,9.596844,-0.96758795
69399277948890,-1.5735278999999998,9.592053,-0.96758795
69399297804891,-1.5663428,9.577683,-0.9580079
69399317648512,-1.6046631000000002,9.580078,-1.0011181999999998
69399337504257,-1.5998731000000002,9.594449000000001,-1.0490186000000001
69399357360002,-1.5783178999999998,9.596844,-1.0298585
69399377215747,-1.5543678,9.596844,-0.9915381
69399397071620,-1.590293,9.587264,-1.0322535
69399416932907,-1.6118482,9.527389,-1.0657837
69399436788780,-1.6405883999999997,9.534574000000001,-1.0801538
69399456644653,-1.6501685000000001,9.5633135,-1.0154883
69399476500398,-1.6334034,9.592053,-0.97956306
69399496356271,-1.6357985000000002,9.568104,-1.0035132
69399516212144,-1.590293,9.527389,-1.0370435
69399536067871,-1.575923,9.491463000000001,-1.0154883
69399555923616,-1.6022681,9.517808,-0.97956306
69399575779489,-1.6142433,9.520203,-1.0011181999999998
69399595635234,-1.6046631000000002,9.5489435,-1.0370435
69399615484299,-1.5974781999999998,9.616004,-1.0394385
69399635339916,-1.6022681,9.651928999999999,-0.9867481
69399655195533,-1.6238233,9.671089,-0.98195803
69399675051128,-1.6046631000000002,9.608819,-1.0178833
69399694906745,-1.5974781999999998,9.618399,-1.0394385
69399714765604,-1.5926881000000002,9.580078,-1.0298585
69399734621221,-1.5567628,9.534574000000001,-1.0394385
69399754476838,-1.6046631000000002,9.544153,-1.0538087
69399774332455,-1.6142433,9.493857,-1.0705738
69399794188200,-1.6118482,9.457932000000001,-1.0466236
69399814043817,-1.585503,9.501043,-0.9364527
69399833892754,-1.5423926000000001,9.539363,-0.9508228000000001
69399853748243,-1.5376027,9.599238,-1.0226734
69399873603732,-1.5998731000000002,9.613608000000001,-1.0202783000000002
69399893459221,-1.6357985000000002,9.630374,-1.0490186000000001
69399913323238,-1.6381934999999999,9.632769,-1.0202783000000002
69399933178983,-1.6166383,9.635164,-0.9651929
69399953034600,-1.5711329,9.606423,-0.98435307
69399972890345,-1.585503,9.572892999999999,-0.99393314
69399992746090,-1.6142433,9.5561285,-1.0178833
69400012601707,-1.6357985000000002,9.541758999999999,-1.0035132
69400032461114,-1.6046631000000002,9.541758999999999,-1.0346485
69400052316859,-1.583108,9.529783,-1.0418334999999999
69400072172604,-1.6070582,9.532178,-1.0250684
69400092028349,-1.6190332,9.527389,-0.98914313
69400111883966,-1.6046631000000002,9.534574000000001,-0.98914313
69400131746671,-1.6022681,9.575289,-0.9867481
69400151602523,-1.5687379,9.565708,-0.974773
69400171458524,-1.5807129,9.589659,-0.9963281999999999
69400191314397,-1.5974781999999998,9.616004,-0.98435307
69400211171452,-1.575923,9.599238,-0.99393314
69400231027325,-1.5807129,9.637559,-0.98914313
69400250883326,-1.5663428,9.606423,-0.9699829
69400270739327,-1.5926881000000002,9.587264,-0.977168
69400290595200,-1.5974781999999998,9.580078,-0.97237796
69400310451201,-1.590293,9.558523,-0.9627979
69400330311854,-1.5519726999999999,9.536968,-0.97956306
69400350167983,-1.5543678,9.575289,-1.0011181999999998
69400370024112,-1.5783178999999998,9.558523,-1.0106983
69400389880241,-1.6022681,9.532178,-1.0154883
69400409736370,-1.6022681,9.505833,-0.9963281999999999
69400429595997,-1.5471827,9.541758999999999,-0.98435307
69400449452126,-1.5064673000000002,9.5633135,-0.97956306
69400469308383,-1.5376027,9.604028999999999,-0.94603276
69400489164512,-1.5735278999999998,9.651928999999999,-0.96758795
69400509023749,-1.583108,9.673484,-1.0059083
69400528880134,-1.5615528,9.671089,-1.0011181999999998
69400548736391,-1.5352076000000001,9.632769,-0.91250247
69400568592648,-1.5519726999999999,9.592053,-0.95561284
69400588449033,-1.5950831,9.529783,-1.0370435
69400608305290,-1.6118482,9.524992999999998,-1.0226734
69400628160423,-1.590293,9.5489435,-0.9915381
69400648016680,-1.5663428,9.529783,-1.0226734
69400667872937,-1.5926881000000002,9.534574000000001,-1.0490186000000001
69400687729194,-1.6142433,9.493857,-1.0059083
69400707585451,-1.6262183000000001,9.505833,-0.96040285
69400727444868,-1.6046631000000002,9.565708,-0.9627979
69400747301125,-1.5639478,9.570497999999999,-1.0059083
69400767157510,-1.5567628,9.623189,-1.0106983
69400787013767,-1.5711329,9.625584,-0.9484278
69400806870152,-1.5783178999999998,9.601633999999999,-0.9484278
69400826726537,-1.5663428,9.613608000000001,-0.977168
69400846579606,-1.5543678,9.611214,-0.9580079
69400866435991,-1.5352076000000001,9.611214,-0.92208254
69400886292248,-1.5639478,9.599238,-0.91250247
69400906148505,-1.5519726999999999,9.587264,-0.9699829
69400926003452,-1.5328126,9.575289,-1.0394385
69400945859581,-1.5040723,9.532178,-1.0274634
69400965715838,-1.5280225,9.575289,-0.9867481
69400985571967,-1.5735278999999998,9.522598,-0.9867481
69401005428224,-1.590293,9.510622999999999,-1.0154883
69401025282981,-1.5399976,9.541758999999999,-0.9148975
69401045139238,-1.4992822000000001,9.604028999999999,-0.9148975
69401064995495,-1.5352076000000001,9.64714,-0.977168
69401084851752,-1.5926881000000002,9.656719,-0.98914313
69401104707987,-1.6118482,9.6686945,-0.96040285
69401124564116,-1.5663428,9.623189,-0.9651929
69401144415041,-1.5423926000000001,9.608819,-0.95561284
69401164271298,-1.5447876,9.5633135,-0.94603276
69401184127427,-1.5352076000000001,9.536968,-0.9963281999999999
69401203983556,-1.5735278999999998,9.529783,-1.0490186000000001
69401223836655,-1.5950831,9.534574000000001,-1.0370435
69401243692784,-1.5783178999999998,9.536968,-0.99393314
69401263548785,-1.5950831,9.532178,-0.9532178
69401283404786,-1.585503,9.534574000000001,-0.91010743
69401303260915,-1.5807129,9.551338000000001,-0.9268726
69401323111900,-1.5591576999999999,9.572892999999999,-0.9532178
69401342967773,-1.5447876,9.601633999999999,-0.9699829
69401362823774,-1.5352076000000001,9.632769,-0.92926764
69401382679775,-1.5376027,9.620794,-0.9316626
69401402535776,-1.5567628,9.606423,-0.98195803
69401422391649,-1.5495777,9.632769,-1.0059083
69401442238732,-1.5783178999999998,9.666299,-0.9436377
69401462094477,-1.5687379,9.623189,-0.89573735
69401481950094,-1.5639478,9.558523,-0.94603276
69401501805839,-1.5543678,9.536968,-0.9699829
69401521664714,-1.5184423999999999,9.491463000000001,-1.0154883
69401541520459,-1.5232325,9.515413,-0.9963281999999999
69401561376204,-1.5495777,9.570497999999999,-0.9627979
69401581232056,-1.5615528,9.575289,-0.98195803
69401601087801,-1.587898,9.560919,-1.0226734
69401620943546,-1.5663428,9.599238,-0.98435307
69401640803655,-1.5328126,9.6686945,-0.92926764
69401660659528,-1.5352076000000001,9.651928999999999,-0.9532178
69401680515401,-1.5519726999999999,9.656719,-0.93405765
69401700371274,-1.5807129,9.613608000000001,-0.9699829
69401720227019,-1.587898,9.558523,-1.0250684
69401740083440,-1.5615528,9.558523,-1.0274634
69401759939185,-1.5232325,9.551338000000001,-0.9987232
69401779795058,-1.5256275,9.529783,-1.0274634
69401799650931,-1.587898,9.522598,-1.0609937
69401819497058,-1.6214283,9.522598,-1.0154883
69401839352675,-1.6046631000000002,9.565708,-0.9627979
69401859208292,-1.6046631000000002,9.5633135,-0.9508228000000001
69401879063909,-1.575923,9.570497999999999,-0.98195803
69401898919526,-1.5615528,9.580078,-0.98435307
69401918775143,-1.5687379,9.606423,-0.97956306
69401938632010,-1.5735278999999998,9.630374,-0.9987232
69401958487627,-1.5783178999999998,9.651928999999999,-1.0106983
69401978343244,-1.583108,9.656719,-0.974773
69401998198861,-1.5783178999999998,9.630374,-0.9244776
69402018054606,-1.585503,9.620794,-0.92926764
69402037912241,-1.5950831,9.620794,-0.9651929
69402057767965,-1.5926881000000002,9.594449000000001,-0.9987232
69402077623582,-1.5543678,9.477093,-1.0202783000000002
69402097479327,-1.5352076000000001,9.493857,-1.0585986
69402117337486,-1.5471827,9.486672,-1.0083033000000001
69402137193103,-1.5519726999999999,9.515413,-0.98435307
69402157048848,-1.587898,9.644744000000001,-0.9627979
69402176904593,-1.5998731000000002,9.620794,-0.9580079
69402196760210,-1.6190332,9.546548,-0.98435307
69402216615955,-1.575923,9.510622999999999,-0.99393314
69402236476162,-1.5136524,9.527389,-0.9580079
69402256331907,-1.5112573999999999,9.560919,-0.94603276
69402276187780,-1.5376027,9.596844,-0.9867481
69402296043525,-1.6070582,9.656719,-1.0418334999999999
69402315899270,-1.6549585999999998,9.68067,-1.0059083
69402335754273,-1.6022681,9.692644,-0.93405765
69402355610146,-1.5447876,9.625584,-0.9268726
69402375466019,-1.5304176,9.505833,-1.0106983
69402395321764,-1.5543678,9.445957,-1.0322535
69402415177637,-1.5663428,9.4507475,-1.0035132
69402435033510,-1.5687379,9.510622999999999,-1.0202783000000002
69402454890327,-1.583108,9.565708,-1.0250684
69402474746200,-1.6022681,9.594449000000001,-0.9532178
69402494601945,-1.583108,9.630374,-0.97237796
69402514457818,-1.5974781999999998,9.666299,-1.0083033000000001
69402534323379,-1.5950831,9.644744000000001,-0.9987232
69402554179380,-1.5974781999999998,9.635164,-0.977168
69402574035509,-1.5567628,9.577683,-0.9412427
69402593891638,-1.5519726999999999,9.584868,-1.0035132
69402613747639,-1.5998731000000002,9.5561285,-1.0466236
69402633602348,-1.5974781999999998,9.577683,-1.0178833
69402653458477,-1.5663428,9.587264,-0.9651929
69402673314478,-1.5447876,9.577683,-0.9987232
69402693170607,-1.590293,9.568104,-1.0466236
69402713026608,-1.6118482,9.568104,-0.97956306
69402732882737,-1.575923,9.544153,-0.9580079
69402752739030,-1.5567628,9.551338000000001,-0.9651929
69402772595031,-1.575923,9.589659,-0.98195803
69402792451160,-1.5735278999999998,9.587264,-1.0178833
69402812307161,-1.583108,9.575289,-1.0394385
69402832164858,-1.5543678,9.608819,-1.0418334999999999
69402852020987,-1.5471827,9.623189,-0.9867481
69402871877116,-1.5567628,9.616004,-0.96040285
69402891733245,-1.5926881000000002,9.580078,-0.89573735
69402911589374,-1.6046631000000002,9.5561285,-0.9388476999999998
69402931449129,-1.5807129,9.565708,-1.0585986
69402951305258,-1.5807129,9.589659,-1.0490186000000001
69402971161387,-1.5735278999999998,9.577683,-1.0346485
69402991017644,-1.585503,9.568104,-1.0538087
69403010873751,-1.6022681,9.546548,-1.0538087
69403030729880,-1.590293,9.529783,-0.96758795
69403050584381,-1.5783178999999998,9.544153,-0.93405765
69403070440510,-1.5735278999999998,9.568104,-0.98435307
69403090296639,-1.587898,9.5633135,-0.98435307
69403110152768,-1.585503,9.565708,-1.0106983
69403129999121,-1.5807129,9.587264,-1.0466236
69403149855122,-1.5807129,9.632769,-1.0250684
69403169711123,-1.587898,9.656719,-0.9508228000000001
69403189566996,-1.6070582,9.632769,-0.91250247
69403209422997,-1.5998731000000002,9.623189,-0.9412427
69403229278998,-1.5711329,9.608819,-0.977168
69403249139311,-1.5495777,9.580078,-0.98195803
69403268995440,-1.5232325,9.5489435,-0.9987232
69403288851569,-1.5687379,9.517808,-0.9915381
69403308707698,-1.5783178999999998,9.484278,-0.9627979
69403328563699,-1.5687379,9.501043,-0.9987232
69403348409296,-1.5687379,9.529783,-1.0250684
69403368265169,-1.5639478,9.575289,-0.9987232
69403388121042,-1.5950831,9.644744000000001,-0.9651929
69403407976915,-1.6310083999999998,9.644744000000001,-0.98435307
69403427825596,-1.6070582,9.594449000000001,-0.9580079
69403447681341,-1.5519726999999999,9.601633999999999,-0.8981324
69403467537086,-1.5399976,9.644744000000001,-0.90771246
69403487392683,-1.5591576999999999,9.642349000000001,-0.974773
69403507248428,-1.5998731000000002,9.599238,-0.9867481
69403527104045,-1.6046631000000002,9.5489435,-0.9532178
69403546960022,-1.6022681,9.544153,-0.99393314
69403566815767,-1.6046631000000002,9.515413,-0.9963281999999999
69403586671384,-1.583108,9.505833,-0.98914313
69403606527001,-1.5591576999999999,9.505833,-1.0202783000000002
69403626382746,-1.6094532,9.534574000000001,-1.0418334999999999
69403646237449,-1.6070582,9.568104,-1.0059083
69403666093066,-1.5926881000000002,9.606423,-0.9244776
69403685948683,-1.587898,9.611214,-0.9316626
69403705804300,-1.585503,9.601633999999999,-0.99393314
69403725661497,-1.5926881000000002,9.613608000000001,-0.9580079
69403745517114,-1.5783178999999998,9.656719,-0.94603276
69403765372731,-1.5711329,9.623189,-0.97237796
69403785228476,-1.5711329,9.594449000000001,-1.0059083
69403805084093,-1.583108,9.544153,-0.9580079
69403824939710,-1.5615528,9.513017999999999,-0.90771246
69403844793517,-1.5615528,9.517808,-0.8981324
69403864649006,-1.583108,9.496253,-0.92208254
69403884504623,-1.5807129,9.503438000000001,-0.9651929
69403904360240,-1.575923,9.5633135,-0.9867481
69403924215857,-1.5639478,9.625584,-1.0083033000000001
69403944069696,-1.5711329,9.64714,-0.97237796
69403963925162,-1.5735278999999998,9.611214,-0.91250247
69403983780651,-1.585503,9.625584,-0.8861573
69404003636140,-1.6094532,9.639954,-0.9148975
69404023493261,-1.6070582,9.536968,-0.91729254
69404043348750,-1.6070582,9.515413,-0.9651929
69404063204239,-1.5567628,9.5489435,-0.9364527
69404083059728,-1.5160475,9.589659,-0.9484278
69404102915345,-1.5352076000000001,9.601633999999999,-0.9627979
69404122770834,-1.5950831,9.596844,-0.92208254
69404142624257,-1.6501685000000001,9.587264,-0.9412427
69404162479746,-1.6525636000000001,9.565708,-0.9196875
69404182335363,-1.6286133999999999,9.575289,-0.9148975
69404202190852,-1.5926881000000002,9.580078,-0.94603276
69404222046341,-1.583108,9.587264,-1.0106983
69404241893620,-1.6022681,9.604028999999999,-1.0346485
69404261748981,-1.6022681,9.599238,-1.0202783000000002
69404281604342,-1.6022681,9.589659,-0.9915381
69404301459703,-1.6070582,9.568104,-0.9484278
69404321314936,-1.5926881000000002,9.577683,-0.9316626
69404341170297,-1.5998731000000002,9.551338000000001,-0.9316626
69404361005922,-1.5950831,9.544153,-0.977168
69404380860771,-1.5974781999999998,9.575289,-1.0059083
69404400715748,-1.5663428,9.611214,-1.0035132
69404420570725,-1.5471827,9.594449000000001,-1.0202783000000002
69404440438389,-1.5974781999999998,9.587264,-1.0059083
69404460293622,-1.6262183000000001,9.568104,-0.93405765
69404480148727,-1.590293,9.570497999999999,-0.9436377
69404500003960,-1.587898,9.551338000000001,-0.9987232
69404519859065,-1.6118482,9.594449000000001,-1.0418334999999999
69404539720490,-1.6214283,9.616004,-1.0394385
69404559575851,-1.5807129,9.587264,-1.0538087
69404579431212,-1.5735278999999998,9.596844,-1.0202783000000002
69404599286573,-1.5998731000000002,9.568104,-0.96040285
69404619141806,-1.6022681,9.527389,-0.98195803
69404638997167,-1.6118482,9.510622999999999,-1.0370435
69404658862500,-1.587898,9.5633135,-1.0418334999999999
69404678717989,-1.5567628,9.616004,-1.0106983
69404698573606,-1.583108,9.623189,-0.9963281999999999
69404718429095,-1.6166383,9.623189,-0.97956306
69404738287852,-1.6190332,9.570497999999999,-0.9484278
69404758143341,-1.5807129,9.541758999999999,-0.98914313
69404777998958,-1.587898,9.551338000000001,-0.99393314
69404797854447,-1.575923,9.5633135,-1.0298585
69404817710064,-1.6022681,9.577683,-1.0562036
69404837578661,-1.6477735,9.572892999999999,-1.094524
69404857434534,-1.6453785,9.558523,-1.0609937
69404877290407,-1.6166383,9.520203,-1.0202783000000002
69404897146280,-1.6262183000000001,9.501043,-1.0250684
69404917002131,-1.6477735,9.503438000000001,-1.0154883
69404936858004,-1.6669337,9.577683,-1.0394385
69404956713659,-1.6501685000000001,9.623189,-1.0801538
69404976569532,-1.6142433,9.642349000000001,-1.099314
69404996425277,-1.6118482,9.642349000000001,-1.0466236
69405016281150,-1.6070582,9.589659,-1.0035132
69405036141485,-1.6022681,9.536968,-1.0250684
69405055997358,-1.5807129,9.527389,-1.0154883
69405075853359,-1.6070582,9.529783,-0.9532178
69405095709232,-1.6142433,9.513017999999999,-1.0298585
69405115565105,-1.5998731000000002,9.544153,-1.1232642
69405135420978,-1.6022681,9.582474000000001,-1.0873389
69405155280233,-1.5926881000000002,9.582474000000001,-1.0370435
69405175136234,-1.6094532,9.611214,-1.0346485
69405194992235,-1.6381934999999999,9.630374,-1.0514137
69405214848236,-1.6693287,9.604028999999999,-1.0418334999999999
69405234704237,-1.6669337,9.572892999999999,-0.9963281999999999
69405254559512,-1.6166383,9.546548,-0.9867481
69405274415641,-1.5663428,9.589659,-1.0346485
69405294271642,-1.5615528,9.5633135,-1.0466236
69405314127643,-1.6166383,9.524992999999998,-1.0202783000000002
69405333978828,-1.6453785,9.513017999999999,-1.0442286
69405353834829,-1.6525636000000001,9.532178,-1.0729688
69405373690830,-1.6453785,9.570497999999999,-1.0250684
69405393546810,-1.6214283,9.592053,-0.98914313
69405413402811,-1.6190332,9.577683,-1.0370435
69405433258940,-1.6238233,9.551338000000001,-1.089734
69405453115307,-1.6669337,9.551338000000001,-1.0705738
69405472971308,-1.6501685000000001,9.594449000000001,-1.0130934
69405492827437,-1.6238233,9.616004,-1.0011181999999998
69405512683438,-1.6334034,9.596844,-1.0178833
69405532539439,-1.6429833999999999,9.589659,-1.0059083
69405552401242,-1.6357985000000002,9.572892999999999,-0.9915381
69405572257499,-1.6094532,9.560919,-1.0178833
69405592113628,-1.6046631000000002,9.536968,-1.0250684
69405611969885,-1.6166383,9.529783,-1.0154883
69405631828092,-1.6310083999999998,9.515413,-1.0226734
69405651684477,-1.6190332,9.522598,-1.0298585
69405671540734,-1.5998731000000002,9.5561285,-1.0202783000000002
69405691397119,-1.6022681,9.589659,-0.9915381
69405711253376,-1.6166383,9.596844,-1.0202783000000002
69405731109761,-1.6429833999999999,9.642349000000001,-1.0490186000000001
69405750963338,-1.6094532,9.592053,-1.0370435
69405770819595,-1.587898,9.594449000000001,-1.0466236
69405790675852,-1.590293,9.594449000000001,-1.0178833
69405810532109,-1.5950831,9.513017999999999,-1.0178833
69405830388494,-1.6166383,9.493857,-1.0657837
69405850240339,-1.5998731000000002,9.515413,-1.0585986
69405870096447,-1.6070582,9.570497999999999,-1.0585986
69405889952576,-1.6238233,9.599238,-1.0274634
69405909808705,-1.6501685000000001,9.575289,-1.0083033000000001
69405929664962,-1.6645386000000002,9.570497999999999,-1.0274634
69405949521091,-1.6214283,9.532178,-1.0226734
69405969365268,-1.5735278999999998,9.5489435,-1.0083033000000001
69405989221013,-1.583108,9.568104,-1.0274634
69406009076758,-1.6022681,9.5633135,-1.096919
69406028932503,-1.6381934999999999,9.551338000000001,-1.1184741000000002
69406048797300,-1.6286133999999999,9.560919,-1.089734
69406068653173,-1.5998731000000002,9.601633999999999,-1.0274634
69406088509174,-1.6118482,9.596844,-1.0154883
69406108365047,-1.6262183000000001,9.570497999999999,-1.0274634
69406128220920,-1.6429833999999999,9.534574000000001,-1.0514137
69406148072143,-1.6310083999999998,9.536968,-1.0514137
69406167927888,-1.5926881000000002,9.544153,-1.0849438999999999
69406187783633,-1.585503,9.560919,-1.1041040000000002
69406207639506,-1.6046631000000002,9.541758999999999,-1.0633887
69406227495251,-1.6334034,9.570497999999999,-1.0490186000000001
69406247350996,-1.6070582,9.5633135,-1.0585986
69406267210161,-1.6118482,9.592053,-1.094524
69406287066034,-1.6429833999999999,9.596844,-1.0538087
69406306921779,-1.6357985000000002,9.584868,-1.0394385
69406326777652,-1.6405883999999997,9.589659,-1.0633887
69406346629633,-1.6046631000000002,9.534574000000001,-1.0777588
69406366485506,-1.575923,9.541758999999999,-1.0466236
69406386341251,-1.6094532,9.568104,-1.0154883
69406406196996,-1.6094532,9.522598,-1.101709
69406426052869,-1.6405883999999997,9.505833,-1.1304493
69406445915496,-1.6070582,9.527389,-1.0346485
69406465771497,-1.5687379,9.536968,-0.9867481
69406485627498,-1.5998731000000002,9.541758999999999,-1.0202783000000002
69406505483499,-1.6286133999999999,9.513017999999999,-1.0035132
69406525339500,-1.6453785,9.479486999999999,-1.0370435
69406545195501,-1.6214283,9.484278,-1.0346485
69406565057804,-1.583108,9.491463000000001,-1.0490186000000001
