UPTIMENANO,Ax,Ay,Az
69381069818939,-0.28576183,0.06290466,9.22699
69381089675580,-0.13307267,-0.013562312,9.270775
69381109532219,0.2113264,0.028079377,10.384512
69381129388859,0.6148265,0.004676573,10.931879
69381149245500,0.46897462,0.021208914,10.213961
69381169096952,-0.18528569,0.057172894,9.41674
69381188953464,-0.5408867,0.12596585,9.100905
69381208810105,-0.286189,-0.077690445,9.402089
69381228666616,0.12626186,-0.2020604,9.705522
69381248518814,0.33295974,-0.20228702,9.957543
69381268375199,0.44082192,-0.062049188,10.056644
69381288231582,0.1407576,-0.01879977,9.730255
69381308087966,-0.18752843,-0.06313249,9.321785
69381327944351,-0.30472857,-0.06489746,9.436816
69381347800734,-0.41408437,-0.15105325,9.437726
69381367654491,0.43973362,0.70264935,10.570294
69381387510748,1.0596173,0.7261034,11.589463
69381407367131,0.731766,-0.47496364,10.792393
69381427223387,0.78641576,-1.1206712,10.285823
69381447079644,0.8714205,-0.6158396,9.684546
69381466934631,0.43023875,0.11189834,10.804691
69381486790887,-0.856587,0.6390593,10.388263
69381506647144,-0.60201365,1.4975016,9.130952
69381526503527,1.3948661,0.6302188,9.87665
69381546360280,1.6961778,1.6052142,9.649395
69381566216409,0.09360819,3.5509229,9.8055315
69381586072664,-0.21469355,1.7713228,10.135533
69381605928920,-1.5244532,-5.6198316,8.800501
69381625785177,-1.4594678,-3.9836407,8.315541
69381645641432,-1.0143169,2.2122138,8.359401
69381665497617,-0.5190424,1.9490659,9.753337
69381685353874,0.036830325,1.4166046,10.639282
69381705210001,0.44151196,1.274725,11.023546
69381725066257,0.1828345,0.763989,9.615791
69381744922386,-0.18286675,0.70120543,9.033414
69381764781786,0.10657305,0.94718874,9.641032
69381784638042,0.14342806,1.0599542,9.888934
69381804494299,-0.0777762,0.66827124,8.998087
69381824350554,0.016936364,-0.6169866,9.819532
69381844210449,0.48044482,-0.8521896,9.364332
69381864066706,0.6756111,0.43336698,10.124678
69381883922961,0.36320245,0.571616,10.667346
69381903779345,0.31594476,0.25895932,10.592841
69381923635602,-0.24235684,-0.60786426,10.065776
69381943491857,-0.30068368,-0.020325286,10.064034
69381963351648,0.16663557,0.54378957,10.321564
69381983208033,-0.46840903,0.7186647,9.0348215
69382003064416,-0.7096201,0.16264828,8.584836
69382022920800,-0.48506898,-0.16475892,9.02806
69382042777057,-0.62966096,0.47686195,8.99386
69382062641831,-0.012808557,0.449457,9.593239
69382082498343,0.84984,0.07677444,10.902049
69382102354984,0.9187734,0.031627145,10.71822
69382122211495,0.24640892,0.66500574,9.877393
69382142068135,0.11235267,0.40769243,9.863764
69382161924648,0.3982687,0.1578044,10.32938
69382181736775,1.0444343,0.5756232,10.796943
69382201592519,1.0990405,0.38067645,10.559524
69382221448264,0.4750706,0.5316607,10.060248
69382241304007,0.0030302098,0.8832962,9.396795
69382261171741,-0.15367316,1.0519501,9.229874
69382281027742,0.20367013,0.40209338,9.085061
69382300883613,0.520554,0.39820158,8.185606
69382320739613,-0.8906824,0.9826117,7.496195
69382340595614,-0.84530395,0.5284153,7.008846
69382360461389,0.038145486,-1.0482595,8.5016165
69382380317645,0.34171733,-3.0297441,10.611046
69382400173774,0.2884916,-1.2447362,9.346649
69382420030029,0.07180087,0.7580252,8.114616
69382439886157,0.6088058,0.5601094,8.526806
69382459742286,1.0954331,0.6004768,9.45242
69382479607556,0.8386232,0.7878917,9.962736
69382499463940,0.8820488,-0.070463106,9.6719
69382519320325,0.7300258,-0.6188468,9.331685
69382539176580,0.27078936,-0.1480014,9.2486
69382559048531,0.3680933,0.35285202,8.87162
69382578905172,0.9896516,0.90586406,8.64974
69382598761811,1.0245689,1.7935793,9.479101
69382618618451,1.2365994,1.5788134,10.188899
69382638475220,1.3101904,1.0006884,10.057227
69382658336205,0.91763747,0.6650301,9.684236
69382678192973,1.0300184,0.8636475,9.166962
69382698049614,1.0708017,1.6048298,8.82994
69382717905934,0.89275765,1.1694402,9.048147
69382737762702,1.5436683,-0.23670164,9.205291
69382757619471,2.1264455,-0.3036599,9.741232
69382777481498,1.8037006,0.6467104,10.537733
69382797338394,1.5797466,-0.21586412,9.164385
69382817195163,1.5774958,-2.2688699,1.798815
69382837052058,1.6032672,-1.7589252,6.4177794
69382856907002,-0.4527358,-3.6335845,10.342323
69382876763771,3.89346,2.5814111,10.544664
69382896620666,4.5192237,3.5754495,8.396736
69382916477434,4.65129,4.9444137,4.8825145
69382936334203,7.4215527,5.584414,6.338538
69382956191098,2.1199014,0.7149627,11.995271
69382976039680,-0.72427505,0.5189778,10.690892
69382995896321,-1.7884632,1.8492833,9.975927
69383015753088,-2.6359777,3.6076128,9.568909
69383035609728,1.8328497,3.2707708,12.7210865
69383055466368,2.8537583,1.9756504,12.054788
69383075314304,3.0013967,1.0320135,11.682865
69383095170816,1.4437515,-1.0163051,13.4962225
69383115027328,1.6818974,-3.0689778,15.800136
69383134883840,2.4653802,-3.5538814,12.552759
69383154740352,0.5894337,-2.695597,11.929115
69383174595169,-0.86755687,-1.530694,10.12556
69383194451681,0.18473308,-0.23958579,9.019956
69383214308193,0.70884705,0.1225375,11.526088
69383234164577,2.4002147,-2.1706283,14.492495
69383254021089,1.2191799,-1.7575879,14.146588
69383273878314,-0.97437024,-0.36708188,13.2656975
69383293734826,-2.3121738,0.5026049,15.232634
69383313591338,-3.0968745,0.029515835,16.759018
69383333447850,-2.386728,-2.502593,15.207778
69383353304490,-2.7808511,-3.773456,14.709815
69383373162623,-2.1302743,-0.2973371,12.351872
69383393019135,-2.4357781,2.7223454,11.571586
69383412875775,-2.3316746,0.60049695,11.088896
69383432732415,-2.8086114,-2.953751,11.355739
69383452588927,-2.5759134,-0.89855933,9.633875
69383472443257,-2.3411484,-1.5281718,8.177221
69383492299897,-1.7639136,-4.595904,8.121444
69383512156537,-2.9873335,-3.7496948,7.025366
69383532013049,-3.2516382,-1.1733929,5.2683063
69383551869689,-1.9804764,1.2953899,5.3963723
69383571728438,-2.7451975,2.4192154,4.674128
69383591585206,-4.5690904,-0.3327964,6.052787
69383611441846,-5.756724,-6.5192223,7.4954023
69383631298614,-4.4909,-7.526069,7.613414
69383651155254,0.5249602,-6.1411533,13.421677
69383671012594,0.53380233,-5.732279,11.635219
69383690869362,-1.7180088,-3.2728338,10.975459
69383710726130,-1.3998466,-1.0336655,11.030277
69383730583026,-0.8423201,0.0038873197,11.275764
69383750439794,3.4069226,2.9471242,15.190657
69383770278521,4.0138564,5.999715,10.532429
69383790134521,2.3759284,6.4116006,15.060723
69383809990521,6.401371,3.948053,15.849397
69383829846521,4.65477,2.5385852,11.1554985
69383849702521,1.9623474,-1.1733736,11.19894
69383869564476,0.48411244,-3.3324337,16.230566
69383889420604,1.6908475,-0.8819907,14.192282
69383909276732,-3.4825168,2.1010606,9.4505005
69383929132860,-0.84509873,-0.89762276,9.45639
69383948988988,-0.103734136,-0.32818463,7.269047
69383968846420,-0.037137095,2.4654827,3.3965306
69383988702548,-0.58968884,-0.9943014,5.3199577
69384008558676,-1.3716542,-3.0027661,7.250125
69384028414804,-0.9517937,-3.163716,6.869214
69384048270932,0.2668292,-2.644171,6.8769183
69384068128688,0.28615105,-1.7647767,8.193957
69384087984816,0.13013418,-1.2517041,12.399771
69384107840944,1.6495414,-1.7184217,13.377521
69384127697200,1.2410915,2.425417,9.601045
69384147553328,1.597699,2.009439,11.426326
69384167423597,1.3670604,3.8898509,10.517172
69384187280109,0.19241072,5.6733394,9.19745
69384207136621,-0.50678724,3.974339,12.471472
69384226993133,-0.9865964,3.9814575,12.635393
69384246849645,-1.2605015,2.744643,10.4492035
69384266717573,-0.20638157,2.9653788,10.563865
69384286574341,0.6486651,1.6719997,9.839098
69384306431237,1.5386246,-0.5290014,10.315312
69384326288005,0.22442403,-1.7239392,11.761917
69384346144773,2.0217977,-5.995975,13.532353
69384366001669,-3.4662259,4.0787215,18.065546
69384385863502,-1.937726,0.41620386,13.496643
69384405720526,2.7090676,-2.508607,9.562001
69384425577550,0.75596625,-1.0658628,10.239187
69384445434574,-0.7525938,0.7849071,10.6377535
69384465291598,-0.19251555,3.0276613,9.768427
69384485127687,0.77396894,2.5151694,8.650059
69384504984327,1.1726749,0.6364115,10.363327
69384524840967,0.84773856,-1.196807,10.691814
69384544697735,0.89914614,-1.648262,10.773304
69384564554375,1.0349344,-1.6982985,9.887357
69384584408521,0.95578545,-2.924114,8.768307
69384604265161,1.127821,-3.1870046,8.303433
69384624121801,1.0178336,-2.6186435,8.609829
69384643978313,0.088874765,-1.2406845,8.861981
69384663834953,-1.0328406,1.2002985,9.668705
69384683696213,-1.8607613,4.3208914,11.754612
69384703552853,-2.3198822,6.3530087,14.420559
69384723410521,0.36757976,2.9293332,12.033737
69384743267161,1.5413321,-0.17105946,9.510976
69384763123801,-0.2624209,-0.31609643,10.1396475
69384782988991,0.052161217,-2.1116745,9.862651
69384802845759,0.8539982,-2.9721081,9.197356
69384822702527,0.26229066,-1.7363138,9.839828
69384842559295,0.056951363,0.21898986,10.5419655
69384862416063,-0.06572908,0.96422064,10.543219
69384882277859,0.2299547,1.2932836,10.249017
69384902134755,0.23519948,1.379066,10.220842
69384921991651,-0.17583574,0.71901816,10.211272
69384941848547,-0.723328,0.22221456,9.585839
69384961705443,-1.5359089,1.4565164,10.552181
69384981561778,-0.573947,2.1708088,12.199531
69385001418674,0.07039031,0.57875776,10.936607
69385021275570,-0.2255798,-0.11348166,9.943209
69385041132466,0.15724677,-1.7967337,10.009406
69385060989362,-0.12002594,-2.2330112,10.610359
69385080836364,-0.5802148,-2.0882072,10.1963825
69385100693132,0.011708717,-2.0707958,9.692371
69385120549772,0.49351412,-0.9113313,9.755897
69385140406540,0.27599117,0.52759856,10.214433
69385160263180,0.16270597,0.8561367,10.108916
69385180111658,0.54565513,0.73883665,9.961312
69385199968170,0.4802612,0.6669801,10.155653
69385219824682,0.25446254,0.48129934,10.228043
69385239681194,0.2134389,0.21619037,10.104837
69385259537706,0.26759502,0.06876441,10.227209
69385279394992,0.28519052,0.36235884,10.418367
69385299251504,0.116734184,0.75406986,10.218149
69385319107888,-0.007925817,0.41916412,10.099211
69385338964400,-0.009758453,0.13727795,10.059925
69385358820912,0.46665826,-0.5293924,10.134829
69385378678594,0.07267691,-0.1939685,10.296288
69385398535106,-0.23909685,0.10059237,10.059688
69385418391746,-0.11847555,-0.06387736,9.990152
69385438248258,-0.014183568,-0.25987285,9.929094
69385458104770,0.034345903,-0.36532387,9.969837
69385477963310,0.011128458,-0.3044794,9.926673
69385497819822,0.10004064,-0.16781384,9.966345
69385517676462,0.20240088,-0.12069001,9.986307
69385537533102,0.21818934,-0.12589867,10.000605
69385557389615,0.08506924,0.06160736,9.831925
69385577246046,-0.12873556,0.2858915,9.934995
69385597102558,-0.007135253,0.2314812,9.872923
69385616959198,0.27660313,0.02689566,10.004629
69385636815710,0.3998902,-0.22889563,9.942359
69385656672350,0.34796295,-0.3455975,9.736548
69385676517695,-0.06485908,0.07303549,9.839223
69385696373951,-0.22509523,0.31345305,9.926958
69385716230336,-0.04691007,0.2584596,9.859912
69385736086593,-0.006820393,-0.061021905,9.719199
69385755942975,-0.1363182,-0.37331283,9.66537
69385775807318,-0.08435056,-0.36369622,9.823587
69385795663831,-0.036633663,-0.19665219,9.832384
69385815520344,-0.0038965896,0.027669266,9.814198
69385835376854,0.074193254,0.119097486,9.7502165
69385855233366,0.13350569,0.028449634,9.601917
69385875089175,0.109436534,-0.061941728,9.686878
69385894945687,0.111085504,0.058944337,10.029181
69385914802199,0.0986127,0.21053417,10.004572
69385934656311,0.12226145,0.270201,9.785055
69385954512824,0.24151132,0.150188,9.702926
69385974371341,0.31260115,-0.050801553,9.782412
69385994227982,0.23515435,-0.16776681,9.829424
69386014084623,0.0706121,-0.18834308,9.837091
69386033941136,-0.11109482,-0.061739344,9.810034
69386053797777,-0.111453064,0.086272135,9.80604
69386073646566,-0.091913536,-0.011061582,9.7546835
69386093502823,0.04667199,-0.0023057298,9.714866
69386113359080,0.08651945,0.024058465,9.714573
69386133215337,0.096969835,0.030596752,9.766356
69386153071594,0.10925351,0.087009914,9.856668
69386172932129,0.22277676,0.116575494,9.768771
69386192788386,0.2652307,0.1250374,9.647703
69386212644771,0.10709244,0.07886902,9.59395
69386232501028,0.010679424,0.017216355,9.650212
69386252357413,0.0020538259,-0.014408709,9.68397
69386272219904,0.021254446,-0.032331333,9.723232
69386292076289,0.096818194,-0.09434827,9.740515
69386311932802,0.15158789,-0.07146543,9.792258
69386331789187,0.10665989,7.0396415E-4,9.862661
69386351645700,0.042148087,0.033599425,9.902653
69386371510385,0.049491983,0.023752155,9.85877
69386391367026,0.09006082,0.029401544,9.795926
69386411223647,0.09490546,7.162214E-4,9.780041
69386431080416,0.028816687,-0.053918637,9.763766
69386450937057,-0.026164541,-0.043456666,9.724932
69386470803724,0.05021472,0.01666162,9.678189
69386490660749,0.15409309,0.049385995,9.71748
69386510517646,0.1431918,0.012355847,9.701372
69386530374671,0.08681167,-0.05360662,9.6287155
69386550231568,0.1019022,-0.07268546,9.641353
69386570087415,0.06030724,-0.056334805,9.71026
69386589944440,0.04296321,-0.072786406,9.75697
69386609801337,0.063627705,-0.07891755,9.75708
69386629658362,0.06643187,-0.09268531,9.766536
69386649515387,0.08898942,-0.099560186,9.734668
69386669369948,0.09708061,-0.050043292,9.775251
69386689226973,0.14389694,0.027764477,9.801864
69386709083870,0.13442247,0.023793127,9.848032
69386728940767,0.094211765,-0.003799627,9.867102
69386748797792,0.09170121,-0.037485875,9.816973
69386768654689,0.052496534,-0.04607171,9.663818
69386788508678,0.014165637,-0.023674104,9.665335
69386808365447,0.06936577,-0.0019052055,9.634552
69386828222344,0.12817459,0.061545696,9.68463
69386848079113,0.05296599,0.037931845,9.721087
69386867936010,0.06354797,0.001088269,9.798983
69386887790225,0.15831253,0.09747294,9.746099
69386907647122,0.12571722,0.08732638,9.7219305
69386927503891,0.02130313,-0.017119188,9.7264595
69386947360788,-0.08081308,-0.020750217,9.720217
69386967217557,-0.067175694,0.036954917,9.7226925
69386987068846,-0.008344338,0.043935347,9.720164
69387006925615,0.062667824,0.017029863,9.800877
69387026782256,0.07451953,-0.022147767,9.902682
69387046639025,0.07290784,-0.018974373,9.839918
69387066495794,0.15565883,0.01552459,9.784796
69387086348645,0.14090928,0.035785224,9.799267
69387106205286,0.06365408,-0.084658496,9.7722225
69387126062055,0.06305079,-0.16028403,9.72409
69387145918696,0.12745298,-0.13038468,9.703476
69387165775337,0.16534038,-0.053461898,9.715258
69387185627424,0.1641163,0.047483474,9.702298
69387205483937,0.1558046,0.08932076,9.678855
69387225340578,0.1578884,0.06439924,9.710716
69387245197219,0.17168418,0.061030213,9.743366
69387265053860,0.049723685,0.053091418,9.705885
69387284902659,0.006056442,0.032319654,9.714638
69387304758916,0.090531364,-0.02647967,9.732434
69387324615301,0.12058629,-0.07084355,9.778404
69387344471686,0.12524422,-0.07563318,9.76013
69387364328049,0.08878587,0.09150564,9.736739
69387384183238,0.040294394,0.09667019,9.760499
69387404039623,0.018399417,0.086211085,9.810067
69387423896008,0.013806745,0.09022919,9.786784
69387443752265,0.029749945,0.062844485,9.767334
69387463608650,0.050088134,0.040772527,9.749905
69387483466991,0.021182714,0.034344487,9.747354
69387503323248,0.0029989684,0.030544914,9.708896
69387523179505,0.02988243,0.07498942,9.692539
69387543035890,0.05671814,0.09298361,9.723117
69387562892147,0.08100968,0.08234743,9.769212
69387582742626,0.041776538,0.0973827,9.755402
69387602598755,5.328028E-4,0.061557014,9.811555
69387622454884,-0.002928211,0.041606944,9.786375
69387642311013,-0.030352747,0.078644685,9.689038
69387662167142,0.02037364,0.1203784,9.636469
69387682029219,0.07908939,0.10010138,9.658588
69387701885476,0.09864984,0.040387176,9.702074
69387721741733,0.088835284,0.017753167,9.694929
69387741597862,0.018106911,0.04185679,9.765516
69387761454119,-9.5373095E-4,0.033805158,9.819623
69387781315550,0.026127137,0.012253627,9.857124
69387801171935,0.07342672,-0.0198461,9.858514
69387821028320,0.12391565,0.0021816166,9.858269
69387840884557,0.025116768,0.13573925,9.796568
69387860740942,-0.028647646,0.12785687,9.775249
69387880600009,-0.031179778,0.0805311,9.746667
69387900456394,0.022818271,0.05588652,9.728302
69387920312779,0.103649616,0.063869774,9.700697
69387940169164,0.09149191,0.09029576,9.694142
69387960025677,0.0066856323,0.11554643,9.676704
69387979890944,-0.0036996673,0.07858252,9.690462
69387999747457,0.02096965,0.05873866,9.718726
69388019604098,0.05212471,0.049537525,9.718356
69388039460611,0.026715137,0.06855133,9.741504
69388059317252,0.03845974,0.04417491,9.755339
69388079181427,0.05623273,0.028760925,9.774872
69388099038196,0.06813195,0.019023657,9.809809
69388118895093,0.062147606,0.01442492,9.823371
69388138751862,0.026953155,0.06460467,9.797789
69388158608631,0.01033589,0.09308929,9.7675495
69388178467124,8.237552E-4,0.06941265,9.741369
69388198324021,0.0048435368,0.03927506,9.713047
69388218180918,-0.015331596,0.0067977877,9.721046
69388238037687,-0.014247753,-0.01272273,9.770732
69388257894584,0.030796364,0.017646164,9.738734
69388277752201,0.03682723,0.04026495,9.746103
69388297609098,0.036913384,0.034702048,9.736643
69388317465972,-0.010773878,0.01691386,9.72117
69388337322869,-0.0709157,-0.016943691,9.696795
69388357179766,-0.07635815,0.021486335,9.689084
69388377039019,-0.0031553947,0.082232065,9.737074
69388396896044,0.059576787,0.0947082,9.766873
69388416753069,0.09862928,0.06460485,9.759631
69388436610094,0.008857995,0.05446341,9.798482
69388456467119,-0.048025534,0.034873236,9.788609
69388476322022,-0.016451841,0.06331866,9.77568
69388496178919,-0.014141979,0.08088474,9.750757
69388516035944,-0.05388908,0.0630304,9.6898365
69388535892969,-0.120139085,0.05220559,9.696782
69388555749994,-0.13291155,0.041958977,9.7291155
69388575598869,-0.08838461,0.058394253,9.740913
69388595455766,0.007993668,0.06728085,9.772221
69388615312535,0.028734982,0.059813783,9.770951
69388635169432,-0.026342176,0.06341711,9.79877
69388655026329,-0.08069341,0.06255725,9.814991
69388674883024,-0.053624265,0.05029287,9.76006
69388694739793,-0.03781328,0.056571554,9.76457
69388714596690,-0.05659037,0.03042871,9.756142
69388734453459,-0.12588546,0.06288097,9.69825
69388754310356,-0.108276434,0.07408664,9.689597
69388774168131,-0.027660802,0.06080674,9.738344
69388794024880,0.034036167,0.0487296,9.790799
69388813881777,-0.0063644773,0.04228221,9.788168
69388833738546,-0.056481272,0.06251041,9.703635
69388853595443,-0.03876292,0.09120287,9.670819
69388873452212,-0.026062967,0.067986414,9.617699
69388893304427,-0.052408967,0.019856425,9.654033
69388913161196,-0.04147334,0.026928732,9.675909
69388933017837,-0.010517321,0.056829847,9.7116
69388952874606,0.017430231,0.054244895,9.809903
69388972731375,0.025383756,0.05529799,9.879267
69388992580134,-0.051584207,0.0779694,9.83044
69389012436647,-0.021218464,0.030511916,9.774753
69389032293160,0.09094696,0.06404527,9.73616
69389052149801,0.063611336,0.15003021,9.777352
69389072006314,-0.014343984,0.09416233,9.761751
69389091853539,-0.013889283,0.040568233,9.774918
69389111709924,0.035966955,0.013118808,9.789547
69389131566309,0.059440944,-0.0016446274,9.75086
69389151422694,0.020169385,0.03609848,9.716334
69389171279079,-0.030652914,0.094816834,9.681329
69389191128930,-0.056304697,0.098039545,9.650894
69389210985187,-0.06469287,0.07978196,9.676199
69389230841316,-0.08453019,0.06161404,9.717947
69389250697445,-0.08804126,0.050213937,9.734401
69389270553552,0.022965994,0.0058566467,9.759419
69389290411143,0.13977487,0.0046110256,9.797819
69389310267272,0.09637404,0.01971389,9.823375
69389330123529,0.007124453,0.0376353,9.82776
69389349979658,-0.02887107,0.05125639,9.808632
69389369835787,0.031788733,0.03372927,9.788456
69389389693122,0.009962096,0.04276133,9.772985
69389409549251,-0.044050325,0.056152858,9.746516
69389429405380,-0.03425433,0.051707704,9.731213
69389449261509,0.038902283,0.044827305,9.715195
69389469117766,0.047065474,0.03425407,9.720491
69389488969403,-0.0150315855,0.033213187,9.716655
69389508825404,-0.064457014,0.041164633,9.722064
69389528681533,-0.041911144,0.032451693,9.695921
69389548537534,-0.04090071,0.032144524,9.754381
69389568393535,-0.0721734,0.042313,9.764396
69389588246312,-0.08853919,0.06710102,9.745969
69389608102313,-0.06111591,0.08178936,9.791492
69389627958314,0.0031588483,0.061464038,9.788312
69389647814315,-0.057498485,0.01387147,9.773804
69389667670316,-0.059735246,0.06141079,9.774681
69389687526115,0.0012336393,0.09161452,9.80381
69389707382116,0.023526264,0.09781621,9.792665
69389727238117,0.0069683446,0.0639477,9.748423
69389747094097,-0.038684674,0.030378843,9.721624
69389766950098,-0.09067121,0.024781618,9.704794
69389786809787,-0.06251127,0.028102182,9.699528
69389806665788,-0.05005947,0.04040915,9.71832
69389826521789,-0.10584634,0.085463434,9.729441
69389846377918,-0.036760755,0.040867068,9.753774
69389866233919,0.016268978,0.03944995,9.77176
69389886091310,-0.023703974,0.05633676,9.806112
69389905947439,-0.04908226,0.06616557,9.78444
69389925803440,-0.012696137,0.103514135,9.784709
69389945659569,-0.005154043,0.09301978,9.773764
69389965515570,-0.02194473,0.031721827,9.744451
69389985380379,-0.04929213,0.019054634,9.722029
69390005236636,-0.032756325,0.021233771,9.720328
69390025092765,-0.02497627,0.071109705,9.718222
69390044949022,-0.055794995,0.09791663,9.759852
69390064805279,-0.027544295,0.061543856,9.751829
69390084657872,-0.0317679,0.029646326,9.74072
69390104514129,-0.060436085,0.031417266,9.747567
69390124370258,-0.034292642,0.053851902,9.7708
69390144226387,-0.03614647,0.04844933,9.769463
69390164082644,-0.022292463,0.034059968,9.744065
69390183942283,-0.05529196,0.013023502,9.750405
69390203798412,-0.07388758,0.028041586,9.754112
69390223654648,-0.031342875,0.0615822,9.751079
69390243510777,-0.042357504,0.059473485,9.75974
69390263372136,-0.06756214,0.05468148,9.745724
69390283228393,-0.05632671,0.002730821,9.719543
69390303084778,-0.02398795,-0.017123396,9.712786
69390322941035,-0.012408951,0.0461858,9.7349825
69390342797420,-0.03586106,0.088074446,9.751783
69390362653805,-0.015804907,0.05566824,9.780001
69390382514342,0.005816436,0.019074418,9.796602
69390402370855,-0.051654063,0.025861766,9.783446
69390422227368,-0.054897185,0.052032225,9.796293
69390442083881,-0.009184936,0.041243136,9.762386
69390461940266,-0.02413773,0.05789533,9.72424
69390481805345,-0.056474555,0.048515335,9.731168
69390501662114,-0.019676799,0.032916326,9.747677
69390521518755,0.009562875,0.05191672,9.741803
69390541375396,-0.03608673,0.07966178,9.789854
69390561229283,-0.048582986,0.0482344,9.78419
69390581085924,-0.047064677,0.020328987,9.776676
69390600942693,-0.044005673,-0.009005689,9.759514
69390620799334,0.0043868525,-0.030226985,9.719853
69390640655975,-0.019987782,0.025074242,9.714902
69390660512616,-0.074493036,0.06126448,9.730563
69390680367019,-0.08042856,0.046159722,9.731258
69390700223638,-0.024969062,0.06703906,9.742632
69390720080151,-0.0051223245,0.07996057,9.767776
69390739936792,-0.010841682,0.09199868,9.758805
69390759793433,-0.052241743,0.08359373,9.754739
69390779654408,-0.0066041094,0.05568244,9.754047
69390799511049,0.013517666,0.06812411,9.808422
69390819367690,0.0716757,0.078030296,9.762902
69390839224331,0.07586272,0.14392002,9.760411
69390859081100,0.03762599,0.12851264,9.758359
69390878937741,0.05512575,0.052228745,9.761848
69390898797624,0.030467302,0.022774857,9.738048
69390918654393,-0.06589409,-0.0073960526,9.747485
69390938511162,-0.06978202,-0.009965488,9.719026
69390958367931,0.023440592,0.031058308,9.6782
69390978224236,0.07125071,0.091812246,9.726042
69390998081005,0.06564804,0.10539728,9.753595
69391017937774,-0.032536164,0.07113455,9.783001
69391037794671,-0.088205114,0.022380844,9.760745
69391057651440,-0.019232454,-0.0023815543,9.762829
69391077496421,0.08963308,0.003090148,9.75895
69391097353062,0.08044195,0.047451198,9.7424965
69391117209575,-0.018192984,0.1130441,9.718205
69391137066216,-0.06517903,0.11079974,9.727245
69391156922857,-0.042593114,0.07055135,9.74835
69391176779349,0.0101195555,0.038137596,9.742204
69391196624018,0.032738335,0.02919603,9.752328
69391216480403,0.051245682,0.013530072,9.78666
69391236336660,0.049296863,-0.036136948,9.751682
69391256193045,0.057443593,-0.040472727,9.759682
69391276051576,0.09097816,-0.03343244,9.7652
69391295907833,0.115506254,0.024139684,9.739153
69391315764090,0.1065928,0.025911031,9.757796
69391335620475,0.06264528,-0.04302345,9.7781
69391355476732,0.038430206,-0.037015818,9.775183
69391375332917,0.03293998,0.007544641,9.798476
69391395189174,0.083048806,0.025122128,9.749077
69391415045431,0.08985067,0.013534525,9.710052
69391434901816,0.028653799,0.025153216,9.701226
69391454758073,0.005995377,0.013664769,9.749633
69391474614330,0.036030307,-0.0048225145,9.796514
69391494468399,0.0778865,0.010826006,9.801807
69391514324656,0.0965525,0.039603062,9.731699
69391534180913,0.033145152,0.04624563,9.654298
69391554037170,-0.010060075,0.07036215,9.641812
69391573890801,0.02139304,0.05606613,9.620674
69391593747058,0.08325122,0.005701257,9.675952
69391613603315,0.106193766,-0.015080091,9.755348
69391633459444,0.03455162,0.04907214,9.866676
69391653315678,-0.0018073617,0.074545115,9.871668
69391673171807,-0.0021586579,0.013789504,9.899544
69391693026364,-0.010540563,-0.08503775,9.8571
69391712882493,0.021258641,-0.00938773,9.8102255
69391732738494,0.045464862,0.09231253,9.777851
69391752594623,0.01065306,0.09955305,9.739488
69391772450752,0.031098284,0.077690706,9.719051
69391792309545,0.07158803,0.05812504,9.737828
69391812165674,0.06526645,0.08409019,9.700917
69391832021803,0.034268893,0.109058954,9.69877
69391851878060,0.028673975,0.07120154,9.715989
69391871738517,0.01754932,0.038177427,9.751698
69391891594646,0.020976124,0.031958666,9.752797
69391911450903,0.045999967,0.034299143,9.776733
69391931307160,0.042376332,0.034609206,9.784565
69391951163289,0.02821818,0.01962101,9.801312
69391971019546,0.04629789,-0.028379124,9.79693
69391990878979,0.091601744,-0.045851775,9.781231
69392010735236,0.09483999,-0.043334346,9.795813
69392030591493,0.030214543,0.0034075815,9.781637
69392050447750,-0.0015728216,0.0018140255,9.746489
69392070304007,0.03481392,0.017996116,9.724599
69392090161588,0.054980256,0.016560448,9.726662
69392110017845,0.06971612,-9.34944E-4,9.753946
69392129874207,0.0439473,-3.7673474E-4,9.745077
69392149730592,-0.013128046,0.020077983,9.686747
69392169589201,0.032185007,0.0051902453,9.710746
69392189445586,0.08593023,-0.006441963,9.746418
69392209301971,0.09274745,-0.048815314,9.756259
69392229158356,0.028979035,-0.057557352,9.7796955
69392249014741,-0.0037067654,0.012883358,9.769903
69392268870998,0.025050215,0.038123466,9.7922125
69392288733241,0.0029328314,-0.070316635,9.776025
69392308589754,0.04217225,-0.061689597,9.745769
69392328446267,0.07469897,0.044147056,9.723716
69392348302652,0.062165912,0.040139437,9.734378
69392368159165,0.034902863,0.039522804,9.742449
69392388017404,0.037736706,0.035963453,9.765964
69392407873917,0.045052156,0.065785185,9.774474
69392427730558,0.029254002,0.016254004,9.788396
69392447587071,0.0012295789,-0.049620073,9.781802
69392467443712,-0.023086214,-0.05464233,9.771774
69392487300225,0.015781492,0.020665633,9.746778
69392507156310,0.08456101,0.030352619,9.72044
69392527012951,0.07958946,0.024086667,9.749364
69392546869592,0.046939347,0.048793647,9.732644
69392566726233,0.057141535,0.054464553,9.763986
69392586582404,0.040383376,0.006771301,9.73927
69392606439153,0.027086793,-0.032101598,9.731888
69392626295794,0.019334398,-0.044395696,9.730893
69392646152435,0.035501193,0.0344467,9.760688
69392666009076,0.06537523,0.076876,9.758881
69392685859233,0.077956855,0.050990064,9.755864
69392705715618,0.07729983,0.011992731,9.781638
69392725572131,0.05944081,0.02837347,9.7472105
69392745428644,0.011420967,0.06749383,9.741751
69392765285157,0.028633283,0.01615088,9.763543
69392785141670,0.06638843,-0.04423279,9.788871
69392804992149,0.088762864,-0.035769656,9.792454
69392824848406,0.031876955,-0.028802041,9.780625
69392844704663,0.014737641,-0.04919698,9.745322
69392864561048,0.057400513,0.0063183787,9.741608
69392884414269,0.045521446,0.010557872,9.724128
69392904270654,0.046662193,0.019322699,9.7107115
69392924126911,0.06948998,0.07748903,9.736544
69392943983168,0.06946281,0.08858298,9.755332
69392963839425,0.0375059,0.01590055,9.755155
69392983694634,0.016682865,-0.04757286,9.796572
69393003550891,0.021114849,-0.07354547,9.777415
69393023407148,0.008848982,-0.039824422,9.779163
69393043263405,-0.014985294,0.003954028,9.781366
69393063119662,0.00872194,0.040862117,9.757471
69393082975896,-0.043152,-0.061864797,9.74158
69393102818367,-0.06724634,-0.04527838,9.728721
69393122674240,-0.06509,-0.06931989,9.715083
69393142530241,-0.030801693,-0.012996809,9.715009
69393162386242,9.1481843E-4,0.04968951,9.723499
69393182236903,-0.02051154,0.037099015,9.746512
69393202092648,-0.036505736,-0.025776833,9.747573
69393221948521,-0.0352681,-0.04498587,9.730737
69393241804266,-0.049229875,-0.055070333,9.771543
69393261660011,-0.062125206,-0.063811824,9.778185
69393281515884,-0.06407876,-0.038792554,9.777092
69393301378557,-0.047357008,0.032343447,9.81164
69393321234430,-0.036712427,0.031418942,9.776677
69393341090303,-0.0077581895,-0.020161366,9.746003
69393360946176,-0.039476626,-0.026326865,9.735033
69393380802177,-0.05241312,-0.017452834,9.719867
69393400649876,-0.064446636,-0.02417622,9.723928
69393420505493,-0.03529962,-0.011647369,9.7434635
69393440361238,0.0040746797,-0.016068285,9.739818
69393460216983,-0.027128506,-0.030674556,9.74465
69393480071618,-0.061347723,-0.024909962,9.748844
69393499927235,-0.06739192,0.0017613232,9.729892
69393519782980,-0.08348858,-0.08821098,9.756411
69393539638597,-0.04984782,-0.12859447,9.800533
69393559494322,-0.04633859,-0.03759549,9.810687
69393579349939,0.015845725,0.025898973,9.803897
69393599206166,0.019927947,0.049500946,9.797568
69393619061911,-0.013796213,0.025254942,9.782375
69393638917656,-0.05338861,-0.012099882,9.747139
69393658773273,-0.047801994,0.014750734,9.701327
69393678629018,-0.06939332,0.0032634267,9.718883
69393698481727,-0.074787356,-0.032779276,9.71513
69393718337344,-0.09547831,-0.06912959,9.710333
69393738192833,-0.06100773,-0.0185665,9.745299
69393758048450,-0.03339945,0.06022646,9.740631
69393777907377,-0.039693747,0.049046703,9.75923
69393797762994,-0.028192906,8.451489E-5,9.758982
69393817618611,-0.021928096,-2.6598072E-4,9.771684
69393837474356,-0.03591036,0.022020089,9.788676
69393857329973,-0.041041195,0.004770481,9.764544
69393877185590,-0.07485363,-0.018380206,9.783287
69393897045145,-0.05582237,0.033669837,9.780304
69393916900890,-0.0068155066,0.043145806,9.696798
69393936756763,-0.026869226,-0.036860432,9.690033
69393956612508,-0.093439184,-0.033522576,9.713922
69393976468253,-0.070745334,-0.029086629,9.797671
69393996332892,0.07441288,0.012400125,9.795865
69394016188893,0.022827731,0.076021455,9.807707
69394036044745,0.100697465,2.908647E-4,9.858262
69394055900746,0.08212882,0.11928019,9.85642
69394075756619,0.033227634,0.05536271,9.779896
69394095612492,0.025218233,-0.11379221,9.720765
69394115469559,0.055595372,-0.07943471,9.659688
69394135325560,0.04944224,0.08076665,9.688048
69394155181561,0.027377456,0.12624191,9.74332
69394175037434,0.050559215,0.028780086,9.691103
69394194899043,0.05159142,0.019688804,9.706882
69394214755172,0.0050726016,0.06304732,9.706915
69394234611173,0.0036060608,0.08025802,9.709293
69394254467302,0.026875889,0.016431134,9.739339
69394274323431,0.064979516,-0.014421624,9.778689
69394294182290,0.063876376,0.012953037,9.801804
69394314038419,0.058776,0.06314042,9.85032
69394333894548,0.047224738,0.030520767,9.830829
69394353750677,0.04319971,0.007802088,9.84563
69394373606934,0.058384925,0.007445056,9.818985
69394393463063,0.03968928,0.037027687,9.779087
69394413306812,0.016389333,0.012047655,9.754949
69394433162685,0.051837664,0.035420712,9.72102
69394453018686,0.063395455,0.086484425,9.676979
69394472874687,0.056823425,0.050704222,9.705142
69394492735700,0.0126489615,0.044205137,9.68393
69394512591680,0.024638655,0.07588746,9.676972
69394532447809,0.051457863,0.04925055,9.714454
69394552303938,0.09318913,-0.0017881925,9.756369
69394572159939,0.089161284,-0.00892114,9.840648
69394592019380,-0.0041574524,-0.022238337,9.828936
69394611875636,-0.03495204,-0.043011677,9.802591
69394631731765,0.005849354,-0.011497423,9.798702
69394651587892,0.009861626,-0.018824507,9.807162
69394671444148,0.023193205,-0.02929487,9.789028
69394691300277,0.048238914,0.0065295887,9.76226
69394711161630,0.047909744,0.059440155,9.727974
69394731017887,0.045242734,0.06354096,9.7142515
69394750874016,0.019695468,0.004616569,9.697846
69394770730273,0.028902698,-0.022960179,9.672769
69394790588926,0.025098033,0.0035592418,9.668056
69394810445183,-0.017211745,0.024150433,9.701243
69394830301432,0.013586868,0.023028176,9.713234
69394850157688,0.061877776,0.0410979,9.7818365
69394870013945,0.06518945,0.0127320625,9.805764
69394889872271,0.031807184,-0.0588096,9.814411
69394909728655,0.032901477,-0.08487875,9.819685
69394929585040,0.0424459,-0.0355393,9.817646
69394949441423,0.03702754,-0.008885912,9.817798
69394969297808,-0.0033855715,-0.0036214937,9.755415
69394989154193,-0.018832272,-0.02767346,9.7166815
69395009005556,0.0153321605,-0.026994491,9.728996
69395028861809,0.06462934,-0.013350508,9.660878
69395048718066,0.09464088,-0.01950553,9.696272
69395068574321,0.022729356,-0.050550148,9.74131
69395088428829,0.006732529,-0.07846183,9.7141075
69395108285086,0.03010101,-0.05215273,9.722098
69395128141341,-0.05635665,-0.013662635,9.727585
69395147997469,-0.070365116,-0.0376738,9.784812
69395167853726,-0.05799572,-0.015228538,9.808094
69395187707781,-0.047982972,0.025625017,9.848721
69395207564037,-0.029503828,-0.022184068,9.837762
69395227420166,-0.017780975,-0.06555686,9.843163
69395247276293,-0.0254369,-0.054718055,9.818512
69395267132549,0.024642838,-0.0897902,9.734463
69395286988678,0.043221757,-0.11113417,9.674904
69395306850547,0.028311288,-0.05211337,9.682036
69395326706803,-0.0031376116,-0.0011398118,9.698131
69395346563060,-0.027940033,-0.060511053,9.723046
69395366419315,-0.0020064497,-0.06879145,9.722071
69395386270427,-0.005864283,-0.026240116,9.724007
69395406126556,-0.0055188816,-0.020655956,9.731006
69395425982683,-0.026978225,-0.030608322,9.747382
69395445838811,-0.04304288,-0.026804559,9.758723
69395465695068,-0.046500217,-0.024091177,9.792049
69395485551195,-0.035437584,-0.0071049905,9.829336
69395505413315,-0.034391318,-0.0031926911,9.853645
69395525269444,-0.04533254,0.02225835,9.854732
69395545125699,-0.040017866,-0.014368334,9.79984
69395564981955,-0.028274778,-0.040157057,9.767176
69395584838212,-0.03835875,-0.039368395,9.738519
69395604687454,-0.045987718,-0.04147692,9.688067
69395624543582,-0.054152902,-0.06444123,9.664656
69395644399711,-0.05136975,-0.105758704,9.689435
69395664255966,-0.030613665,-0.07752528,9.723301
69395684107645,0.004624562,-0.01077173,9.721254
69395703963646,-0.022774193,0.0021797717,9.744827
69395723819773,-0.068046525,0.0013759432,9.74894
69395743675901,-0.065298446,-0.03995414,9.774198
69395763531902,-0.04230969,-0.012149953,9.806069
69395783388029,-0.008715948,0.015231689,9.835231
69395803248056,-0.0026120164,-0.020918755,9.808978
69395823104185,-0.019991403,-0.03550857,9.799328
69395842960312,-0.053931024,0.016868154,9.768276
69395862816568,-0.03738469,-0.043088604,9.749755
69395882672697,0.021646177,-0.14635073,9.714917
69395902526367,0.03957371,-0.15205303,9.720608
69395922382495,0.027217127,-0.071598485,9.722943
69395942238624,-0.006244092,-0.006854195,9.711203
69395962094879,-0.0033650442,-0.022015184,9.734552
69395981951007,0.035360355,-0.0076329755,9.732021
69396001807136,0.0041075,0.018754065,9.734794
69396021662366,-0.04169346,-0.004911946,9.741854
69396041518366,-0.025695529,-0.079481706,9.763424
69396061374367,0.027664028,-0.14614624,9.78286
69396081230238,0.024841884,-0.086817615,9.777685
69396101085959,-0.043071203,-0.025621912,9.752105
69396120941960,-0.060090967,0.008129074,9.768155
69396140797959,-0.012619289,-0.029057922,9.786445
69396160653960,0.013458876,-0.06336748,9.769471
69396180509961,-0.013437902,-0.046796307,9.769674
69396200361454,-0.01871458,-0.033323117,9.750893
69396220217323,0.050363213,-0.059456557,9.7341175
69396240073196,0.075253695,-0.059973802,9.796385
69396259929067,0.026023,-0.037649967,9.77783
69396279779732,0.01440554,-0.034198552,9.690295
69396299635605,0.035735022,-0.04895365,9.692346
69396319498999,1.2531577E-4,-0.07069166,9.6881895
69396339254239,0.019212693,-0.06788318,9.7390585
69396359110240,0.009213787,-0.027039384,9.767166
69396378966369,0.008093988,0.00959524,9.780675
69396398823356,0.066606715,-0.014036263,9.788892
69396418679485,0.054785155,0.015715463,9.868588
69396438535614,0.020556986,0.063988045,9.766681
69396458391743,0.07488682,-0.09880902,9.731152
69396478247872,0.099634014,-0.10555142,9.754037
69396498108013,0.13356379,0.03972414,9.759897
69396517964142,0.111737505,0.09087897,9.779019
69396537820399,-0.037534695,0.031275336,9.790284
69396557676528,-0.062306013,-0.050731916,9.774112
69396577532785,0.03467767,-0.011312301,9.742763
69396597388914,0.10848777,-0.0012737651,9.74586
69396617238293,0.115822345,-0.028449707,9.73694
69396637094422,0.06403908,-0.009887001,9.762563
69396656950423,0.025236607,-0.002794267,9.760492
69396676806552,0.04502329,-0.0016557615,9.703841
69396696659791,0.030377513,-0.02583481,9.696011
69396716515792,0.027392685,-0.0038734053,9.7385435
69396736371793,0.08407878,-6.490629E-5,9.697668
69396756227794,0.113916904,0.011268776,9.731402
69396776083795,0.09995341,-0.0045369095,9.761646
69396795939796,0.07242941,-0.0073239882,9.824675
69396815803375,0.038345143,0.009282365,9.944124
69396835659504,0.02586194,-0.017914467,9.940838
69396855515633,-6.622262E-5,0.006318245,9.767229
69396875371762,0.057826873,0.017247627,9.6837845
69396895227763,0.08197047,-0.010146747,9.625043
69396915084684,0.09629665,9.464164E-4,9.594022
69396934940941,0.01912605,0.021459445,9.58125
69396954797070,0.045402333,0.0049679326,9.619663
69396974653327,0.11185746,0.0028293328,9.707833
69396994500304,0.10976078,0.031629097,9.812576
69397014356305,0.073261596,0.021190079,9.873532
69397034212306,0.038150784,0.015516152,9.891531
69397054068307,0.06638162,0.027497733,9.891102
69397073924308,0.08218075,0.05051795,9.862252
69397093780309,0.06920491,0.06862525,9.834998
69397113634902,0.08300068,0.061530214,9.795934
69397133490903,0.088690005,0.059438128,9.737533
69397153346904,0.094471,0.041189678,9.68856
69397173203033,0.122256726,0.020765696,9.663023
69397193059034,0.12527014,0.027642548,9.652266
69397212908085,0.11787555,0.048477437,9.640583
69397232763830,0.11877498,0.060014345,9.674341
69397252619703,0.114028364,0.055845294,9.726871
69397272475576,0.041355386,0.033311717,9.7704935
69397292328001,0.015606946,0.03139824,9.814315
69397312183746,0.07524781,0.0271661,9.823518
69397332039491,0.13840324,0.040540442,9.860424
69397351895108,0.072384104,0.04043018,9.845059
69397371750853,0.05613765,0.0149601605,9.829558
69397391606598,0.09438944,0.016874852,9.806304
69397411458387,0.095499754,0.033514313,9.809255
69397431314004,0.0670658,0.059661154,9.711353
69397451169621,0.07671756,0.056245543,9.662817
69397471025238,0.09640155,-0.019086996,9.656431
69397490880855,0.13720316,-0.024081592,9.661469
69397510736730,0.12907155,0.0014795493,9.679799
69397530592347,0.065883905,0.031981967,9.716257
69397550447836,0.06423369,0.05042804,9.721723
69397570303453,0.08755674,0.033401094,9.7914915
69397590159070,0.05487468,0.029515214,9.858772
69397610014559,0.041737612,0.022782912,9.849189
69397629872144,0.11494333,0.033549048,9.832853
69397649727761,0.14574033,0.04995768,9.777316
69397669583378,0.12319386,0.029246464,9.774289
69397689438995,0.08276628,0.0342272,9.740019
69397709294522,0.09669383,0.04451295,9.713702
69397729150139,0.09918755,0.059279602,9.728641
69397749005756,0.079309694,0.05291754,9.713672
69397768861350,0.12010714,0.019906074,9.711462
69397788716967,0.15675347,0.013892482,9.735481
69397808577172,0.11785909,0.0371411,9.723984
69397828432789,0.047086902,0.03480067,9.734656
69397848288534,0.032084867,0.013395262,9.754098
69397868144151,0.05371551,0.011233237,9.8067665
69397887999768,0.07385288,0.024340125,9.839985
69397907855513,0.08195939,0.019337408,9.85932
69397927715648,0.06967317,0.022499744,9.834436
69397947571393,0.10171685,0.013017119,9.833085
69397967427138,0.16102503,-4.2326955E-4,9.750457
69397987282883,0.09607383,0.012524888,9.715475
69398007143912,0.024029857,0.056633797,9.709626
69398026999785,0.02866674,0.074198954,9.649633
69398046855658,0.115260586,0.04240799,9.646637
69398066711403,0.114812955,-0.026590755,9.69572
69398086567276,0.08993534,-0.045805458,9.741523
69398106429525,0.101988435,0.0030811562,9.760688
69398126285526,0.0720061,0.07897598,9.77361
69398146141655,0.041722246,0.056616195,9.776962
69398165997656,0.019068426,0.019345328,9.785715
69398185853785,0.024463827,-0.0035879405,9.794429
69398205709786,0.11943931,-9.211325E-4,9.80781
69398225567177,0.16512598,0.013695598,9.799559
69398245423283,0.14278293,0.021405019,9.801426
69398265279284,0.12643091,0.037348095,9.785708
69398285135413,0.123415165,0.06042712,9.777221
69398305000838,0.058555875,0.057219148,9.751668
69398324857095,0.010191773,0.06014779,9.726128
69398344713352,0.07125695,0.066200316,9.688446
69398364569609,0.13058466,0.046943646,9.685289
69398384425738,0.16152446,0.018882671,9.70748
69398404281995,0.16316323,-0.0042623077,9.730471
69398424144502,0.14516343,1.7132737E-4,9.73946
69398444000887,0.09264823,0.030097723,9.740147
69398463857400,0.057541642,0.052440677,9.765393
69398483713913,0.03826805,0.045351017,9.769859
69398503570426,0.048935704,0.03813757,9.789033
69398523433949,0.06337805,0.033895977,9.791966
69398543290718,0.10199921,0.02915951,9.794425
69398563147359,0.12660158,0.008913607,9.75158
69398583004000,0.14675915,-0.00517536,9.802078
69398602859275,0.11160365,0.015525304,9.778269
69398622715916,0.10706382,0.05499052,9.69931
69398642572557,0.08469223,0.03386192,9.669404
69398662429198,0.058171745,0.009775207,9.68497
69398682285967,0.058668606,-0.007512159,9.716184
69398702142608,0.07130379,0.009869841,9.7495
69398721998748,0.09472556,0.04129707,9.761753
69398741855517,0.1139204,0.060665213,9.800842
69398761712158,0.05452816,0.045563824,9.776151
69398781568799,0.06224986,0.0144965,9.790981
69398801425440,0.08235631,0.028720891,9.773178
69398821273675,0.11540051,0.049273822,9.767313
69398841130188,0.103216924,0.06235862,9.785595
69398860986829,0.073891275,0.06645335,9.761868
69398880843342,0.10507779,0.04901485,9.749325
69398900702081,0.08516166,0.06708862,9.719039
69398920558722,0.07812554,0.055193994,9.699332
69398940415235,0.08306645,0.053129256,9.699396
69398960271876,0.089699954,0.036199488,9.71656
69398980128517,0.08538345,0.010340771,9.753211
69398999985030,0.07819026,0.0016235368,9.758421
69399019828011,0.094879866,0.0015262465,9.811027
69399039684268,0.07626431,0.0019888154,9.829038
69399059540653,0.07123148,0.020209558,9.819545
69399079396910,0.056128833,0.046854798,9.783822
69399099253167,0.05603276,0.03499381,9.767148
69399119104910,0.080972835,0.030593699,9.76119
69399138961039,0.10909045,0.00657483,9.683858
69399158817296,0.11586222,0.0050870846,9.74026
69399178673425,0.11385158,-0.0017098415,9.765747
69399198529660,0.14717819,0.03498525,9.721221
69399218385917,0.111353375,0.04343491,9.71232
69399238236760,0.031366583,-4.97909E-4,9.719951
69399258092761,0.044548288,-0.020140441,9.771344
69399277948890,0.044221357,-0.009907999,9.768196
69399297804891,0.03644178,-0.015137608,9.752008
69399317648512,0.07617741,0.02478237,9.764663
69399337504257,0.12294078,0.020562757,9.782533
69399357360002,0.10533534,-0.002213194,9.77957
69399377215747,0.069071844,-0.028107742,9.772054
69399397071620,0.107605375,0.011328553,9.772332
69399416932907,0.14427216,0.044668168,9.720199
69399436788780,0.15577684,0.072606444,9.733283
69399456644653,0.088405214,0.073251486,9.756948
69399476500398,0.051586434,0.04972694,9.779054
69399496356271,0.07719581,0.057577837,9.758186
69399516212144,0.117346615,0.021712806,9.713979
69399536067871,0.10000547,0.012319226,9.674318
69399555923616,0.060121402,0.031610634,9.701075
69399575779489,0.08043372,0.044300143,9.707411
69399595635234,0.11446509,0.032216866,9.737483
69399615484299,0.111809455,0.013990185,9.802407
69399635339916,0.05610183,0.009440238,9.833485
69399655195533,0.04811583,0.02712531,9.855351
69399675051128,0.09044488,0.020958155,9.794478
69399694906745,0.1116102,0.013586543,9.804759
69399714765604,0.105642006,0.014750336,9.765438
69399734621221,0.121667646,-0.012339995,9.715815
69399754476838,0.1315224,0.034044728,9.734364
69399774332455,0.1516403,0.05296802,9.688107
69399794188200,0.13101244,0.055209618,9.650167
69399814043817,0.019949108,0.01531908,9.677807
69399833892754,0.034304257,-0.032678016,9.709801
69399853748243,0.1010797,-0.04311018,9.77463
69399873603732,0.09278888,0.015583995,9.798631
69399893459221,0.11723137,0.049850937,9.823652
69399913323238,0.088292964,0.05005441,9.823673
69399933178983,0.03499021,0.025091913,9.817313
69399953034600,0.059865866,-0.013666143,9.783506
69399972890345,0.07108665,0.0067062946,9.753815
69399992746090,0.09410329,0.03926476,9.744283
69400012601707,0.07938777,0.06201862,9.73231
69400032461114,0.11268315,0.033282276,9.730199
69400052316859,0.12245108,0.014531913,9.715616
69400072172604,0.103779554,0.036670413,9.720272
69400092028349,0.06757405,0.04707245,9.714114
69400111883966,0.068064414,0.031723846,9.718836
69400131746671,0.062478393,0.02235883,9.75821
69400151602523,0.053915497,-0.009742445,9.742222
69400171458524,0.07243431,-6.8655575E-4,9.76973
69400191314397,0.057073746,0.010637666,9.797195
69400211171452,0.06962014,-0.0071594073,9.778134
69400231027325,0.06130954,-0.009198001,9.816095
69400250883326,0.045949645,-0.01925323,9.781368
69400270739327,0.052688234,0.010332291,9.767509
69400290595200,0.048163716,0.01596457,9.760777
69400310451201,0.040981974,0.011946123,9.737533
69400330311854,0.062335894,-0.021100193,9.711724
69400350167983,0.080384485,-0.023891434,9.751789
69400370024112,0.08948514,0.0030800675,9.74012
69400389880241,0.09462293,0.031374846,9.718587
69400409736370,0.07777644,0.03464954,9.690899
69400429595997,0.067059614,-0.0263286,9.716104
69400449452126,0.0635898,-0.070309676,9.730208
69400469308383,0.024527078,-0.04858208,9.772082
69400489164512,0.03923966,-0.020000735,9.827004
69400509023749,0.074797854,-0.01187689,9.853356
69400528880134,0.07186972,-0.032970987,9.84705
69400548736391,-0.011000129,-0.057823434,9.796748
69400568592648,0.033954546,-0.031843025,9.763561
69400588449033,0.1167846,0.026021682,9.717109
69400608305290,0.1016348,0.042448215,9.713766
69400628160423,0.03165845,-0.01481512,9.731047
69400648016680,0.044810817,-0.051575713,9.711405
69400667872937,0.08033545,-0.047706056,9.722985
69400687729194,0.0670827,-0.0013601305,9.682276
69400707585451,0.036812216,0.035465594,9.691502
69400727444868,0.015011709,0.013139748,9.747015
69400747301125,0.023091614,-0.045754325,9.749338
69400767157510,0.0131041035,-0.057870466,9.80037
69400787013767,-0.027046556,-0.008114009,9.79893
69400806870152,-0.018449241,-9.008338E-4,9.776587
69400826726537,-0.0054698554,-0.028912088,9.789223
69400846579606,-0.027163023,-0.026191002,9.783039
69400866435991,-0.0666491,-0.018819425,9.776386
69400886292248,-0.054618087,0.010370139,9.768362
69400906148505,-0.015040548,-0.033897858,9.760315
69400926003452,0.029507848,-0.091216594,9.752277
69400945859581,0.010523925,-0.10331869,9.7041
69400965715838,-0.014335154,-0.062209126,9.746313
69400985571967,0.022503974,-0.023158846,9.701984
69401005428224,0.057090413,-0.027131867,9.695783
69401025282981,-0.05698593,-0.005960852,9.70827
69401045139238,-0.09263821,-0.041914254,9.762782
69401064995495,-0.030227061,-0.055461783,9.817079
69401084851752,0.012068702,-0.018679531,9.83701
69401104707987,0.00537998,0.015005483,9.849054
69401124564116,-0.009091101,-0.020960327,9.797464
69401144415041,-0.028038302,-0.033390056,9.778534
69401164271298,-0.026343167,-0.022460366,9.7333
69401184127427,0.012868218,-0.058125455,9.710808
69401203983556,0.078272104,-0.05826207,9.715128
69401223836655,0.0803139,-0.034231655,9.722153
69401243692784,0.035826005,-0.022187365,9.717563
69401263548785,0.013848188,0.015799934,9.711588
69401283404786,-0.026495026,0.033596464,9.708161
69401303260915,-0.018812872,0.01856912,9.72549
69401323111900,-0.013995764,-0.015927022,9.745742
69401342967773,-0.01393429,-0.039496213,9.773274
69401362823774,-0.05739184,-0.025217233,9.798303
69401382679775,-0.052005403,-0.023852138,9.7871685
69401402535776,0.0016912818,-0.0373803,9.781092
69401422391649,0.012049388,-0.059296314,9.808142
69401442238732,-0.026920572,-0.0016926721,9.8396225
69401462094477,-0.063128166,0.022267252,9.791047
69401481950094,-0.014452635,-0.006772066,9.731703
69401501805839,0.0029000882,-0.027116688,9.711333
69401521664714,0.026442213,-0.07962908,9.665285
69401541520459,0.009729378,-0.06614276,9.687702
69401561376204,-0.011459388,-0.029120198,9.742775
69401581232056,-0.00418322,-0.029410426,9.751306
69401601087801,0.045752544,-0.03500016,9.745518
69401620943546,-0.0036814047,-0.02877383,9.775833
69401640803655,-0.078946516,-0.022617564,9.833105
69401660659528,-0.056341905,-0.03534047,9.819408
69401680515401,-0.0610735,-0.010478168,9.824942
69401700371274,-0.008044026,-0.009413377,9.790854
69401720227019,0.047991775,-0.036410805,9.743403
69401740083440,0.03316578,-0.05794231,9.739355
69401759939185,-0.011402969,-0.06790997,9.723219
69401779795058,0.015679684,-0.08345423,9.7052965
69401799650931,0.081578396,-0.057571035,9.711696
69401819497058,0.06842781,-0.002605746,9.712644
69401839352675,0.010314655,0.016293118,9.747016
69401859208292,0.0017162332,0.024210988,9.743479
69401879063909,0.0057547814,-0.018225852,9.74894
69401898919526,-0.0032425357,-0.031253323,9.756245
69401918775143,-0.007080382,-0.02428049,9.782802
69401938632010,0.0060649468,-0.034527197,9.8089905
69401958487627,0.01422444,-0.039965693,9.832117
69401978343244,-0.010711028,-0.013300278,9.83404
69401998198861,-0.046904914,0.017302372,9.802415
69402018054606,-0.037024897,0.020217314,9.794654
69402037912241,-0.0038829888,0.004160254,9.799771
69402057767965,0.01802141,-0.017167354,9.776857
69402077623582,0.034065306,-0.052039947,9.657559
69402097479327,0.050830383,-0.091302924,9.6747055
69402117337486,0.018672625,-0.05144891,9.664597
69402137193103,-0.0028387713,-0.035575178,9.691202
69402157048848,-0.022366667,-0.0035101057,9.821863
69402176904593,-0.015122998,0.010707942,9.799832
69402196760210,0.030043561,0.016022298,9.732711
69402216615955,0.019384915,-0.021631809,9.691365
69402236476162,-0.047980476,-0.051696513,9.694075
69402256331907,-0.064858854,-0.04902178,9.725402
69402276187780,-0.023515528,-0.05454146,9.769022
69402296043525,0.049780115,-0.035667423,9.84462
69402315899270,0.04419488,0.022276517,9.87237
69402335754273,-0.045613118,0.021478685,9.8683605
69402355610146,-0.07242692,-0.01552819,9.7924385
69402375466019,0.007614925,-0.067749076,9.680904
69402395321764,0.049150527,-0.056816075,9.628193
69402415177637,0.032141592,-0.030573705,9.631986
69402435033510,0.03637153,-0.04296353,9.692817
69402454890327,0.03870965,-0.038304884,9.749709
69402474746200,-0.012938975,0.017403621,9.773888
69402494601945,-0.014899662,-0.011957461,9.807931
69402514457818,0.01575456,-0.024272174,9.849117
69402534323379,0.0089968275,-0.016427461,9.826621
69402554179380,-0.009896106,-0.0074622207,9.815449
69402574035509,-0.046042074,-0.029810995,9.748767
69402593891638,0.011839094,-0.050914057,9.761283
69402613747639,0.068387724,-0.011875982,9.745244
69402633602348,0.037197765,-0.009896794,9.763123
69402653458477,-0.022070548,-0.027890515,9.76214
69402673314478,0.006547374,-0.05564261,9.752574
69402693170607,0.0645285,-0.022673052,9.755428
69402713026608,0.0049298126,0.014736774,9.752229
69402732882737,-0.020863371,-0.011113595,9.720679
69402752739030,-0.019363364,-0.032247078,9.725315
69402772595031,-0.004034268,-0.023210265,9.767742
69402792451160,0.030340489,-0.03415241,9.768604
69402812307161,0.054960236,-0.028735783,9.760583
69402832164858,0.04601779,-0.061402712,9.789025
69402852020987,-0.010669858,-0.05647513,9.796423
69402871877116,-0.032841362,-0.03974595,9.788298
69402891733245,-0.081882246,0.015676837,9.752434
69402911589374,-0.034306075,0.019619713,9.735215
69402931449129,0.07417291,-0.034527093,9.75271
69402951305258,0.06166281,-0.035356008,9.775254
69402971161387,0.04780098,-0.037049044,9.760884
69402991017644,0.070339955,-0.029060047,9.755365
69403010873751,-0.017290063,-0.08628862,9.736869
69403030729880,0.001138606,-0.0038801618,9.709893
69403050584381,-0.0011610524,0.033418275,9.718709
69403070440510,-0.02472994,-0.009035725,9.7464285
69403090296639,-0.010638447,-0.01407041,9.744077
69403110152768,-0.021616966,-0.037820883,9.7486515
69403129999121,-0.04028947,-0.06708424,9.772594
69403149855122,-0.039038826,-0.040148996,9.815117
69403169711123,-0.0115005905,0.03112296,9.832427
69403189566996,0.021732485,0.057957113,9.808247
69403209422997,0.0069747632,0.031652242,9.800524
69403229278998,-0.02973335,0.0043855812,9.785286
69403249139311,-0.047944438,0.0021929375,9.754026
69403268995440,-0.07419012,-0.010185453,9.720823
69403288851569,-0.025285762,-0.02168372,9.696992
69403308707698,-0.002927673,-0.0023792933,9.662794
69403328563699,-0.025504569,-0.03089467,9.681251
69403348409296,-0.0375035,-0.051531516,9.712075
69403368265169,-0.039218914,-0.018637273,9.753342
69403388121042,-0.007864865,0.013671362,9.823275
69403407976915,0.01974514,-0.015223641,9.831053
69403427825596,0.011924721,0.009502741,9.775155
69403447681341,-0.0215419,0.08358803,9.767251
69403467537086,-0.04120635,0.08445379,9.8085575
69403487392683,-0.046898883,0.007885594,9.815997
69403507248428,-0.015900744,-0.030943377,9.781484
69403527104045,0.0106644165,-0.014163205,9.729624
69403546960022,-0.0131933,-0.047569074,9.728494
69403566815767,-0.010086272,-0.05572344,9.700901
69403586671384,-0.023304163,-0.039984662,9.687279
69403606527001,-0.060280956,-0.053211953,9.686399
69403626382746,-0.032596856,-0.09283066,9.724925
69403646237449,-0.017770523,-0.055978876,9.753955
69403666093066,0.011563493,0.02585943,9.781303
69403685948683,0.0032405616,0.023233494,9.785924
69403705804300,-0.032001667,-0.028912224,9.78219
69403725661497,-0.007379009,-7.9800567E-4,9.791621
69403745517114,-0.016432654,0.024102075,9.830435
69403765372731,-0.033999678,2.8138724E-4,9.798907
69403785228476,-0.04991489,-0.032496493,9.773956
69403805084093,-0.00950612,-0.007565994,9.7218685
69403824939710,0.0026685395,0.04034785,9.682884
69403844793517,0.0075039864,0.049130205,9.686655
69403864649006,0.01417714,0.0141461985,9.671344
69403884504623,-0.011999479,-0.019211126,9.682204
69403904360240,-0.03282298,-0.02440135,9.742305
69403924215857,-0.059833176,-0.025384799,9.803584
69403944069696,-0.03601789,0.004361921,9.822422
69403963925162,0.01857139,0.071479,9.781545
69403983780651,0.046120632,0.08166665,9.795006
69404003636140,0.03866258,0.04830209,9.815918
69404023493261,0.038215198,0.028977908,9.714705
69404043348750,0.0017888724,-0.005131639,9.698314
69404063204239,-0.0088015385,0.05727969,9.720051
69404083059728,-0.04500905,0.08831926,9.754467
69404102915345,-0.044322245,0.067119144,9.77081
69404122770834,0.025226578,0.046445444,9.7719555
69404142624257,0.04557954,-0.009020548,9.773559
69404162479746,0.06437538,-0.0014405703,9.750662
69404182335363,0.05263498,0.021490136,9.7556305
69404202190852,0.005666031,0.030059474,9.757488
69404222046341,-0.05060792,-0.0018289376,9.769381
69404241893620,-0.05746469,-0.028115952,9.791374
69404261748981,-0.046217363,-0.020029265,9.785246
69404281604342,-0.023722844,-0.0038556429,9.772992
69404301459703,0.013257231,0.015414015,9.748349
69404321314936,0.016845364,0.038602933,9.753711
69404341170297,0.022144455,0.028148877,9.729047
69404361005922,-0.015872119,0.0018997139,9.725725
69404380860771,-0.037460946,-0.011974599,9.759528
69404400715748,-0.05635229,0.01991013,9.789398
69404420570725,-0.080977716,0.020697217,9.771447
69404440438389,-0.021446403,0.012114557,9.771325
69404460293622,0.055139177,0.018031882,9.749989
69404480148727,0.029276555,0.0447219,9.747361
69404500003960,-0.020136733,0.016779147,9.733767
69404519859065,-0.04574376,-0.015944963,9.784405
69404539720490,-0.038806543,-0.018829713,9.806892
69404559575851,-0.07143925,0.003636881,9.7734165
69404579431212,-0.045593034,0.027649693,9.778216
69404599286573,0.019292634,0.028048065,9.748302
69404619141806,0.0013126709,0.0078087426,9.710951
69404638997167,-0.042241547,-0.029934062,9.70169
69404658862500,-0.05767524,-0.001459663,9.749895
69404678717989,-0.045249596,0.050310116,9.793261
69404698573606,-0.019799182,0.035976876,9.803212
69404718429095,0.011187628,0.0152319325,9.807062
69404738287852,0.039109632,0.017801205,9.752608
69404758143341,-0.015354665,0.025648097,9.722208
69404777998958,-0.015954971,0.019064024,9.73328
69404797854447,-0.05306046,0.014517375,9.7466955
69404817710064,-0.06309647,-0.017842427,9.767832
69404837578661,-0.074399054,-0.076058164,9.774565
69404857434534,-0.046411246,-0.060800828,9.756664
69404877290407,-0.025192033,-0.02418328,9.710176
69404897146280,-0.024857491,-0.038399726,9.693456
69404917002131,0.005270038,-0.028875,9.698497
69404936858004,-0.0074037598,-0.040369872,9.776984
69404956713659,-0.04963258,-0.030127393,9.823043
69404976569532,-0.0795759,3.3801538E-5,9.837826
69404996425277,-0.031234773,0.020293515,9.831937
69405016281150,0.0052767484,0.029302971,9.774984
69405036141485,-0.018586349,0.016150696,9.7247715
69405055997358,-0.017687645,0.03740301,9.710782
69405075853359,0.049925208,0.03498422,9.71104
69405095709232,-0.019717848,-0.0011231365,9.703787
69405115565105,-0.11084206,-0.013913564,9.741647
69405135420978,-0.07496962,0.0035921328,9.775875
69405155280233,-0.03142314,0.02963697,9.769034
69405175136234,-0.022108195,0.020590547,9.799762
69405194992235,-0.02678686,-0.0078812335,9.825093
69405214848236,-0.0077707865,-0.038308263,9.803464
69405234704237,0.03266116,-0.026519973,9.767796
69405254559512,0.022678204,0.017920524,9.732571
69405274415641,-0.038292106,0.05606625,9.77143
69405294271642,-0.05219457,0.05128173,9.746049
69405314127643,-0.00945859,0.002269212,9.714931
69405333978828,-0.022046557,-0.034673747,9.710483
69405353834829,-0.045581892,-0.04743166,9.733462
69405373690830,-0.0019406199,-0.017013924,9.764843
69405393546810,0.022264943,0.028009702,9.778225
69405413402811,-0.020998042,0.00466301,9.768741
69405433258940,-0.06512029,-0.029475765,9.749221
69405453115307,-0.027533598,-0.057507247,9.754426
69405472971308,0.015188732,-0.0075154696,9.78788
69405492827437,0.013198321,0.025021035,9.803357
69405512683438,0.0029286877,0.0051113134,9.787926
69405532539439,0.017960245,0.0011052559,9.781232
69405552401242,0.0268918,0.0107550435,9.762093
69405572257499,-0.009027586,0.018629765,9.748701
69405592113628,-0.017896296,0.01464664,9.725171
69405611969885,-0.003806036,0.0074525294,9.719128
69405631828092,-0.0033212865,-0.011116718,9.708194
69405651684477,-0.015314055,-0.002793869,9.713986
69405671540734,-0.015801778,0.024794074,9.742654
69405691397119,0.010893436,0.04288162,9.772923
69405711253376,-0.0072604334,0.018395575,9.785373
69405731109761,-0.019211538,-0.008842029,9.837393
69405750963338,-0.025463145,0.015727747,9.781227
69405770819595,-0.044230107,0.030215053,9.780973
69405790675852,-0.017905043,0.04170225,9.77837
69405810532109,-0.016492294,0.021554625,9.699338
69405830388494,-0.048248645,-0.023325223,9.689164
69405850240339,-0.049810093,-0.0012822178,9.706742
69405870096447,-0.036351696,-0.0023368846,9.761988
69405889952576,-0.0018420767,0.00856049,9.789678
69405909808705,0.029662963,-0.005465036,9.768571
69405929664962,0.023016518,-0.028966177,9.768288
69405949521091,0.0016230164,8.460396E-5,9.723029
69405969365268,-0.015850011,0.04936498,9.729969
69405989221013,-0.025748188,0.03432102,9.752368
69406009076758,-0.069777966,-0.022615127,9.758181
69406028932503,-0.06530855,-0.06581892,9.754698
69406048797300,-0.048200198,-0.03947271,9.759467
69406068653173,-0.016233975,0.027783524,9.788034
69406088509174,6.035638E-4,0.024533823,9.784073
69406108365047,5.0489987E-5,0.0010374304,9.761901
69406128220920,-0.008499109,-0.03328435,9.7319975
69406148072143,-0.015714014,-0.023437724,9.732349
69406167927888,-0.065630406,-0.011811792,9.736538
69406187783633,-0.08553811,-0.014199895,9.753796
69406207639506,-0.04116367,-0.008936563,9.733916
69406227495251,-0.012895143,-0.017310211,9.765369
69406247350996,-0.036237434,-0.0037487994,9.754943
69406267210161,-0.062576815,-0.023054864,9.787701
69406287066034,-0.011406493,-0.02246096,9.793298
69406306921779,-0.0040208315,-0.0107073,9.778847
69406326777652,-0.020394972,-0.027651945,9.786864
69406346629633,-0.047390044,-0.0352176,9.728367
69406366485506,-0.05924427,0.0060786875,9.727311
69406386341251,-0.018057136,0.023344576,9.755476
69406406196996,-0.052908517,-0.060491253,9.719955
69406426052869,-0.03686681,-0.10235001,9.71177
69406445915496,-0.024800677,5.6659034E-4,9.717185
69406465771497,-0.037681434,0.06126599,9.715103
69406485627498,-0.026028436,0.018839952,9.728551
69406505483499,0.009957291,0.0161648,9.703432
69406525339500,0.012822031,-0.026472773,9.6769085
69406545195501,-0.0077200127,-0.013051163,9.677337
69406565057804,-0.048874054,-0.007725273,9.679469
69406584913805,-0.067672886,0.009663375,9.652513
69406604769934,-0.04079514,-0.07032816,9.644729
69406624626063,-0.0034619805,-0.07964649,9.638005
69406644480474,0.028360741,-0.042927593,9.652054
69406664336603,0.042325877,-0.005150347,9.620082
69406684192732,0.013316658,0.02081965,9.597908
69406704048861,-0.021813195,0.010237711,9.583876
69406723904990,-0.00942979,-0.025519816,9.610904
69406743761119,-0.0086900145,-0.042979635,9.604232
69406763622966,-0.004518944,-0.011062746,9.59425
69406783479351,-0.037587475,0.010859665,9.611448
69406803335608,-0.047046687,-0.030036025,9.568684
69406823191844,-0.004043338,-0.031147076,9.565319
69406843048101,0.00344239,0.022951297,9.515886
69406862898312,0.0038094092,8.880802E-4,9.490869
69406882754441,-0.020320637,-0.0545068,9.48113
69406902610570,-0.012232219,-0.044469837,9.496471
69406922466699,0.015516126,-0.0070178863,9.515667
69406942315392,-0.014190604,0.015992133,9.496085
69406962171393,-0.037794087,0.018863373,9.5305805
69406982027394,-0.024136392,6.7409954E-4,9.52481
69407001883267,-0.020871801,-0.016290149,9.407064
69407021739268,-0.0011512832,-0.05488247,9.384526
69407041595141,-0.016614564,0.016218195,9.410098
69407061448680,-0.022916539,0.014549572,9.448163
69407081304553,-0.041852612,0.008162432,9.435406
69407101160426,-0.0019535685,0.041392773,9.444975
69407121016299,-0.025172561,0.039934214,9.438354
69407140872172,-0.020028215,0.015773628,9.387512
69407160718993,-0.019678168,-0.0290151,9.354565
69407180574738,-0.02692275,-0.076017424,9.3106165
69407200430483,-0.008939158,-0.049809523,9.282494
69407220286228,0.022471163,-0.050004005,9.285876
69407240141053,0.047682047,-0.06355669,9.308746
69407259996670,0.03834908,0.009013646,9.34022
69407279852415,0.02286918,0.05738874,9.357861
69407299708010,-0.05883462,-0.0021504995,9.333344
69407319563755,0.025888609,-0.014454045,9.334515
69407339419500,0.10377656,0.028206533,9.310432
69407359267735,0.049575962,0.029574253,9.298095
69407379123224,-0.037014578,5.959477E-4,9.238246
69407398978713,-0.03316493,-0.043977275,9.172216
69407418834202,0.047841318,-0.044171777,9.158046
69407438689691,0.02489334,-0.014509387,9.204966
69407458542708,-0.021249656,0.0058761686,9.270001
69407478398197,0.03550167,0.0060723745,9.187607
69407498253558,0.107033744,3.6613454E-4,9.173999
69407518109047,9.76171E-4,0.012391999,9.2390995
69407537964408,-0.05622218,0.002709686,9.190351
69407557819897,-0.018464927,-0.03338331,9.258528
69407577678812,-0.010494463,-0.030152118,9.342904
69407597534301,0.047574542,-0.022368837,9.244866
69407617389790,0.07721471,-0.005082989,9.138409
69407637245279,-0.01629217,-0.020921618,9.0704155
69407657102090,-0.07781132,-0.038398426,9.066291
69407676957579,-0.0012658873,-0.031010859,9.092088
69407696813068,0.021241289,-0.012122977,9.146414
69407716668557,0.0104565425,-0.008134182,9.248644
69407736524174,0.025788456,-0.03648617,9.320888
69407756379711,0.035914127,-0.031391967,9.337412
69407776235179,0.009194092,0.0056553124,9.309806
69407796090668,-0.016330633,0.013284032,9.211574
69407815946157,0.002416988,0.038015332,9.157587
69407835801646,0.014183284,0.036190625,9.120462
69407855657135,0.026359232,0.028384509,9.11389
69407875511374,0.036727056,0.012580186,9.096012
69407895366863,0.05836997,0.024876822,9.112774
69407915222224,0.06509415,2.0991641E-4,9.19816
69407935077713,0.041736573,-0.012347695,9.220422
69407954935226,0.010680668,-0.015870681,9.22991
69407974790587,0.0039465553,0.047710273,9.232686
69407994646076,-0.014245378,0.074389495,9.22839
69408014501437,-0.013393793,0.0071621584,9.222538
69408034356926,0.021783125,-0.035484694,9.203956
69408054220845,0.08613735,-0.015320632,9.187515
69408074076462,0.080966584,0.03926022,9.181186
69408093932079,-0.036455285,0.024688117,9.143295
69408113787696,-0.013604183,0.01715562,9.143956
69408133643313,0.07522647,0.028984582,9.1670475
69408153498930,0.04763037,-0.011045995,9.118089
69408173359709,0.0112048155,-0.055373743,9.11722
69408193215454,-0.010794622,-0.023695154,9.162768
69408213071199,0.020379642,0.044353344,9.190317
69408232926944,0.052627318,0.032836165,9.185189
69408252785370,0.018033227,0.003645331,9.189083
69408272641243,-0.0026384327,-0.039474964,9.22332
69408292496988,-0.017735403,0.0128031215,9.177511
69408312352861,-0.051149942,-0.010746764,9.17442
69408332208606,-0.03833361,-0.016249882,9.163166
69408352064479,0.0393967,-0.007054099,9.147292
69408371922032,0.06161334,0.009571949,9.134901
69408391778033,0.051855404,-0.010814077,9.126622
69408411633906,0.06988264,0.012173177,9.127757
69408431489907,0.033731565,0.04025364,9.163578
69408451345780,-0.04392694,-0.025817323,9.198169
69408471205665,-0.061818723,-0.08512205,9.197617
69408491061666,-0.033004973,-0.08051633,9.1925
69408510917667,0.0024541223,-0.054776993,9.164232
69408530773668,-0.01579775,-0.04101126,9.160162
69408550637647,0.043323606,-0.01821372,9.16945
69408570493904,0.03680547,0.0017683436,9.156335
69408590350161,-0.009366911,0.008478149,9.142269
69408610206290,-0.008993831,-0.0058610816,9.163976
69408630062547,-0.062395368,-0.05273169,9.22801
69408649918804,-0.06415213,-0.06920949,9.205527
69408669774129,-0.056899257,-0.10565838,9.176565
69408689630386,-0.02818521,-0.09221955,9.160902
69408709486643,0.066734836,0.03849809,9.1449375
69408729342877,0.07916819,0.12717882,9.130462
69408749199134,0.004854401,0.06441446,9.1509905
69408769050631,-0.007888558,-0.01541115,9.174311
69408788906760,-0.024053868,-0.03476066,9.186564
69408808762889,0.026686395,0.028029012,9.172426
69408828619018,0.058899168,0.10705987,9.125785
69408848469625,0.016940577,0.050053813,9.084333
69408868325626,-0.033137944,-0.07522098,9.11911
69408888181627,-0.0056997123,-0.03963247,9.204021
69408908037756,0.039058063,0.050833795,9.234126
69408927893757,0.029780159,0.09111265,9.197948
69408947749758,0.010340215,0.05050048,9.2017975
69408967593837,-0.028362216,-0.005663644,9.233384
69408987449582,-0.039500155,-0.029218215,9.2713785
69409007305327,-0.0039641215,-0.06261099,9.22667
69409027161072,0.028042892,-0.05702358,9.193922
69409047016945,0.06843482,-0.024837485,9.2189245
69409066873168,0.03069113,0.01235614,9.298554
69409086728913,-0.06189902,-0.027529236,9.307227
69409106584658,-0.072774924,0.006427239,9.333392
69409126440403,0.034919485,-0.012762713,9.296301
69409146296148,0.026229868,-0.016547348,9.284009
69409166151893,-0.054243267,-0.008890129,9.256408
69409186008564,-0.052692182,-0.071371846,9.296483
69409205864286,0.0508657,-0.045786195,9.331523
69409225720031,0.18385519,0.050804492,9.304511
69409245575776,0.14414433,0.0026559425,9.381074
69409265426895,0.043876458,-0.09178938,9.384676
69409285282512,0.058698494,-0.039107975,9.324951
69409305138129,0.008997403,0.024774946,9.312301
69409324993746,-0.061920803,0.019939898,9.45678
69409344849491,-0.022941712,0.06447435,9.46732
69409364699652,-0.04495368,0.056278802,9.459814
69409384555141,-0.044951778,-0.020920746,9.448577
69409404410758,0.099237084,0.01114874,9.409497
69409424266247,0.15608765,0.058395978,9.370777
69409444121736,0.0412311,0.053467292,9.342343
69409463977353,0.04279953,-0.06251733,9.499548
69409483825072,-0.06222047,-0.032186173,9.430512
69409503680433,0.055715173,0.05293344,9.502207
69409523535666,0.20395036,0.022156263,9.622296
69409543391027,-0.07082514,-0.015325495,9.516817
69409563239330,-0.21362191,0.024577122,9.519841
69409583094435,0.10709075,0.012767155,9.574994
69409602949668,0.45171288,0.02281474,9.408531
69409622804773,0.032123245,-0.2544445,9.568479
69409642660006,-0.12093357,-0.28508484,9.53036
69409662521303,0.047943413,0.010361118,9.50729
69409682376514,0.3833155,0.45815548,9.615883
69409702231875,0.25432342,0.30723253,9.544179
69409722087108,-0.007351733,0.124215364,9.539205
69409741942341,0.022792064,0.22872823,9.645624
69409761797702,0.17106542,0.45232445,9.691595
69409781655653,0.15679517,0.50780255,9.654574
69409801510886,0.07937849,0.36610758,9.579142
69409821366247,0.18162932,0.22797047,9.554753
69409841221480,0.41386998,0.23931137,9.689232
69409861079933,0.34192413,0.2896354,9.732416
69409880935166,0.29109266,0.21092041,9.580594
69409900790527,0.2534964,0.124857746,9.60138
69409920645888,0.32338837,0.022988325,9.879175
69409940501249,0.4140547,0.13401605,9.900444
69409960356610,0.3065679,0.29447478,9.712236
69409980216107,-0.31396383,0.4614048,9.757053
69410000071468,-0.5803385,-0.008038623,9.425839
69410019926829,-0.445635,-0.32731363,9.569774
69410039782190,-0.04856887,-0.07491985,9.870096
69410059637551,0.2892572,0.36982507,9.974685
69410079494114,0.05207899,0.45503044,9.710835
69410099349475,-0.5163536,0.10781577,9.503828
69410119204964,-0.18312962,-0.47604915,9.64979
69410139060325,0.10437989,-0.35351583,10.231733
69410158922746,-0.7173703,-1.6090099,10.111965
69410178778363,-0.874371,-1.3450539,9.237961
69410198633980,-0.7258689,-1.6579458,9.243797
69410218489725,-1.3339239,-2.094315,9.701817
69410238345342,-1.9597049,-2.4352016,9.925188
69410258200959,-1.8119678,-2.3433595,9.621506
69410278058410,-1.5350946,-2.1763494,9.391558
69410297914155,-1.3775163,-2.2096524,9.389448
69410317769772,-0.39833403,-1.8846195,9.400999
69410337625517,-0.047103297,-1.5943557,9.625294
69410357481262,-0.13112798,-1.4521319,9.157726
69410377335825,2.214889,1.8053619,9.756864
69410397191570,4.7023125,3.8115602,8.978986
69410417047315,2.6273484,-0.9092764,9.350746
69410436903060,1.6239289,-1.0974376,10.164312
69410456758677,-2.0137343,-0.6254133,10.687313
69410476617414,-3.8806043,-0.42958385,12.198313
69410496473159,-1.2225732,-0.8521453,10.0798645
69410516328904,0.5011592,0.1765781,7.5419087
69410536184649,2.0035982,3.5613277,8.608742
69410556040522,0.9760609,0.94966304,9.851846
69410575895927,1.7654133,-0.270176,9.247561
69410595751672,1.1720694,2.829875,9.170378
69410615607417,-0.5467798,2.243985,10.213469
69410635463140,-2.5028038,0.7059862,10.060249
69410655318885,-2.1641085,0.55835325,10.118899
69410675185934,-1.9376997,-0.6696296,10.739188
69410695041935,-1.3151234,0.19118893,10.773577
69410714897936,-1.3318703,3.5202851,8.887107
69410734753937,-3.465377,3.0999775,9.717978
69410754609938,-2.5168524,1.4853381,10.197958
69410774467011,-0.4808512,-0.81121665,10.225805
69410794323012,0.32654044,-2.800799,10.716571
69410814179141,0.5764036,-3.1373854,10.097262
69410834035142,1.2651572,-1.4073883,9.423362
69410853891271,0.9989899,1.0424004,8.291642
69410873747400,-0.7288861,1.2528319,8.596315
69410893607279,-0.45674765,-1.1384249,9.359899
69410913463536,0.116393924,-1.6213324,9.648358
69410933319665,-0.4561918,-1.1927023,9.889027
69410953175794,0.2920024,-0.85221064,9.565154
69410973032051,0.043285623,-0.31868345,9.679323
69410992880476,0.8776466,-0.3493164,9.113138
69411012736477,0.8580694,0.116666056,9.527146
69411032592478,-4.0270114,0.7276366,12.110232
69411052448607,2.955283,3.5074806,9.493572
69411072304608,6.693683,-1.8203245,6.6225314
69411092147985,2.9811726,-3.3289046,10.014197
69411112003707,-0.29367906,-2.262387,10.531909
69411131859452,-1.6317924,-3.8044689,10.010152
69411151715325,-1.2229356,-2.383968,10.349391
69411171571070,0.21983789,-0.6839234,9.470353
69411191416873,-3.3114867,1.9334177,9.309485
69411211272362,-2.632557,2.3690565,10.035403
69411231127851,2.2695236,1.5693015,8.961019
69411250983340,1.0307851,0.20651148,8.998955
69411270838829,-2.5310094,0.41533777,10.076249
69411290691862,-4.150806,-0.17254236,11.510634
69411310547351,-2.476588,-3.3766317,12.104118
69411330402840,0.9317486,-4.285938,10.8136015
69411350258329,0.88380855,-2.7094007,10.536992
69411370113818,-0.63963467,-1.2562753,10.7026205
69411389965059,-0.20428513,0.1833898,11.018317
69411409820420,-2.3393517,1.0310519,10.265404
69411429675909,-7.620615,-1.3773532,10.513095
69411449531270,-2.479729,-4.141556,11.012228
69411469386631,-0.5329311,-3.500417,10.629554
69411489239450,-0.39572537,-2.6084974,11.728629
69411509094811,0.8684264,-2.1047797,12.91199
69411528950044,0.2958559,-1.533313,12.991133
69411548805405,-0.87061673,0.0014881615,12.761189
69411568660638,-0.6958818,-0.07684403,12.672818
69411588514605,-5.0715027,0.15150933,9.748803
69411608369838,-4.498657,-1.0760145,10.029931
69411628225199,-3.3717322,-0.19736749,9.58416
69411648080432,-3.2579062,-0.075151846,7.804824
69411667935665,-2.2101579,-2.1328893,7.1513295
69411687794336,-2.2213697,-1.9203008,6.172786
69411707649569,0.6212925,-1.7470778,6.204132
69411727504802,-1.3802087,-4.2444873,9.234047
69411747360163,-3.3476942,-2.068197,9.032124
69411767215396,-2.9940414,-3.6164908,9.886838
69411787078157,-2.4225817,-2.0144444,8.98865
69411806933518,-1.2065583,-0.56809205,8.177576
69411826789007,0.20716971,-1.9162052,9.784699
69411846644368,2.0303512,-2.2139819,11.728639
69411866499729,2.6606207,-1.5501785,12.508901
69411886355218,2.2493994,-1.219952,11.452573
69411906210579,2.333878,1.6213151,10.198786
69411926065940,0.7745339,-0.019989077,10.55105
69411945921429,0.9353428,-1.613628,10.995599
69411965776790,0.4367969,-1.8212421,9.988269
69411985629885,-0.29897797,-0.7888901,9.658858
69412005485246,-1.7619783,-1.3680015,10.387161
69412025340479,-2.8498664,-2.7011328,10.889132
69412045195840,-3.5664096,-1.7777759,10.701724
69412065051049,2.390863,-6.793324,8.855603
69412084908768,1.3511457,-5.771779,9.815027
69412104764001,-0.0495706,-5.448966,10.248934
69412124619362,-0.5381154,-5.363724,9.928341
69412144474723,-1.7848049,-4.9446397,9.330297
69412164330084,-2.2489045,-4.982352,9.340619
69412184192857,-2.543442,-5.28563,9.946092
69412204048346,-2.6695452,-3.8662531,11.080261
69412223903835,-2.9562087,-3.3662736,9.357398
69412243759324,-2.7513783,-3.3760355,8.316167
69412263614813,-2.345247,-4.0575395,8.437752
69412283481688,-2.465325,-4.713376,8.135927
69412303337561,-2.8438883,-4.815498,7.7223225
69412323193306,-2.557104,-4.643725,7.5836797
69412343049179,-1.3436881,-4.9290576,6.7976055
69412362904924,-0.2466582,-5.074032,7.0708313
69412382759061,-0.17258886,-4.26611,8.27034
69412402614934,-0.116754524,-2.9842935,7.7139792
69412422470679,0.32367328,-2.6890497,6.5432754
69412442326552,1.1798893,-3.1701663,6.774346
69412462182297,3.1367095,-6.8113813,7.110909
69412482042580,-0.51982474,-3.0077846,9.202086
69412501898581,-2.046328,2.0777485,8.5964985
69412521754582,-0.17707911,2.7224903,7.2553177
69412541610561,-1.0164948,1.5597113,12.323675
69412561466562,-1.4335855,-0.98104703,14.646923
69412581323391,-1.078679,-2.4565465,10.794819
69412601179520,1.9323704,0.29992196,10.723928
69412621035521,2.926499,1.8288327,9.294616
69412640891522,2.040065,1.0750113,8.573218
69412660747651,0.051550746,0.071626745,10.403177
69412680602176,0.1308634,0.76832944,11.087213
69412700458177,1.1364474,-0.077679396,10.03018
69412720314178,0.54925334,-2.1293766,10.196996
69412740170179,1.0870682,-1.5383303,10.6588545
69412760026180,1.45512,-0.908508,9.762159
69412779883247,0.8078354,-1.2787604,9.906681
69412799739248,-0.2277568,-2.7643301,10.369358
69412819595249,0.61920345,-1.146731,9.72098
69412839451250,1.3596414,0.27357417,8.37055
69412859307251,1.4481629,0.3788782,7.5574217
69412879155944,0.74089617,-0.0024187618,7.788843
69412899011817,-0.43688008,-0.790652,8.295213
69412918867690,-0.9106511,-1.9037555,8.165737
69412938723563,-0.72196543,-1.6564375,8.000935
69412958579436,-0.49875873,-0.8395774,7.80132
69412978435309,-0.7104182,-0.16358176,7.8458304
69412998284056,-1.5091171,-0.7034362,8.292214
69413018139781,0.028236318,-1.3538345,9.391613
69413037995526,-0.04185976,-0.89567065,10.076795
69413057851271,0.1144486,-1.3849148,10.157128
69413077706888,0.70155233,-1.5379133,9.436016
69413097557067,0.87372947,-0.8753001,9.57223
69413117412684,1.145381,-0.741286,9.33709
69413137268173,1.2518772,-0.87432814,9.632241
69413157123790,1.2222016,-0.20229155,10.756352
69413176979407,1.1029766,-0.00643021,10.855337
69413196835396,0.4457922,0.3002207,11.295619
69413216690885,0.16308734,0.028712833,10.583236
69413236546374,-0.952564,0.34556133,10.824438
69413256401991,-0.5655062,1.9294809,13.132808
69413276257480,0.04780772,1.688683,11.176558
69413296109367,-3.143318,3.1627614,14.891415
69413315964856,-2.2528212,1.9108844,12.04732
69413335820345,-1.1112274,0.23363747,8.03106
69413355675706,-1.5019311,1.4393001,7.989135
69413375531195,-1.951375,4.1313696,8.749872
69413395381930,-2.2452154,4.573674,8.729527
69413415237291,-2.526689,3.0603259,7.5334234
69413435092652,-3.0639842,3.1033363,6.9845157
69413454948141,-3.4751205,3.8376243,7.486646
69413474803502,-3.9887083,3.531781,7.5853453
69413494656129,0.5648393,4.155824,8.141395
69413514511490,-0.49713585,4.870204,8.944692
69413534366723,-0.97876513,4.7203236,9.305364
69413554222084,-0.5083323,3.3529425,8.886165
69413574077317,0.06353934,3.837793,10.839741
69413593932460,-0.21492912,2.6522646,9.909621
69413613787692,-0.45433635,2.477801,10.844368
69413633642925,-0.8216541,2.0475354,10.710391
69413653498284,-0.9477009,0.033753134,7.3826184
69413673350878,-1.0063537,-0.8285259,6.5479054
69413693206111,-0.62504166,-0.20320608,7.630097
69413713061214,0.63655496,0.3463122,9.802203
69413732916446,1.3531702,0.71808463,11.959054
69413752771551,-0.37730718,0.36310402,11.625544
69413772626782,-0.8601209,0.98153996,10.723389
69413792496777,-0.3729375,0.5317507,9.875151
69413812352266,-0.7145165,-0.9474557,9.688926
69413832207753,-0.6272729,-1.5157069,10.318389
69413852063241,-0.03211216,0.22497118,12.558303
69413871918602,-0.06528675,2.7326055,13.419438
69413891781684,-0.16431542,2.5223014,13.046159
69413911637428,0.18334988,2.3547819,12.244594
69413931493045,0.07446283,2.0097895,11.271933
69413951348660,0.23176697,0.9125885,10.397357
69413971205538,-0.45558894,0.56160593,9.270043
69413991061155,-0.9902428,0.9456499,8.653921
69414010916898,-1.041291,0.82054305,8.356216
69414030772514,-0.7591666,0.24308854,7.8890877
69414050628131,-0.21249734,-0.11089953,7.69538
69414070483746,0.5970992,0.046461746,7.8474307
69414090342428,0.8122498,0.41964692,8.104787
69414110198173,0.5987356,0.6967825,8.705024
69414130053916,0.44294542,0.61340886,9.0933075
69414149909660,0.1753957,0.07014223,8.4094095
69414169765277,-0.13001406,-0.41279328,7.820631
69414189622215,-0.48164487,-0.7019452,7.604082
69414209478087,-0.6277592,-0.66208464,7.9737864
69414229333832,-0.010212423,-0.19243436,9.234944
69414249189575,0.09828586,0.2688532,10.17287
69414269045319,-0.27367386,0.23269619,10.369533
69414288901064,-0.40241665,-0.2361714,9.95171
69414308763123,-0.45263496,-0.6336502,9.603398
69414328619123,0.025779258,-0.5007634,10.265272
69414348474996,0.39891595,-0.36104107,11.002525
69414368330995,-0.013234593,-0.29337943,10.965291
69414388190878,-0.52046996,-0.3283515,10.696647
69414408047007,-0.5277918,0.01982879,11.348199
69414427903134,-0.5624326,0.41626668,12.387941
69414447759134,-0.38152507,0.14258522,12.456759
69414467615263,0.48223805,-0.4323178,11.380702
69414487476474,0.93858784,-0.17957413,10.227085
69414507332730,0.06598097,1.4275975,10.578903
69414527188859,-0.34691125,3.423647,12.360935
69414547045114,0.35670638,3.850778,12.744153
69414566901242,0.69328684,2.6527936,11.03886
69414586757499,1.3017867,0.71301305,8.538088
69414606609333,0.39509454,0.37613186,7.5433917
69414626465461,-0.056787547,0.69954854,8.147647
69414646321590,-0.38265914,1.05931,9.145418
69414666177717,-0.95116836,1.7270669,9.569312
