UPTIMENANO,Ax,Ay,Az
69583179254781,-0.23799291,0.31606808,9.80131
69583199109502,0.013592098,0.6199407,10.220026
69583218964093,0.23955706,0.5374706,10.403436
69583238818813,0.056046877,0.51918584,10.253022
69583258673406,-0.21541494,0.36267114,9.75042
69583278528125,-0.33202162,0.25985625,9.468144
69583298394089,-0.386132,0.36114678,9.592519
69583318248810,-0.22312215,0.4732944,10.051176
69583338103401,0.11103603,0.24061055,10.248957
69583357958121,0.2070941,0.5532168,10.303874
69583377812842,0.19380385,0.5103615,10.80733
69583397668091,-0.10642482,0.13289349,10.588137
69583417522811,-0.13276191,-0.9077516,10.626529
69583437377532,0.33416614,0.16604298,12.383232
69583457232123,-1.3840966,3.8607342,10.705477
69583477089848,-2.3761013,3.774749,7.8688254
69583496944697,-2.4491425,2.0821853,7.8293133
69583516799416,-0.96861035,-0.6632716,8.804229
69583536654136,0.33751592,-1.3736479,8.7328615
69583556508857,2.4169688,-1.7799183,7.9966245
69583576363704,2.5491436,-1.115564,8.514006
69583596219349,0.10211148,1.6136231,10.665993
69583616074198,-0.36873055,2.0069723,10.472188
69583635929045,0.975487,0.7288053,10.159681
69583655783893,0.32055542,1.2012248,9.761964
69583675638742,-0.415924,0.23466659,9.053634
69583695490617,-0.55070513,0.6074999,9.265064
69583715345337,-0.6229328,1.9148086,9.254226
69583735200058,-0.17040278,1.6918415,9.440691
69583755054777,0.7040655,0.27810907,10.492824
69583774906322,1.0000504,0.12055298,10.613939
69583794760915,-0.5314535,-1.3462294,9.105159
69583814615634,-1.1842377,-1.0661829,9.475248
69583834470226,0.07442794,0.49360228,9.839988
69583854324819,0.08265782,0.42635936,9.354478
69583874179410,0.86880594,-0.29179984,9.332463
69583894031491,0.7177501,0.66781944,9.591853
69583913886212,1.3768291,0.9000498,11.156819
69583933740803,1.2763697,1.010391,11.920844
69583953595395,0.013476054,1.8074623,9.076045
69583973450116,-1.041626,0.15264705,7.8597074
69583993304864,-0.846889,-0.8098904,8.351614
69584013159584,-0.42380747,-0.6269918,8.942508
69584033014177,0.17529905,-0.5773962,11.246662
69584052868896,0.28096506,0.32891947,10.78207
69584072720844,-0.027957182,1.01019,9.930688
69584092575309,-0.13354231,0.6159335,10.306083
69584112429900,-0.23211406,-0.019144159,10.28067
69584132284364,0.2700692,-0.05243717,9.743787
69584152138957,0.46907094,-0.1887254,9.89772
69584171993420,0.6743742,-0.005230612,9.914642
69584191849693,0.94330204,0.18031992,10.281424
69584211704158,0.45895827,0.18982102,9.567112
69584231558621,-0.51428944,0.4659981,9.262739
69584251413213,-0.010208134,0.22477563,10.077199
69584271267678,1.0992285,-0.80075866,9.901338
69584291130223,0.67828536,-0.4744363,8.887514
69584310984815,-0.4966234,0.6864281,8.655838
69584330839536,-1.184043,3.1090488,6.3751664
69584350694255,-0.67503756,0.7541914,6.2784147
69584370548847,0.27121887,-0.500337,6.8683043
69584390403568,0.95859325,-0.34040636,7.192801
69584410257958,0.8163332,1.2704409,7.4923244
69584430112678,1.203275,3.5559921,6.7967134
69584449967399,1.4098514,4.765054,5.9154935
69584469822118,1.3402041,4.281698,6.6628413
69584489678898,1.8299086,2.160218,7.8110127
69584509533747,2.7851393,1.5202091,7.8104
69584529388466,3.427576,3.3950217,7.545683
69584549243314,3.4014945,4.118724,10.553566
69584569098163,3.9821928,2.3936646,13.395721
69584588948304,2.1464155,0.5205045,15.272724
69584608803024,0.600661,0.1144216,15.517999
69584628657745,0.35612455,-0.15804832,13.006178
69584648512464,0.86038417,-1.7571019,1.6335256
69584668367312,0.30213538,-2.5982509,7.223653
69584688222033,-1.356555,-4.3282266,7.3384905
69584708076344,4.7876396,2.4012272,4.8585095
69584727931064,5.618346,5.814549,2.2750144
69584747785657,4.795848,3.8949246,0.40337807
69584767640376,3.468308,0.8190035,5.8374424
69584787501807,-1.5809457,2.706566,5.8735404
69584807356656,0.62515074,3.489003,5.209756
69584827211375,5.222055,4.518753,6.677047
69584847066223,6.8879776,3.4717658,9.109672
69584866920944,10.222844,1.5821472,8.861359
69584886775791,9.930566,-0.45663294,13.463836
69584906634181,6.774357,-1.7842098,15.8734045
69584926489030,9.388822,-2.0732338,19.691822
69584946343877,6.5802817,-4.246225,23.013578
69584966198853,2.2700505,-6.4138227,20.567787
69584986053702,1.2604614,-4.9304094,20.486273
69585005902192,-2.7267852,-7.2190213,20.657278
69585025756912,-6.992671,-8.174307,15.981332
69585045611633,-6.487028,-9.042706,16.086739
69585065466480,-5.917045,-3.8594239,16.267897
69585085321200,-3.8421795,1.9340243,14.819042
69585105159420,-2.0424356,-0.14045443,11.154649
69585125013884,-3.0005562,0.09497718,10.099028
69585144868348,-4.2745404,3.8406024,9.406471
69585164722812,-1.3461738,3.559263,10.088031
69585184577404,-2.573374,3.0705912,8.205733
69585204431868,-2.7705495,2.7687995,8.242878
69585224283394,-1.7716686,2.0196168,8.028431
69585244137730,-1.8911444,2.3101475,6.0580406
69585263992194,-2.801831,0.8792553,7.416038
69585283846530,-3.8596027,-0.21660984,6.997458
69585303710458,-4.508587,-3.1798117,7.1663156
69585323568494,-2.5533788,-3.9597554,5.3985376
69585343422958,-1.0519848,-1.3678923,1.8509614
69585363277550,-3.9810364,0.11027619,2.8537514
69585383132014,-5.4776034,0.3864429,2.8872223
69585402986478,-2.8311427,0.52442414,5.084323
69585422833926,-2.5323071,-1.2612625,6.2895722
69585442688262,-0.58543,-1.2266937,7.494611
69585462542598,0.42615715,-0.91980654,10.198438
69585482396934,1.3416752,-1.6128378,10.690712
69585502251270,4.9264045,1.1727115,13.758613
69585522106703,7.085409,2.3442209,17.479641
69585541961039,6.4145164,3.4129891,16.296667
69585561815247,4.516556,2.3147404,17.578611
69585581669583,3.853795,-2.995492,15.881586
69585601523791,1.9697019,-1.4683092,12.401689
69585621381882,-0.9465022,-1.1074829,8.793914
69585641236218,-0.094378576,3.140766,9.170805
69585661090426,-1.9443433,2.0209875,7.859678
69585680944762,-3.5463953,-3.2506807,0.9794088
69585700799098,-4.2817454,-2.3360178,2.7750168
69585720657219,-3.4230049,0.21685317,4.844935
69585740511555,-3.138053,-3.6447217,3.1606789
69585760365891,-1.1874382,-3.2974935,5.705816
69585780220227,1.0681324,-1.9946169,9.9340925
69585800074691,2.4172516,-1.2491248,13.649023
69585819935383,2.5722096,-1.066128,14.752747
69585839789847,3.0248325,1.958965,7.926532
69585859644311,4.971441,3.7205846,6.165427
69585879498775,3.840282,3.6513076,13.219584
69585899353239,1.4793394,5.5345764,11.862554
69585919214086,0.032206,7.154052,9.906437
69585939068678,-0.811731,5.2916207,10.720605
69585958923398,-0.9000314,3.1139743,9.6762705
69585978777990,0.24265814,2.6872437,9.255066
69585998632710,0.38112852,1.5312464,9.650772
69586018494137,0.797191,1.9872309,10.967103
69586038348985,1.2565217,3.1701536,14.178665
69586058203705,0.30786368,-2.0460718,13.963109
69586078058553,-0.30535382,-2.8620327,13.488521
69586097913273,-0.45370317,0.3663082,12.633534
69586117765852,-0.20721309,1.6535016,11.192534
69586137620700,-0.83781666,1.8618158,8.197876
69586157475420,0.1135575,1.2065834,7.6551547
69586177330140,0.13369091,0.78582376,9.857781
69586197184988,0.14674681,1.1259723,10.498821
69586217037165,3.162294,1.4730947,10.6532545
69586236891757,0.5171076,-0.27650964,9.799537
69586256746477,-1.3053901,-2.8745775,7.893786
69586276601197,-1.1201495,-4.110442,6.665974
69586296455917,0.043932997,-3.293357,6.760184
69586316319464,0.5105293,-2.5843973,7.456656
69586336174440,1.8033564,-2.4550607,7.468577
69586356029288,1.7012228,-1.4773334,7.549038
69586375884264,1.0656577,-0.81593037,7.5731807
69586395739112,-0.17999414,-0.3486781,7.433422
69586415601680,0.13140717,2.2783515,10.585386
69586435456784,3.9990485,12.310353,18.080029
69586455312016,1.0241762,8.383747,14.197015
69586475167120,-1.7604097,0.25768852,5.804183
69586495022352,-0.98679435,-2.9211047,6.3395443
69586514886580,1.7278587,-5.4143114,8.201088
69586534742068,2.4369996,-0.7113182,11.585929
69586554597556,-0.056179285,-0.114390455,10.151367
69586574453044,-0.71278673,-1.5734154,10.04649
69586594308404,0.30598965,1.361293,12.207641
69586614156224,3.162263,4.70114,11.639977
69586634011584,2.7687411,2.8330698,9.065466
69586653866944,1.2540622,4.1116815,8.627096
69586673722304,-1.3159505,2.6318426,7.7585454
69586693577664,-2.3961465,1.4638737,7.828239
69586713422559,-5.4159493,-0.70738614,8.808387
69586733277535,-7.442081,-1.9601264,7.433615
69586753132639,-4.8309946,-0.4375288,8.361319
69586772987615,-1.7929752,0.78927183,10.065138
69586792842591,0.8324538,0.21395692,11.072899
69586812699005,2.7578154,-0.8598308,10.386299
69586832554109,4.585672,-1.9846871,8.540456
69586852409085,5.037979,-3.4801311,7.6415663
69586872264189,2.8320518,-2.032884,8.624957
69586892119165,-0.76583016,-1.7104572,9.354598
69586911974250,-2.1662707,-1.1857743,8.8882
69586931829354,-1.7620444,-0.9891286,8.992163
69586951684330,-1.0945787,-0.36479077,9.931177
69586971539434,-1.0542707,0.67082006,9.757797
69586991394538,-1.4093113,2.119331,9.459677
69587011237285,-0.9975173,2.2375627,8.962708
69587031092005,0.045622215,1.1640781,8.954719
69587050946725,0.36991477,0.2540213,9.312106
69587070801573,-0.11053009,-0.5196225,9.427764
69587090656293,-0.47155687,-0.70168376,9.20192
69587110502997,-0.3642297,-0.4560284,9.103075
69587130357589,-0.24775201,-0.13829806,9.076313
69587150212181,-0.3465276,-0.010980542,9.054018
69587170066773,-0.27677038,-0.18523048,9.254579
69587189921365,-0.21164379,-0.21830885,9.348995
69587209771713,-0.36997643,-0.29204366,9.301387
69587229626177,-0.48045343,-0.48589718,9.007375
69587249480641,-0.32645038,-0.69024056,8.871663
69587269335105,-0.071714126,-0.51510537,9.135739
69587289189697,-0.14808616,-0.4814399,9.320747
69587309047970,-0.34493378,-0.40577903,9.159077
69587328909960,-0.2781091,-0.2232398,9.100517
69587348764552,-0.28015584,0.03393617,9.28319
69587368619144,-0.5160776,0.21243949,9.378876
69587388473608,-0.71763873,0.13367333,9.1297
69587408329717,-0.5718895,0.18104923,9.0103035
69587428184309,-0.3719607,0.071420476,9.181654
69587448038901,-0.30192497,-0.1285428,9.347606
69587467893365,-0.18141064,-0.292581,9.399726
69587487747957,-0.12459845,-0.3095069,9.229759
69587507587882,-0.16823281,-0.2681016,9.1631365
69587527442090,-0.5128402,-0.19199768,9.148858
69587547296298,-0.8949118,-0.16001056,9.134916
69587567150634,-0.6989979,-0.097256474,9.250197
69587587004842,-0.31530827,0.026212608,9.345954
69587606862140,-0.2028097,0.06911383,9.155947
69587626716476,-0.0030012485,0.09630988,9.099805
69587646570812,0.023856118,-0.0045240526,9.086836
69587666425148,-0.351149,-0.08617049,9.203802
69587686279484,-0.7132877,-0.24985513,9.164629
69587706140305,-0.6340342,-0.241329,9.118353
69587725994641,-0.3700183,-0.25585696,9.201203
69587745849105,-0.30906588,-0.2333506,9.256139
69587765703441,-0.33462408,-0.18235977,9.200021
69587785557777,-0.35424468,-0.030331032,9.233621
69587805420090,-0.3416244,-0.025438607,9.351813
69587825274555,-0.36902758,0.03148099,8.996007
69587845129148,-0.43346605,0.040606752,9.220151
69587864983613,-0.44542924,-0.119212285,9.20052
69587884838078,-0.31854528,-0.057513274,9.212885
69587904694669,-0.21350989,-0.022227652,9.237961
69587924549134,-0.146383,-0.080416724,9.14892
69587944403721,-0.13586493,-0.11052658,9.1088295
69587964258313,-0.23984784,-0.073447175,9.086626
69587984112905,-0.36070204,-0.012853317,9.125263
69588003977761,-0.37598512,-0.0035104305,9.184934
69588023834129,-0.3685266,-0.037561946,9.137742
69588043688850,-0.297767,-0.020008951,9.263004
69588063543699,-0.2844572,-0.08921867,9.168195
69588083398420,-0.26433668,-0.07904991,9.11822
69588103252275,-0.28131315,-0.05360302,9.270598
69588123107124,-0.31883988,-0.11005494,9.23436
69588142961973,-0.31920865,-0.13793296,9.175282
69588162816822,-0.34588996,-0.15577345,9.188914
69588182671671,-0.38479877,-0.09371042,9.17463
69588202531150,-0.306176,-0.068578355,9.128298
69588222385999,-0.22971496,-0.037826825,9.1439905
69588242240976,-0.2914557,-0.04394712,9.124545
69588262095825,-0.32763335,-0.090506844,9.16616
69588281950802,-0.36955604,-0.10539236,9.171504
69588301813513,-0.311242,-0.082551055,9.174149
69588321668618,-0.23015325,-0.101655744,9.134499
69588341523595,-0.29725564,-0.06318163,9.186476
69588361378700,-0.3414798,0.02997378,9.211728
69588381233805,-0.29835567,0.007360374,9.128533
69588401090706,-0.3255404,-0.13644077,9.148014
69588420945939,-0.35210466,-0.18938372,9.223649
69588440801172,-0.28323224,-0.24286085,9.225346
69588460656405,-0.25569922,-0.13808872,9.259817
69588480511638,-0.30717233,-0.071369074,9.232926
69588500366720,-0.24251099,-0.14601555,9.137255
69588520223141,-0.26994583,-0.0024807348,9.166206
69588540078374,-0.60141265,0.088034414,9.351205
69588559933735,-0.68638426,-0.024329597,9.336598
69588579788968,-0.33205077,-0.11148401,9.208321
69588599644329,-0.06441367,-0.15615214,9.316857
69588619498914,-0.012396154,-0.20100491,9.338086
69588639354147,-0.14307584,-0.08591726,9.351588
69588659209508,-0.5082878,-0.057953216,9.19853
69588679064741,-0.46923378,-0.18067035,9.377751
69588698919974,-0.11773462,-0.3002902,9.3386
69588718776101,-0.006920205,-0.26324794,9.351499
69588738631462,-0.057498544,-0.22678065,9.355772
69588758486695,-0.06440135,-0.15801936,9.382596
69588778342056,-0.1854767,-0.113725804,9.496437
69588798197289,-0.2919349,-0.14142837,9.590954
69588818049904,-0.28021038,-0.18605965,9.466304
69588837905137,-0.23596255,-0.10862633,9.431237
69588857760370,-0.16235022,-0.050921854,9.326844
69588877615603,-0.16033854,-0.014167478,9.294731
69588897470836,-0.19100167,0.028297702,9.38285
69588917325933,-0.2099528,-0.016462378,9.44118
69588937181166,-0.292136,-0.12731948,9.529927
69588957036399,-0.28509954,-0.13809544,9.6044855
69588976891738,-0.26003173,-0.11458542,9.618674
69588996746971,-0.2398543,-0.11105906,9.613971
69589016601562,-0.2595296,-0.10103345,9.616353
69589036456795,-0.33175385,-0.07425284,9.663199
69589056312156,-0.3713062,-0.03572923,9.612644
69589076167389,-0.37431312,-0.03517648,9.583081
69589096022750,-0.32847482,-0.01722928,9.532188
69589115864871,-0.21414341,-0.015185434,9.509538
69589135719720,-0.17588684,-0.04842659,9.556054
69589155574569,-0.24808887,-0.084601425,9.588722
69589175429546,-0.272508,-0.115115866,9.570844
69589195284395,-0.30040827,-0.06304625,9.63655
69589215133600,-0.31791314,-0.0386902,9.671187
69589234988321,-0.30700025,-0.07217319,9.680705
69589254843042,-0.2734677,-0.074684046,9.717799
69589274697763,-0.25011188,-0.05154064,9.712169
69589294552484,-0.24414556,0.018407825,9.659707
69589314410411,-0.26831368,0.055236973,9.644614
69589334265132,-0.31010926,-0.055839173,9.632044
69589354119981,-0.3054672,-0.120653175,9.625316
69589373974830,-0.25250682,-0.10121512,9.63659
69589393829679,-0.23621877,-0.0687512,9.636899
69589413686972,-0.19110264,-0.053569518,9.6735325
69589433541821,-0.19207814,-0.11058875,9.7754
69589453396777,-0.25153252,-0.12875418,9.861629
69589473251626,-0.2764748,-0.118592195,9.848833
69589493106475,-0.2598269,-0.07820034,9.81394
69589512958398,-0.22467159,-0.021969851,9.756895
69589532813119,-0.19497904,-0.030862566,9.738573
69589552667968,-0.21676365,-0.067990504,9.719723
69589572522689,-0.21463136,-0.088155895,9.721069
69589592377538,-0.1823251,-0.049433347,9.704537
69589612234739,-0.19471954,-0.015880106,9.672858
69589632089716,-0.2299315,-0.06546792,9.684633
69589651944565,-0.26347038,-0.14482163,9.691024
69589671799414,-0.2684344,-0.17457557,9.755971
69589691654391,-0.20092586,-0.14631262,9.799691
69589711503998,-0.2159556,-0.10178255,9.774694
69589731358719,-0.24962369,-0.07185527,9.816126
69589751213440,-0.33988884,-0.0949468,9.83477
69589771068161,-0.32411748,-0.061077382,9.788786
69589790922882,-0.2899645,-0.045041226,9.719254
69589810782077,-0.30119222,-0.028625246,9.718763
69589830636926,-0.286182,-0.027653484,9.735105
69589850491647,-0.25091097,0.0022015325,9.751478
69589870346496,-0.28671005,0.043567218,9.780146
69589890201217,-0.2575203,0.02548588,9.769854
69589910054512,-0.28258744,-0.0023875732,9.749958
69589929909339,-0.30215868,-0.021233432,9.754312
69589949764188,-0.27227876,-0.033640973,9.742698
69589969619037,-0.26220334,-0.04787755,9.760615
69589989473758,-0.29224953,-0.086183876,9.762761
69590009332667,-0.27602467,-0.12894186,9.761282
69590029187516,-0.2644667,-0.14761212,9.795652
69590049042365,-0.2538487,-0.1268914,9.825034
69590068897214,-0.28078046,-0.09530349,9.838065
69590088752063,-0.31741175,-0.06523543,9.835174
69590108607776,-0.31391427,-0.05473231,9.790972
69590128462625,-0.31507748,-0.059412535,9.731242
69590148317474,-0.3318434,-0.06033873,9.70984
69590168172323,-0.32833272,-0.05606603,9.725668
69590188027172,-0.25926617,-0.03555693,9.684877
69590207886019,-0.21724519,-0.014635557,9.727173
69590227740996,-0.25411713,-0.040688176,9.804359
69590247595973,-0.33578482,-0.09976329,9.790219
69590267450950,-0.40595654,-0.14032209,9.805136
69590287305799,-0.39989808,-0.14620249,9.843797
69590307168248,-0.35874823,-0.16671121,9.829332
69590327023481,-0.32075378,-0.15302019,9.803799
69590346878586,-0.313806,-0.109784506,9.758692
69590366733691,-0.2924784,-0.095347516,9.753689
69590386588796,-0.33605406,-0.13033226,9.767363
69590406446299,-0.3231725,-0.13101245,9.753815
69590426301532,-0.26502013,-0.0682936,9.714924
69590446156765,-0.24162051,-0.04556202,9.694537
69590466011998,-0.25799966,-0.055385023,9.752287
69590485867103,-0.31268156,-0.1352368,9.793221
69590505709848,-0.3551917,-0.17594086,9.813276
69590525564825,-0.36198917,-0.14477819,9.830655
69590545419930,-0.34270638,-0.11099943,9.794787
69590565274907,-0.33051372,-0.12608038,9.771147
69590585129884,-0.313113,-0.12156469,9.734536
69590604984861,-0.324249,-0.132153,9.670279
69590624838222,-0.33450758,-0.14058225,9.611405
69590644693199,-0.29110613,-0.108313285,9.651054
69590664548176,-0.2639978,-0.077964485,9.730356
69590684403153,-0.2817564,-0.10349839,9.785043
69590704258130,-0.33805472,-0.16022679,9.876631
69590724114107,-0.38570777,-0.15839589,9.894318
69590743969084,-0.3481468,-0.117942505,9.827226
69590763824061,-0.3457571,-0.11003509,9.779983
69590783679038,-0.36247942,-0.11137316,9.743823
69590803534015,-0.321745,-0.14189419,9.707871
69590823388590,-0.33648318,-0.1297505,9.691553
69590843243439,-0.36724275,-0.10641172,9.714909
69590863098416,-0.33796704,-0.1165899,9.686517
69590882953370,-0.25686467,-0.14628881,9.70119
69590902808219,-0.2625728,-0.19252765,9.699354
69590922661854,-0.30865744,-0.18722737,9.715394
69590942516703,-0.34307387,-0.14760447,9.724292
69590962371680,-0.34964156,-0.11164146,9.745035
69590982226529,-0.35286438,-0.12648314,9.766427
69591002081506,-0.33308724,-0.15229023,9.783141
69591021937495,-0.3545633,-0.13308044,9.806641
69591041792344,-0.3560477,-0.1155562,9.807312
69591061647321,-0.36168292,-0.14766133,9.727346
69591081502298,-0.35383543,-0.16522226,9.673447
69591101357147,-0.3364819,-0.13847747,9.680136
69591121203858,-0.2940577,-0.10567652,9.67818
69591141058707,-0.29210025,-0.124194235,9.738559
69591160913428,-0.3077281,-0.16116688,9.806008
69591180768149,-0.34729147,-0.1739636,9.838897
69591200622998,-0.3339967,-0.15154113,9.863963
69591220472075,-0.35109642,-0.12839603,9.837225
69591240326796,-0.33334053,-0.08540817,9.805373
69591260181389,-0.33530828,-0.12257414,9.822729
69591280036110,-0.34306297,-0.14074472,9.801447
69591299890703,-0.32564557,-0.16427696,9.796326
69591319749630,-0.3441255,-0.15247929,9.772232
69591339604351,-0.3244232,-0.1348688,9.723603
69591359458923,-0.28319013,-0.13002074,9.713873
69591379313644,-0.26200473,-0.121207535,9.675989
69591399168365,-0.28477442,-0.10980546,9.678323
69591419020440,-0.3353834,-0.079156995,9.757385
69591438875161,-0.33909798,-0.096327655,9.863962
69591458729754,-0.34048954,-0.15899558,9.950049
69591478584475,-0.32307726,-0.15198377,9.984887
69591498439068,-0.2942004,-0.079086535,9.974386
69591518295173,-0.2988735,-0.09240257,9.893122
69591538149766,-0.36754888,-0.10352846,9.818216
69591558004359,-0.42917565,-0.07847329,9.728715
69591577858952,-0.39251372,-0.10272241,9.6568165
69591597713545,-0.34301898,-0.0966958,9.626091
69591617564090,-0.24855015,-0.08111154,9.599117
69591637418683,-0.17876366,-0.089207135,9.648523
69591657273276,-0.20727502,-0.11240905,9.746644
69591677127741,-0.26940152,-0.16282055,9.797228
69591696982334,-0.2831035,-0.17094173,9.850663
69591716835897,-0.31017286,-0.09884711,9.959343
69591736690490,-0.31376597,-0.011704466,9.940965
69591756544955,-0.32661626,-0.009569041,9.874015
69591776399420,-0.35341674,-0.10035237,9.834882
69591796254013,-0.2888199,-0.12035858,9.75673
69591816117816,-0.27404958,-0.13541016,9.686843
69591835972515,-0.3076417,-0.10880291,9.627312
69591855827236,-0.26406828,-0.06072756,9.630763
69591875681957,-0.20803502,-0.10520967,9.642665
69591895536678,-0.24638528,-0.15300927,9.669148
69591915400103,-0.31628639,-0.17172588,9.695505
69591935254952,-0.3332474,-0.121139556,9.73019
69591955109929,-0.3542492,-0.1116502,9.803323
69591974964778,-0.34146342,-0.18028077,9.879901
69591994819755,-0.39593592,-0.20546728,9.921255
69592014681832,-0.3784526,-0.1712313,9.895086
69592034537065,-0.38170946,-0.12561385,9.859211
69592054392170,-0.40490642,-0.12672031,9.768613
69592074247275,-0.38139623,-0.17213126,9.698822
69592094102380,-0.33319587,-0.16954924,9.65264
69592113954695,-0.29145977,-0.15551238,9.634881
69592133809672,-0.28606522,-0.1350671,9.634327
69592153664649,-0.30291796,-0.13953309,9.636733
69592173519626,-0.3198573,-0.14753856,9.662948
69592193370875,-0.370489,-0.1707068,9.754006
69592213225852,-0.40898916,-0.17613253,9.810402
69592233080701,-0.38220242,-0.19589055,9.787323
69592252935678,-0.34026664,-0.18723567,9.84201
69592272790655,-0.3650273,-0.14568102,9.881587
69592292645504,-0.37821186,-0.1151105,9.815009
69592312508383,-0.3898793,-0.15379651,9.8164425
69592332363488,-0.40666896,-0.20417589,9.812745
69592352218593,-0.38322142,-0.20803696,9.74335
69592372073698,-0.3670325,-0.17724547,9.701729
69592391928803,-0.32674006,-0.12864244,9.692716
69592411783140,-0.30853322,-0.14482863,9.728204
69592431638373,-0.39390257,-0.18284416,9.720073
69592451493478,-0.4282164,-0.16336602,9.742358
69592471348583,-0.37333325,-0.09762305,9.762452
69592491203554,-0.34226373,-0.07335104,9.770029
69592511058659,-0.3362033,-0.09232187,9.791565
69592530913892,-0.3345363,-0.08281662,9.837557
69592550768997,-0.34405088,-0.074761026,9.845468
69592570624230,-0.33597648,-0.070067875,9.817762
69592590479335,-0.3993737,-0.07447042,9.835189
69592610330272,-0.43506297,-0.096883945,9.820162
69592630185505,-0.37956104,-0.12500289,9.737157
69592650040610,-0.33546215,-0.1306944,9.718401
69592669895715,-0.33324534,-0.1342298,9.713065
69592689750820,-0.30342585,-0.118177615,9.68472
69592709607131,-0.30564344,-0.11027878,9.6957655
69592729462236,-0.3664479,-0.13397309,9.70985
69592749317341,-0.3604468,-0.1288474,9.708947
69592769172446,-0.3208135,-0.12892386,9.781361
69592789027528,-0.33645856,-0.133485,9.82303
69592808882633,-0.354825,-0.13497254,9.889482
69592828740992,-0.3700676,-0.12329065,9.892608
69592848596225,-0.38572225,-0.14343831,9.845704
69592868451330,-0.39810166,-0.12920621,9.856932
69592888306435,-0.34373385,-0.07078465,9.819315
69592908162874,-0.3313856,-0.042011283,9.727987
69592928018107,-0.35783103,-0.094322644,9.69361
69592947873212,-0.36229867,-0.1479282,9.639123
69592967728445,-0.32769716,-0.17797564,9.6540575
69592987583678,-0.3076536,-0.15575983,9.716462
69593007433571,-0.3217332,-0.13939779,9.779318
69593027288676,-0.30089417,-0.14910692,9.830956
69593047143781,-0.33930182,-0.18590039,9.817876
69593066998886,-0.34808156,-0.17694637,9.803998
69593086853991,-0.348853,-0.09993177,9.791351
69593106708968,-0.31905022,-0.05583173,9.73152
69593126550237,-0.32398415,-0.075403385,9.727386
69593146405086,-0.35212913,-0.12994838,9.738931
69593166260063,-0.3163502,-0.12144881,9.707316
69593186114912,-0.27106336,-0.08173408,9.719169
69593205958863,-0.3096619,-0.0931957,9.727925
69593225813456,-0.34395275,-0.14103642,9.730324
69593245667921,-0.3964518,-0.16396436,9.708655
69593265522493,-0.35762632,-0.13024877,9.726096
69593285377086,-0.3015717,-0.11218701,9.737418
69593305224499,-0.3129694,-0.12466749,9.756
69593325078836,-0.33513564,-0.11113151,9.780822
69593344933173,-0.373463,-0.10511437,9.795309
69593364787510,-0.37960616,-0.11586391,9.763331
69593384641975,-0.34519038,-0.1511235,9.760142
69593404496312,-0.33675808,-0.12541206,9.714364
69593424349307,-0.34830272,-0.11297237,9.740023
69593444203644,-0.33776873,-0.11324497,9.770378
69593464057853,-0.32030636,-0.14591613,9.739082
69593483912190,-0.33640987,-0.164441,9.768314
69593503769911,-0.38107526,-0.11766099,9.806909
69593523624248,-0.3573572,-0.09967973,9.748953
69593543478585,-0.31054077,-0.08662777,9.733957
69593563333050,-0.33203766,-0.13432494,9.752327
69593583187387,-0.3529899,-0.16015504,9.765035
69593603041724,-0.3667926,-0.1612221,9.787955
69593622895201,-0.38780814,-0.14113867,9.806767
69593642749538,-0.35174355,-0.13011822,9.829498
69593662603875,-0.2930958,-0.13134824,9.83748
69593682458212,-0.2901436,-0.13834876,9.8046465
69593702312549,-0.32238036,-0.14111997,9.77159
69593722167380,-0.35352692,-0.108884536,9.715796
69593742021695,-0.34528318,-0.070931286,9.6747265
69593761876032,-0.30741295,-0.09963921,9.636384
69593781730369,-0.29442877,-0.12046411,9.636226
69593801588266,-0.2826442,-0.1168805,9.6967945
69593821442603,-0.26688823,-0.10815077,9.768502
69593841296940,-0.29527265,-0.10640761,9.8566
69593861151405,-0.35340083,-0.12403678,9.872078
69593881005742,-0.39205614,-0.12885582,9.835562
69593900860079,-0.3889611,-0.13459569,9.829902
69593920715866,-0.34985813,-0.12267253,9.8017
69593940570203,-0.31247216,-0.080571495,9.793639
69593960424668,-0.30362433,-0.044847604,9.769348
69593980279005,-0.3333147,-0.049045254,9.770543
69594000133470,-0.36812586,-0.07366326,9.755192
69594019991691,-0.34558365,-0.10295579,9.732367
69594039846156,-0.30213702,-0.07982554,9.745842
69594059700621,-0.28098288,-0.07246764,9.788454
69594079555086,-0.3088595,-0.09208026,9.828564
69594099407485,-0.36383492,-0.12645508,9.877945
69594119261950,-0.4386183,-0.14084193,9.985399
69594139116415,-0.40177193,-0.15115207,9.943042
69594158970752,-0.33322677,-0.09869312,9.895916
69594178825217,-0.33208415,-0.1164593,9.789919
69594198679682,-0.31624615,-0.15032047,9.70929
69594218535892,-0.3121058,-0.111914456,9.707063
69594238390357,-0.33449394,-0.030040827,9.673616
69594258244694,-0.30710506,-0.03893792,9.684442
69594278099159,-0.3208416,-0.103372,9.678425
69594297953496,-0.29464525,-0.13149515,9.692892
69594317814877,-0.29700577,-0.1248567,9.676764
69594337669470,-0.30712652,-0.10148149,9.685021
69594357524063,-0.33316272,-0.104509436,9.723507
69594377378656,-0.31131917,-0.087114364,9.770505
69594397233249,-0.3270684,-0.062803954,9.810203
69594417087842,-0.34212592,-0.041546404,9.83716
69594436957057,-0.32822126,-0.05626094,9.833337
69594456812034,-0.3504264,-0.07285702,9.832957
69594476667011,-0.34825084,-0.08907085,9.825254
69594496521860,-0.30268654,-0.071148455,9.791462
69594516382251,-0.2896738,-0.0730643,9.733642
69594536237356,-0.29448184,-0.06332758,9.725192
69594556092461,-0.30990463,-0.09176531,9.66453
69594575947694,-0.29913393,-0.13087203,9.641167
69594595802799,-0.2814897,-0.13215028,9.662242
69594615658002,-0.2931213,-0.12325029,9.71171
69594635513235,-0.29440337,-0.12856206,9.761994
69594655368468,-0.3136063,-0.115166724,9.831138
69594675223573,-0.3348528,-0.091156594,9.858
69594695078784,-0.35868785,-0.07403546,9.853953
69594714934017,-0.3827951,-0.07002943,9.849884
69594734785714,-0.37223256,-0.05139297,9.8225765
69594754640819,-0.32879704,-0.03512254,9.758897
69594774495924,-0.32172918,-0.044443008,9.752958
69594794351029,-0.31212506,-0.06641273,9.698407
69594814198814,-0.277366,-0.06569627,9.62853
69594834053791,-0.2928167,-0.11740675,9.619822
69594853908768,-0.31057173,-0.16475786,9.645965
69594873763745,-0.28789452,-0.14479198,9.713105
69594893618594,-0.33166656,-0.119537346,9.794282
69594913469017,-0.36864346,-0.1123549,9.875205
69594933323866,-0.36179087,-0.14143339,9.914516
69594953178715,-0.37799636,-0.14417708,9.92465
69594973033564,-0.40201673,-0.1366314,9.896772
69594992888541,-0.39728433,-0.09858736,9.845585
69595012743390,-0.34498522,-0.07027742,9.79481
69595032598477,-0.29345784,-0.08172523,9.729208
69595052453326,-0.24659477,-0.08653914,9.676621
69595072308175,-0.25957677,-0.07880425,9.659654
69595092163024,-0.2980048,-0.06573284,9.643628
69595112013119,-0.336185,-0.084635794,9.651037
69595131867840,-0.36290866,-0.11079147,9.668015
69595151722689,-0.3279804,-0.121275775,9.745367
69595171577389,-0.3104243,-0.117366776,9.801668
69595191432238,-0.31105784,-0.1296832,9.848263
69595211286959,-0.34148782,-0.104235075,9.911205
69595231138624,-0.3690667,-0.074369304,9.916509
69595250993217,-0.364406,-0.059186004,9.932035
69595270847938,-0.39091524,-0.06122023,9.90947
69595290702659,-0.3361193,-0.071328394,9.790591
69595310557252,-0.28049666,-0.0352312,9.748938
69595330407591,-0.27493072,0.0053835823,9.717893
69595350262184,-0.30139348,-0.014516323,9.657735
69595370116777,-0.2977329,-0.052617636,9.643651
69595389971242,-0.2778301,-0.04475271,9.661758
69595409832149,-0.27492353,-0.038250674,9.660808
69595429686870,-0.28704137,-0.06658726,9.749792
69595449541591,-0.3119116,-0.08238884,9.825175
69595469396312,-0.36059073,-0.049069908,9.855972
69595489250905,-0.40911978,-0.05812465,9.856858
69595509105626,-0.42415443,-0.10418605,9.86393
69595528962621,-0.39699572,-0.11351999,9.877097
69595548817342,-0.34118736,-0.07221069,9.853566
69595568672063,-0.33885938,-0.027116625,9.801009
69595588526656,-0.29564983,-0.037463512,9.705422
69595608381377,-0.28859156,-0.062370535,9.610912
69595628233966,-0.35942632,-0.080967,9.580906
69595648088665,-0.37966424,-0.05603373,9.568879
69595667943258,-0.3060922,-0.06419521,9.6113
69595687797979,-0.2866777,-0.080476366,9.686049
69595707652700,-0.3138503,-0.10500928,9.779159
69595727507293,-0.33169588,-0.13408306,9.857653
69595747359758,-0.37402722,-0.12594053,9.952914
69595767214351,-0.43987313,-0.11851757,9.989436
69595787068944,-0.42229885,-0.10692253,9.90521
69595806923409,-0.3891998,-0.08267122,9.900746
69595826773626,-0.38431695,-0.09136441,9.813939
69595846628091,-0.32236925,-0.08979975,9.6881485
69595866482684,-0.27224404,-0.054002874,9.63366
69595886337149,-0.28652027,-0.04971268,9.601237
69595906191614,-0.3263106,-0.084763646,9.607928
69595926041309,-0.3625485,-0.102863275,9.632812
69595945895646,-0.33336386,-0.09040052,9.662479
69595965750111,-0.31894672,-0.08033996,9.7392
69595985604448,-0.31126437,-0.080666505,9.832902
69596005458785,-0.3302155,-0.12542638,9.891231
69596025313250,-0.3707606,-0.111510634,9.916763
69596045171251,-0.39510292,-0.07739722,9.954995
69596065025716,-0.3748796,-0.08737316,9.91841
69596084880181,-0.30841544,-0.06315883,9.792388
69596104734646,-0.2564436,-0.050048463,9.684901
69596124587010,-0.26704425,-0.10318056,9.6813
69596144441603,-0.2362265,-0.14188889,9.691799
69596164296068,-0.2492085,-0.13415441,9.674833
69596184150533,-0.31347838,-0.050124247,9.654806
69596204004998,-0.32536536,0.03874827,9.74363
69596223859463,-0.34954262,0.011166487,9.794856
69596243713318,-0.3442812,-0.07519781,9.847811
69596263567655,-0.33962375,-0.15933278,9.883986
69596283422120,-0.30245218,-0.14135306,9.915467
69596303276585,-0.30730236,-0.13993126,9.910359
69596323131050,-0.31400797,-0.13577317,9.863971
69596342990805,-0.31726056,-0.11633637,9.793846
69596362845270,-0.27058747,-0.1001816,9.757386
69596382699863,-0.27286413,-0.072549835,9.740284
69596402554456,-0.31221035,-0.078679256,9.710798
69596422409093,-0.36707357,-0.07315176,9.701543
69596442263686,-0.39283282,-0.09360837,9.700093
69596462118151,-0.3311324,-0.10889345,9.705756
69596481972744,-0.25774136,-0.15281124,9.690098
69596501827209,-0.24978091,-0.17929381,9.732449
69596521681802,-0.297649,-0.19722053,9.795384
69596541538041,-0.31592792,-0.19953188,9.832319
69596561392506,-0.30924168,-0.1581883,9.870052
69596581247099,-0.33391204,-0.13491113,9.857281
69596601101670,-0.32933676,-0.13199443,9.885199
69596620956135,-0.41073743,-0.14741008,9.911039
69596640812562,-0.4055209,-0.1801749,9.829569
69596660667155,-0.37276924,-0.121257715,9.765446
69596680521748,-0.3609533,-0.116218835,9.745518
69596700376341,-0.34437034,-0.13795862,9.725963
69596720229906,-0.35594496,-0.09124017,9.660104
69596740084499,-0.3622404,-0.11883682,9.512381
69596759938964,-0.3423459,-0.17974623,9.591097
69596779793557,-0.3379581,-0.21777557,9.772907
69596799648150,-0.3763993,-0.24293399,9.857449
69596819502743,-0.4174098,-0.19934767,9.927627
69596839359854,-0.43750694,-0.16006345,9.959898
69596859214447,-0.44475707,-0.17777231,9.91917
69596879069040,-0.5131409,-0.22128448,9.8529415
69596898923633,-0.47728565,-0.2204685,9.714656
69596918778226,-0.37851954,-0.13135085,9.606353
69596938631319,-0.3210435,-0.084899865,9.623106
69596958485912,-0.32896864,-0.12760347,9.626606
69596978340377,-0.34816393,-0.16220596,9.6329565
69596998194970,-0.37725303,-0.15117905,9.673762
69597018048387,-0.39798477,-0.11548411,9.764044
69597037902980,-0.480664,-0.15802893,9.811627
69597057757573,-0.49685082,-0.20191075,9.836124
69597077612146,-0.49461785,-0.22913049,9.867984
69597097466611,-0.45744273,-0.23296793,9.870922
69597117321204,-0.38739187,-0.25662535,9.814655
69597137175583,-0.42320237,-0.21775593,9.771876
69597157030304,-0.42522386,-0.14896095,9.723309
69597176884897,-0.43644932,-0.14563517,9.705692
69597196739490,-0.42716387,-0.16285448,9.688709
69597216594083,-0.40963686,-0.12903039,9.647784
69597236445886,-0.41120678,-0.12377298,9.660849
69597256300479,-0.45054135,-0.12740609,9.702811
69597276155072,-0.47458464,-0.17367709,9.686928
69597296009665,-0.48976967,-0.17300113,9.729618
69597315864258,-0.4816699,-0.17640606,9.827684
69597335718851,-0.46868932,-0.17541388,9.85607
69597355565166,-0.4439107,-0.1326076,9.844452
69597375419631,-0.49714154,-0.17388779,9.821737
69597395274096,-0.5047087,-0.19557297,9.807163
69597415128561,-0.50933,-0.1849876,9.81113
69597434987544,-0.494396,-0.13187173,9.773544
69597454842009,-0.4373915,-0.0931538,9.71783
69597474696474,-0.44888484,-0.12912387,9.665938
69597494551067,-0.42929202,-0.16886985,9.653113
69597514405532,-0.40999344,-0.15877569,9.654444
69597534265403,-0.37458178,-0.114569865,9.715115
69597554119847,-0.42328504,-0.12634063,9.769325
69597573974440,-0.4812252,-0.15184796,9.785801
69597593829033,-0.48306897,-0.1466152,9.815966
69597613683626,-0.4868164,-0.1120536,9.853858
69597633538219,-0.464736,-0.13349281,9.847136
69597653388302,-0.46958694,-0.12770756,9.847737
69597673242767,-0.4890707,-0.14737731,9.8225765
69597693097232,-0.47231635,-0.14894749,9.772531
69597712951697,-0.45925996,-0.15127523,9.699952
69597732810346,-0.4036783,-0.13221976,9.650223
69597752664811,-0.39449906,-0.1074771,9.648393
69597772519276,-0.41476396,-0.110179774,9.682613
69597792373869,-0.43617827,-0.12815669,9.711425
69597812228334,-0.48584285,-0.16307978,9.761226
69597832077507,-0.5176935,-0.17038462,9.813028
69597851931844,-0.5010602,-0.15949589,9.8901205
69597871786181,-0.49140355,-0.16192736,9.9150915
69597891640646,-0.51067436,-0.148749,9.861807
69597911494983,-0.524244,-0.16683298,9.859551
69597931349320,-0.50199234,-0.16810265,9.822339
69597951207485,-0.46587428,-0.09744661,9.758286
69597971061950,-0.40803263,-0.077974945,9.694171
69597990916415,-0.43710965,-0.14112669,9.637934
69598010770880,-0.453902,-0.17405245,9.657071
69598030633617,-0.48635894,-0.16603762,9.709224
69598050488338,-0.44914293,-0.15283325,9.720237
69598070342931,-0.40670285,-0.14371683,9.755478
69598090197524,-0.46861765,-0.15255304,9.789355
69598110052245,-0.5030133,-0.16715868,9.795491
69598129906838,-0.49096766,-0.15731941,9.778928
69598149767997,-0.46184132,-0.12948707,9.774739
69598169622846,-0.46581894,-0.09536213,9.814975
69598189477567,-0.47280008,-0.08250216,9.797105
69598209332416,-0.47921646,-0.09763989,9.77652
69598229187137,-0.5009608,-0.11336249,9.771453
69598249040426,-0.48433495,-0.1311507,9.742847
69598268895147,-0.44295686,-0.1381321,9.743165
69598288749996,-0.40845707,-0.15239823,9.739001
69598308604717,-0.40778077,-0.13613018,9.683357
69598328458840,-0.42446342,-0.111699514,9.666691
69598348313561,-0.45605662,-0.09093162,9.669905
69598368168410,-0.449709,-0.1161083,9.734368
69598388023131,-0.47568357,-0.15632287,9.778169
69598407877980,-0.45126137,-0.14326198,9.7732115
69598427732701,-0.38247305,-0.09659716,9.783774
69598447588622,-0.3773366,-0.09986126,9.837518
69598467443471,-0.4210142,-0.11906478,9.832094
69598487298320,-0.45302138,-0.11703592,9.802403
69598507153147,-0.4364136,-0.09804922,9.753726
69598527008124,-0.41713288,-0.051180266,9.734985
69598546871519,-0.38890958,-0.0618697,9.7602415
69598566726624,-0.3837755,-0.12435477,9.66833
69598586581601,-0.40174842,-0.12954937,9.601958
69598606436706,-0.43980604,-0.097326756,9.6335945
69598626290171,-0.4892972,-0.12517053,9.63578
69598646145276,-0.5018881,-0.15251338,9.6637125
69598666000253,-0.49587113,-0.1710723,9.700008
69598685855358,-0.46343258,-0.18677318,9.7883835
69598705710335,-0.48086467,-0.19274431,9.90549
69598725565440,-0.52450347,-0.18181546,9.925266
69598745422313,-0.543157,-0.17709711,9.948789
69598765277290,-0.51674753,-0.17237198,9.935131
69598785132395,-0.4763627,-0.15513697,9.856646
69598804987500,-0.446618,-0.095667295,9.762958
69598824842605,-0.37513664,-0.026524302,9.6458025
69598844693756,-0.3218586,-0.0074733086,9.625217
69598864548861,-0.28301603,-0.006169198,9.66844
69598884403838,-0.2992237,0.00417743,9.6957
69598904258815,-0.3136598,-0.009205843,9.765215
69598924113792,-0.3641611,-0.02924609,9.817707
69598943968897,-0.41997504,-0.035647888,9.886905
69598963816468,-0.41278112,-0.015659891,9.876651
69598983671296,-0.36003172,-0.042160325,9.898924
69599003526017,-0.3295324,-0.07611825,9.946991
69599023380866,-0.30341437,-0.039006613,9.924656
69599043236397,-0.31277198,0.004176383,9.853462
69599063091246,-0.33546877,0.029712053,9.777668
69599082945967,-0.35635304,0.048559878,9.752204
69599102800816,-0.3060411,0.08520521,9.710132
69599122655665,-0.22827302,0.040859405,9.638527
69599142510040,-0.21223173,-0.02020102,9.6018
69599162364889,-0.22977604,-0.021613915,9.616945
69599182219738,-0.23157756,-0.008066084,9.64377
69599202074715,-0.2787632,0.027678795,9.768174
69599221929564,-0.3506345,-0.0151138,9.829013
69599241784413,-0.36450297,-0.07394879,9.872979
69599261632326,-0.37189004,-0.055514455,9.922194
69599281487047,-0.35355988,-0.024938304,9.976197
69599301341768,-0.3317862,0.005330127,9.917893
69599321196361,-0.32223982,-0.0056336457,9.823778
69599341050174,-0.30386108,-0.0060134484,9.823068
69599360904895,-0.32455304,-0.02122455,9.764352
69599380759616,-0.30748168,-0.01881801,9.688154
69599400614209,-0.27033702,0.01598645,9.605283
69599420468930,-0.25205657,0.009570908,9.556931
69599440313843,-0.278786,0.01832277,9.619574
69599460168158,-0.27400598,-0.014686579,9.6799755
69599480022623,-0.2730821,-0.07485395,9.808366
69599499877088,-0.29642487,-0.10422807,9.874026
69599519731425,-0.2898504,-0.107150696,9.964688
69599539585890,-0.31445616,-0.13851383,9.934397
69599559438405,-0.35371917,-0.11928632,9.909645
69599579292742,-0.34632742,-0.047129296,9.828364
69599599147079,-0.3033511,-0.04045924,9.757955
69599619001416,-0.30627063,-0.040730618,9.698875
69599638853821,-0.2503094,-0.05924889,9.6226
69599658708158,-0.18409024,-0.06497443,9.610907
69599678562495,-0.16266017,-0.07068226,9.619291
69599698416832,-0.19287498,-0.025476208,9.636984
69599718271169,-0.19112138,-0.012431291,9.659169
69599738125506,-0.26884502,-0.09399637,9.702415
69599757980657,-0.31009212,-0.13271137,9.818422
69599777835122,-0.29087222,-0.10184336,9.943548
69599797689459,-0.28792632,-0.06957275,9.962091
69599817543796,-0.28147912,-0.04861602,9.907887
69599837398133,-0.245694,-0.07938754,9.824898
69599857251422,-0.24654302,-0.0626375,9.761852
69599877105759,-0.2587223,-0.009326454,9.684923
69599896960096,-0.21412344,0.011624196,9.680973
69599916814305,-0.19006231,0.021120403,9.716927
69599936664756,-0.18761148,-0.0037953474,9.680705
69599956518965,-0.16672295,-0.048823822,9.671918
69599976373046,-0.19087723,-0.022588724,9.711148
69599996227255,-0.24624744,-6.892638E-5,9.74417
69600016081464,-0.2935697,-0.0048556253,9.790029
69600035935673,-0.29096285,-0.034741513,9.841009
69600055796002,-0.2685103,-0.05011999,9.864825
69600075650211,-0.23706135,-0.0634216,9.845857
69600095504420,-0.23678876,-0.05466976,9.840172
69600115358757,-0.23149736,-0.009716294,9.831935
69600135212966,-0.21968143,-0.0046773823,9.812007
69600155071057,-0.23607635,0.009184043,9.832561
69600174925394,-0.2541228,-0.005780716,9.850027
69600194779731,-0.26463816,-0.04664626,9.834035
69600214634068,-0.24779503,-0.05776703,9.743055
69600234488405,-0.21423316,-0.04573216,9.716777
69600254342870,-0.18052782,-0.036800496,9.711965
69600274203973,-0.20674911,-0.049403783,9.726619
69600294058438,-0.19863732,-0.00585153,9.735533
69600313912903,-0.23464166,-0.045331832,9.729532
69600333767496,-0.2772384,-0.08957555,9.773396
69600353622455,-0.25080007,-0.114765614,9.856964
69600373477048,-0.24344449,-0.13465527,9.888247
69600393331641,-0.25268972,-0.096030615,9.919013
69600413186084,-0.15969697,-0.19623537,9.92586
69600433040677,-0.16191909,-0.19114009,9.858476
69600452897594,-0.16669244,-0.20208697,9.795239
69600472752187,-0.15334205,-0.17609143,9.702106
69600492606780,-0.1263548,-0.10739466,9.65389
69600512461373,-0.12770389,-0.059215,9.654086
69600532315966,-0.10147433,-0.060153257,9.684562
69600552170559,-0.08615816,-0.12303966,9.737015
69600572034098,-0.11086308,-0.17977513,9.758225
69600591888819,-0.12924302,-0.20906147,9.777473
69600611743668,-0.18359837,-0.19091383,9.771359
69600631598389,-0.18627599,-0.16341153,9.78204
69600651457420,-0.20323554,-0.17134316,9.7713585
69600671312269,-0.19413188,-0.18477693,9.770638
69600691167246,-0.1788076,-0.18317589,9.775191
69600711022095,-0.15488097,-0.18085673,9.779514
69600730877072,-0.1497169,-0.1566233,9.798968
69600750732677,-0.12972997,-0.116637155,9.823464
69600770587654,-0.14395659,-0.12006923,9.7793255
69600790442631,-0.1714784,-0.17113258,9.762666
69600810297480,-0.19537818,-0.19071828,9.730306
69600830152457,-0.15459146,-0.15418969,9.723807
69600850007434,-0.13710824,-0.16273086,9.7775755
69600869859571,-0.1412378,-0.14020392,9.7432375
69600889714527,-0.12912112,-0.11289003,9.707791
69600909569376,-0.16241907,-0.16200149,9.684053
69600929424353,-0.15693554,-0.19319983,9.694513
69600949273332,-0.14545807,-0.18546928,9.737332
69600969128181,-0.19960956,-0.1801346,9.784374
69600988983030,-0.18438254,-0.1512658,9.824113
69601008837879,-0.16098334,-0.14241987,9.866749
69601028692728,-0.16913036,-0.17545934,9.887089
69601048547577,-0.15225653,-0.20631371,9.826243
69601068399850,-0.14484118,-0.16889101,9.784812
69601088254571,-0.14726642,-0.111011446,9.728392
69601108109420,-0.130381,-0.10674441,9.694427
69601127964141,-0.14206076,-0.11746752,9.714632
69601147818990,-0.14614038,-0.15014476,9.6884
69601167670737,-0.15676346,-0.16719931,9.739073
69601187525458,-0.16002053,-0.17777239,9.77615
69601207380179,-0.14065579,-0.18695647,9.790703
69601227234900,-0.14827193,-0.21641816,9.836245
69601247080065,-0.13788539,-0.17907481,9.831406
69601266934658,-0.13454433,-0.16364874,9.829601
69601286789123,-0.16303375,-0.18980648,9.820258
69601306643588,-0.18635102,-0.20194624,9.825887
69601326498053,-0.21555825,-0.18045233,9.809339
69601346352646,-0.18423422,-0.19270168,9.768991
69601366200872,-0.0961557,-0.2025458,9.774771
69601386055209,-0.08432457,-0.16569059,9.735432
69601405909546,-0.113917276,-0.1597187,9.737959
69601425763883,-0.12524177,-0.19639428,9.728334
69601445618220,-0.16311423,-0.20489377,9.713502
69601465468687,-0.16501272,-0.23967291,9.755295
69601485322896,-0.14973877,-0.2194604,9.795592
69601505177233,-0.12564342,-0.17860804,9.817782
69601525031442,-0.10463937,-0.22394143,9.780462
69601544882683,-0.119274855,-0.26218486,9.790245
69601564736764,-0.14832892,-0.26585117,9.812776
69601584590845,-0.18970962,-0.2485811,9.8230715
69601604444926,-0.18946694,-0.21721299,9.851657
69601624299007,-0.1424108,-0.23555785,9.828647
69601644153216,-0.12893611,-0.25853872,9.786527
69601664011819,-0.13781816,-0.24371502,9.765519
69601683866028,-0.14912938,-0.21186692,9.721236
69601703720237,-0.16425928,-0.18704273,9.712385
69601723574446,-0.1579117,-0.2054357,9.730307
69601743428655,-0.12538205,-0.22297588,9.735031
69601763284460,-0.12741016,-0.22899228,9.743656
69601783138669,-0.16761082,-0.22358474,9.768565
69601802992878,-0.19909908,-0.23658557,9.757414
69601822846959,-0.18656984,-0.25850102,9.774333
69601842701145,-0.16069156,-0.24020813,9.780896
69601862555354,-0.13738477,-0.24349502,9.779348
69601882413289,-0.15540507,-0.22459069,9.771742
69601902267626,-0.17350757,-0.18835494,9.7335
69601922121963,-0.18384446,-0.17317882,9.734623
69601941976172,-0.20507784,-0.22577982,9.734133
69601961828699,-0.19493224,-0.2791944,9.737214
69601981682908,-0.173668,-0.25018296,9.74009
69602001537117,-0.1596018,-0.19681038,9.745903
69602021391326,-0.15546301,-0.16057342,9.738682
69602041245535,-0.1516309,-0.21623012,9.7292795
69602061110032,-0.15182725,-0.2619309,9.72702
69602080964369,-0.17895073,-0.24896224,9.720947
69602100818834,-0.19524547,-0.23245151,9.766653
69602120673171,-0.17972076,-0.20429465,9.84058
69602140527508,-0.20536244,-0.2054467,9.998018
69602160381973,-0.19210374,-0.28698668,9.970579
69602180240248,-0.13400318,-0.30314177,9.901373
69602200094713,-0.12817237,-0.22695649,9.875553
69602219949178,-0.16698596,-0.20322591,9.75952
69602239803771,-0.21722628,-0.20771687,9.679603
69602259662624,-0.22538589,-0.20032099,9.637374
69602279517345,-0.17706887,-0.22976056,9.626957
69602299371938,-0.14210032,-0.19400562,9.669931
69602319226510,-0.11314722,-0.15677665,9.701718
69602339081231,-0.065864556,-0.16398577,9.722625
69602358939584,-0.12695093,-0.17265916,9.74228
69602378794305,-0.22032909,-0.17780928,9.767316
69602398649154,-0.3002595,-0.17133085,9.787621
69602418503875,-0.3140958,-0.18339853,9.826555
69602438358596,-0.31073976,-0.20264779,9.851837
69602458213445,-0.28183174,-0.19224934,9.829826
69602478068904,-0.20927434,-0.14893739,9.803031
69602497923753,-0.14284714,-0.14062296,9.761293
69602517778474,-0.14552256,-0.16923808,9.733056
69602537633323,-0.18923208,-0.16658734,9.701399
69602557489438,-0.2231277,-0.1492629,9.682789
69602577344287,-0.22784805,-0.16120403,9.665476
69602597199136,-0.21936552,-0.1815359,9.688119
69602617053985,-0.23335071,-0.20195733,9.749751
69602636908834,-0.20360593,-0.18744741,9.797234
69602656763683,-0.17063077,-0.14899266,9.830302
69602676616954,-0.19490656,-0.15429054,9.885302
69602696471803,-0.21166287,-0.1779145,9.89722
69602716326780,-0.22103325,-0.21857083,9.876131
69602736181629,-0.19546649,-0.21635258,9.859679
69602756036478,-0.19766238,-0.14784569,9.822967
69602775896863,-0.20605905,-0.09756266,9.757774
69602795751817,-0.21363436,-0.017132461,9.690956
69602815606794,-0.2267035,-0.080968715,9.6781025
69602835461899,-0.2153829,-0.10755173,9.691957
69602855311938,-0.19500357,-0.07990621,9.726277
69602875166915,-0.20661062,-0.058922067,9.767743
69602895021764,-0.23321952,-0.0361696,9.822375
69602914876613,-0.2750032,-0.048194513,9.866566
69602934731462,-0.27525637,-0.05868665,9.852438
69602954586439,-0.27352998,-0.05621115,9.838388
69602974432048,-0.27645922,-0.038823087,9.816595
69602994286769,-0.26437852,-0.026327375,9.785986
69603014141362,-0.22050737,-0.03952986,9.764553
69603033996083,-0.17949735,-0.06310641,9.775237
69603053850804,-0.18493596,-0.07548472,9.765039
69603073692817,-0.24432327,-0.07837422,9.767031
69603093547282,-0.25004745,-0.08874895,9.725305
69603113401747,-0.25037795,-0.0759581,9.739766
69603133256084,-0.25133598,-0.042478725,9.713703
69603153106367,-0.23514542,-0.05544615,9.69381
69603172960704,-0.21587421,-0.042654525,9.725378
69603192814913,-0.22967428,-0.055563442,9.721408
69603212669250,-0.27430674,-0.07625352,9.734324
69603232523587,-0.27835634,-0.07542777,9.773168
69603252377924,-0.23281898,-0.07430596,9.827953
69603272232216,-0.19630507,-0.005988822,9.864126
69603292086553,-0.2291308,0.0046653664,9.836469
69603311940762,-0.23358561,0.0097892955,9.831699
69603331795099,-0.2545645,0.032161117,9.832033
69603351649308,-0.26188496,0.001642801,9.767577
69603371499799,-0.25805694,0.003608308,9.773332
69603391353880,-0.21684827,0.018284133,9.798723
69603411208089,-0.17752741,0.027284512,9.77647
69603431062298,-0.16435866,-0.0072027035,9.75357
69603450908491,-0.24468313,-0.051592004,9.742417
69603470762444,-0.28733796,-0.06261061,9.724712
69603490616397,-0.29587993,-0.018435283,9.6983595
69603510470350,-0.26765096,0.032655615,9.698017
69603530324431,-0.22336218,0.02243241,9.729866
69603550178384,-0.23050837,-0.013947597,9.760004
69603570025785,-0.26276636,-0.027940944,9.770294
69603589879482,-0.25002518,-0.017873827,9.793269
69603609733307,-0.25331795,-0.008961255,9.779456
69603629587132,-0.25936592,0.018579012,9.821922
69603649440957,-0.25133353,0.0068529216,9.806629
69603669297446,-0.24342135,-0.029070962,9.755816
69603689151271,-0.2501918,0.014932087,9.749278
69603709005096,-0.30217418,0.018887626,9.722695
69603728859049,-0.30848396,-0.01718903,9.716288
69603748712852,-0.30289716,-0.08281018,9.714937
69603768566677,-0.26958185,-0.06678379,9.751317
69603788430656,-0.26627702,-0.049700648,9.774191
69603808284737,-0.28052852,-0.07307818,9.780669
69603828138690,-0.3102949,-0.08566794,9.811424
69603847992771,-0.33045146,-0.06400576,9.822233
69603867849772,-0.31966177,-0.07449201,9.858597
69603887703853,-0.30010033,-0.045696106,9.890436
69603907557934,-0.29095212,-0.04522186,9.847635
69603927412015,-0.288292,-0.06303386,9.803378
69603947265968,-0.2961775,-0.08400617,9.767017
69603967128997,-0.26294827,-0.066355355,9.740007
69603986983334,-0.216355,-0.029970197,9.686041
69604006837543,-0.20912567,-0.019455908,9.691186
69604026691752,-0.2318948,-0.017185606,9.661685
69604046545961,-0.22125109,-0.040086754,9.681263
69604066400170,-0.22806558,-0.038694005,9.800572
69604086257621,-0.24936348,0.017878415,9.858697
69604106111958,-0.2232898,-0.012716818,9.866746
69604125966167,-0.28107384,-0.072021574,9.876252
69604145820504,-0.29341802,-0.081002496,9.870701
69604165675933,-0.27199832,-0.047482833,9.8546095
69604185530270,-0.2746963,0.010429917,9.824788
69604205384735,-0.24986334,0.009064951,9.746989
69604225239051,-0.23803759,-0.094297424,9.646726
69604245093388,-0.21245755,-0.103713825,9.629879
69604264954293,-0.16918999,-0.08417555,9.651971
69604284808758,-0.12683925,-0.09541742,9.697369
69604304663223,-0.16178949,-0.103847854,9.80054
69604324517816,-0.19086188,-0.079678856,9.815072
69604344372281,-0.23067261,-0.089534,9.809843
69604364226746,-0.28334308,-0.09915489,9.832968
69604384085477,-0.31006595,-0.0698753,9.804625
69604403940198,-0.2848632,-0.08057143,9.777707
69604423794791,-0.21623921,-0.12649658,9.696124
69604443649512,-0.17057782,-0.08663713,9.697892
69604463510487,-0.16216142,-0.05512827,9.675352
69604483365336,-0.17075914,-0.06412514,9.655746
69604503220313,-0.2069749,-0.07868481,9.657244
69604523075162,-0.23373403,-0.091646686,9.676977
69604542930011,-0.25190616,-0.11525135,9.705142
69604562784860,-0.24477614,-0.099491194,9.762665
69604582639691,-0.22329725,-0.09479089,9.780054
69604602494540,-0.20800178,-0.1061639,9.813383
69604622349389,-0.21372086,-0.07052957,9.910432
69604642204366,-0.26670098,-0.090288326,9.946246
69604662059215,-0.27700853,-0.11151767,10.00001
69604681916338,-0.2733772,-0.07398072,9.958659
69604701771294,-0.24689618,-0.10807049,9.825862
69604721626143,-0.20976461,-0.11176411,9.697527
69604741481120,-0.19160609,-0.0535442,9.5733185
69604761337675,-0.15403129,-0.02349585,9.468991
69604781192524,-0.20493747,-0.099202774,9.379698
69604801047501,-0.22199649,-0.13099797,9.626826
69604820902478,-0.19059052,-0.14972685,9.8451395
69604840757455,-0.20379199,-0.21182998,10.06431
69604860612432,-0.23320235,-0.21087046,10.2219095
69604880469055,-0.24509178,-0.15150209,10.164735
69604900324160,-0.23010539,-0.16295828,9.996827
69604920179137,-0.31521326,-0.14894694,9.823407
69604940034242,-0.34475967,-0.042202406,9.67202
69604959889219,-0.28171986,7.503134E-4,9.571786
69604979736370,-0.1895429,-0.004875775,9.600449
69604999591219,-0.07939195,-0.030028818,9.643324
69605019446196,-0.018272758,-0.08735374,9.689074
69605039301173,-0.069014855,-0.17142463,9.72048
69605059141406,-0.18450427,-0.15645717,9.7878275
69605078995999,-0.27740034,-0.14275482,9.829298
69605098850592,-0.32765257,-0.13263561,9.867611
69605118705185,-0.36810812,-0.14159213,9.885485
69605138559778,-0.32147112,-0.14145721,9.910237
69605158414371,-0.18155809,-0.12422914,9.865524
69605178260409,-0.0043528657,-0.10161222,9.800043
69605198114746,-0.023233408,-0.10369788,9.718786
69605217969083,-0.010495139,-0.16913655,9.671904
69605237823420,-0.008523321,-0.21919969,9.70965
69605257677757,-0.061473835,-0.21424812,9.692389
69605277531120,-0.08671092,-0.18149236,9.6765175
69605297385457,-0.06388105,-0.20350942,9.736087
69605317239666,-0.028556215,-0.25225896,9.767603
69605337093875,0.022547588,-0.27111876,9.765602
69605356948212,0.025671495,-0.27125207,9.875284
69605376802421,-0.028825216,-0.24611771,9.935022
69605396657106,-0.08196851,-0.21292831,9.893221
69605416511315,-0.08355692,-0.24319172,9.8369055
69605436365652,-0.06078908,-0.2721968,9.81457
69605456219989,-0.041836996,-0.24119578,9.802876
69605476069816,-0.0065079187,-0.24948604,9.714053
69605495923897,-0.0052500297,-0.28630325,9.666069
69605515778106,-0.023859575,-0.25172293,9.696188
69605535632315,0.002853891,-0.20345682,9.708508
69605555486396,0.029803922,-0.21092945,9.733357
69605575340715,0.008096495,-0.23096299,9.803507
69605595194924,-0.012538048,-0.25425723,9.814264
69605615049005,-0.0134931505,-0.2730094,9.8576765
69605634903214,-0.053235706,-0.2963226,9.853601
69605654757401,-0.09345771,-0.19579904,9.778111
69605674611610,-0.058598075,-0.18966135,9.739748
69605694463229,-0.041755613,-0.19656384,9.678442
69605714317310,-0.026198374,-0.1969934,9.628216
69605734171391,-0.059091434,-0.1719887,9.677087
69605754025472,-0.09184912,-0.15084282,9.700794
69605773878309,-0.1092804,-0.16573565,9.721447
69605793732262,-0.103343666,-0.22653654,9.800096
69605813586343,-0.07193401,-0.1871776,9.870818
69605833440424,-0.070387974,-0.17544317,9.924189
69605853294377,-0.104484454,-0.21485417,9.975865
69605873156132,-0.13424604,-0.23508671,9.976984
69605893010341,-0.14399086,-0.23988396,9.8156
69605912864422,-0.10695267,-0.22950989,9.7118635
69605932718631,-0.11989526,-0.16656801,9.685502
69605952572840,-0.11029544,-0.07972627,9.634856
69605972427049,-0.09182005,-0.10636977,9.613738
69605992286092,-0.13142478,-0.17701872,9.630741
69606012140301,-0.13040416,-0.21573244,9.711449
69606031994638,-0.08157175,-0.2324241,9.770343
69606051848847,-0.049762692,-0.25982004,9.772437
69606071705076,-0.0453579,-0.21411638,9.783004
69606091559285,-0.040933184,-0.29002,9.763666
69606111413622,-0.044377636,-0.32213667,9.762875
69606131267810,-0.16395274,-0.26472896,9.802855
69606151122147,-0.16354525,-0.24025594,9.81026
69606170976484,-0.15463892,-0.21510601,9.807985
69606190832889,-0.08894028,-0.17281522,9.804033
69606210687226,-0.1000497,-0.18213256,9.753321
69606230541563,-0.18886077,-0.19969581,9.723294
69606250395900,-0.17648748,-0.14422219,9.734484
69606270250237,-0.1507966,-0.116799384,9.742367
69606290117716,-0.07762745,-0.121858835,9.743442
69606309972309,-0.06130636,-0.18376167,9.813904
69606329827030,-0.09649846,-0.22305778,9.793881
69606349681623,-0.12186981,-0.22220002,9.774624
69606369536716,-0.14854486,-0.22781259,9.744287
69606389391437,-0.12774523,-0.23194842,9.701805
69606409246158,-0.09623656,-0.21775727,9.699648
69606429100879,-0.10813272,-0.18417169,9.701625
69606448955600,-0.14319071,-0.1024191,9.767241
69606468810321,-0.23038377,-0.06369606,9.843925
69606488669564,-0.22477923,-0.07600859,9.863399
69606508524413,-0.21383029,-0.12317011,9.85134
69606528379390,-0.27923128,-0.13622878,9.839223
69606548234239,-0.31188178,-0.08798808,9.780731
69606568089088,-0.23571306,0.008459573,9.836587
69606587939873,-0.1641153,-0.029430501,9.811463
69606607794699,-0.15183799,-0.12193974,9.746122
69606627649548,-0.24060926,-0.16757363,9.763584
69606647504397,-0.269017,-0.18609557,9.774428
69606667356284,-0.18150347,-0.17178564,9.816538
69606687211005,-0.14208782,-0.18328285,9.784847
69606707065726,-0.19236244,-0.20006865,9.759359
69606726920447,-0.20465751,-0.17293856,9.71848
69606746775168,-0.16925964,-0.09569012,9.717287
69606766629889,-0.1875833,-0.105818175,9.705411
69606786493028,-0.123178944,-0.19878495,9.80367
69606806347877,0.014969526,-0.33971444,9.95077
69606826202726,-0.017198797,-0.31999934,9.859451
69606846057703,-0.2547489,-0.14710301,9.78002
69606865912552,-0.3093114,-0.07292249,9.824612
69606885768237,-0.12477621,-0.13335739,9.804915
69606905623214,-0.08090618,-0.24342011,9.706468
69606925478191,-0.15040377,-0.30526283,9.679031
69606945333168,-0.16053383,-0.16552387,9.671122
69606965188145,-0.0976993,0.03137436,9.697022
69606985042994,-0.06690244,0.012086694,9.7273
69607004892051,-0.13075444,-0.14742942,9.721321
69607024746900,-0.13450368,-0.27326584,9.727196
69607044601749,-0.084167734,-0.2704232,9.803607
69607064456598,-0.06310993,-0.18056247,9.890588
69607084296553,-0.13835691,-0.039741073,9.836315
69607104151018,-0.13695744,-0.048231225,9.759186
69607124005611,-0.03512363,0.052255515,9.752501
69607143860204,-0.24837942,0.1595619,9.673455
69607163714669,-0.5579325,0.3278745,9.708659
69607183566306,-0.65273887,0.2702303,9.682123
69607203420771,0.027385645,0.1248023,9.74446
69607223275236,0.3130002,0.020784345,9.789351
69607243129701,0.10155192,-0.20635824,9.721572
69607262984166,-0.33280897,-0.31874627,9.726658
69607282838631,-0.35992166,-0.21645619,9.818132
69607302691988,-0.22172533,-0.031163156,9.869108
69607322546453,-0.22515039,-0.041407827,9.879173
69607342400790,-0.2462434,-0.20681909,9.918493
69607362255255,-0.21387507,-0.17393154,9.905419
69607382107398,-0.26470003,-0.018464273,9.825805
69607401961607,-0.16468507,0.063717276,9.766811
69607421815944,-0.074624546,0.071706355,9.740049
69607441670281,-0.21535403,-0.0011159682,9.594093
69607461524490,-0.36588973,-0.026613912,9.484994
69607481381313,-0.2924802,-0.050586563,9.499821
69607501235778,0.019695612,-0.06628205,9.763346
69607521090115,0.059345994,-0.04837026,9.936418
69607540944452,-0.25433913,-0.086354226,9.980795
69607560798766,-0.45863646,0.062080454,10.042614
69607580653103,-0.38928884,-0.12656905,10.133572
69607600502222,-0.26887292,-0.17262043,10.030379
69607620356559,-0.37328884,0.081795886,9.893442
69607640210768,-0.34731573,0.2236779,9.782778
69607660065105,-0.10677977,0.07288865,9.756155
69607679919968,-0.048101537,-0.09657096,9.71765
69607699774305,-0.20665403,-0.037351772,9.712822
69607719628514,-0.25371274,0.074325025,9.767105
69607739482723,-0.11460814,0.046931926,9.827921
69607759336932,-0.075529754,0.026470346,9.898717
69607779191141,-0.20493457,0.08102245,9.993854
69607799045518,-0.32581922,0.11313325,10.107778
69607818899727,-0.34787983,0.120012216,10.168127
69607838753936,-0.28282452,0.1144434,10.142356
69607858608145,-0.18466428,0.05950275,10.053903
69607878462354,-0.1684975,0.008196521,9.983157
69607898316295,-0.18887426,0.019894516,9.939206
69607918170632,-0.15605651,0.06416577,9.920113
69607938024841,-0.112703994,0.14382203,9.930872
69607957879050,-0.13076536,0.13341191,9.897323
69607977738105,-0.19976094,0.06832643,9.91773
69607997592442,-0.20240061,0.05709278,10.016327
69608017446779,-0.21401565,0.054358266,10.089765
69608037301094,-0.16963129,0.10208577,10.116812
69608057155303,-0.16727097,0.10848049,10.1543665
69608077009640,-0.26485896,0.1047865,10.226193
69608096858583,-0.34384173,0.077423014,10.16052
69608116712792,-0.27004394,0.05541578,10.099453
69608136567001,-0.12484534,0.092347465,10.05609
69608156421210,-0.042863693,0.100848794,10.030552
69608176275419,-0.12994142,0.09763988,10.104383
69608196127098,-0.26913044,0.093972184,10.085346
69608215981179,-0.2798941,0.10067137,10.105806
69608235835388,-0.16644375,0.1615591,10.148639
69608255689469,-0.105441846,0.15093504,10.186172
69608275554022,-0.1647198,0.08584886,10.209379
69608295408359,-0.34341213,0.093982935,10.222889
69608315262696,-0.345259,0.10781726,10.240658
69608335117033,-0.17105068,0.07610312,10.25634
69608354971242,-0.124569796,0.07979846,10.309299
69608374825579,-0.21078515,0.14968953,10.366659
69608394688468,-0.25331464,0.16392985,10.357286
69608414543061,-0.1976359,0.16939758,10.35591
69608434397654,-0.13867499,0.14705153,10.372657
69608454252247,-0.18705447,0.11896006,10.312668
69608474106840,-0.2492232,0.09821172,10.3117075
69608493966835,-0.2363603,0.086891256,10.332834
69608513821663,-0.18078844,0.09073629,10.298609
69608533676384,-0.14451191,0.09835569,10.244923
69608553531105,-0.13362564,0.09687549,10.273758
69608573385826,-0.240714,0.10879098,10.273819
69608593240547,-0.30264515,0.1045526,10.330203
69608613093462,-0.2638035,0.09332459,10.373446
69608632948183,-0.20194308,0.07056398,10.38851
69608652802904,-0.21106236,0.06368952,10.391203
69608672657625,-0.27122253,0.06906268,10.363067
69608692507330,-0.3071731,0.08493624,10.350002
69608712361923,-0.2791176,0.07702509,10.36944
69608732216388,-0.20783547,0.075632036,10.338878
69608752070981,-0.15709208,0.08306163,10.329452
69608771925574,-0.16503139,0.09821218,10.358291
69608791781361,-0.1700569,0.11080344,10.360636
69608811635954,-0.17947246,0.15601481,10.38879
69608831490547,-0.19006823,0.17920147,10.390798
69608851345140,-0.2094321,0.13624823,10.364672
69608871199733,-0.1992975,0.062519446,10.39824
69608891054326,-0.1718533,0.04357925,10.370395
69608910906407,-0.19024716,0.035173364,10.376112
69608930761000,-0.20492102,-0.011463483,10.463005
69608950615593,-0.21577129,0.031433504,10.493175
69608970470186,-0.21518914,0.1683657,10.346214
69608990324034,-0.21520929,0.25606278,10.294869
69609010178627,-0.1424974,0.18423294,10.379404
69609030033220,-0.101686135,0.05137489,10.402677
69609049887813,-0.13677607,0.014305543,10.352165
69609069742406,-0.14599839,0.098862186,10.370675
69609089594287,-0.1298385,0.13663454,10.388394
69609109448880,-0.11962925,0.113315165,10.36923
69609129303473,-0.13642576,0.1718625,10.457854
69609149157938,-0.19283503,0.20634645,10.356809
69609169012531,-0.24909386,0.22277606,10.371796
69609188867124,-0.23614933,0.14128622,10.356629
69609208715993,-0.17088108,0.10271826,10.439527
69609228570458,-0.17829263,0.07688397,10.438878
69609248424795,-0.18165125,0.08299941,10.375172
69609268279260,-0.17833263,0.10560634,10.391935
69609288135257,-0.25458536,0.14747828,10.356034
69609307989594,-0.29631624,0.17969851,10.34548
69609327844059,-0.23595843,0.15747388,10.355291
69609347698524,-0.11183903,0.09273327,10.35712
69609367552989,-0.108525455,0.07410329,10.398017
69609387407454,-0.2311622,0.12862083,10.388466
69609407255219,-0.34972963,0.12193528,10.329246
69609427109556,-0.46303016,0.077715114,10.236792
69609446963893,-0.31803516,0.04306511,10.46425
69609466818079,0.13999914,0.11373112,10.463448
69609486672416,-0.074579984,-0.18470459,10.17216
69609506523401,-0.31047523,-0.4783756,10.449868
69609526377610,-0.33847743,-0.3428049,10.557114
69609546231819,-0.20322537,0.15278018,10.546487
69609566086028,0.14932434,0.27686477,10.469488
69609585936189,0.19972385,0.3204166,10.425294
69609605790270,0.010758811,0.34292734,10.373065
69609625644479,-0.008746298,0.109436005,10.40549
69609645498560,-0.032616634,-0.23255771,10.335228
69609665352769,0.11728081,-0.2999669,10.360311
69609685206850,-0.06698088,-0.11135561,10.376931
69609705054689,-0.3214494,0.28477022,10.439588
69609724908642,-0.36664006,0.29101133,10.255323
69609744762595,-0.16213965,-0.08194627,10.284153
69609764616548,-0.0023319363,3.8559432E-4,10.375039
69609784470373,-0.1439081,0.08380422,10.306434
69609804332354,-0.26504976,0.08652079,10.523606
69609824186307,-0.21022889,0.2026558,10.530283
69609844040388,-0.43763012,0.045555376,10.380785
69609863894341,-0.5126094,-0.2057635,10.502667
69609883750720,-0.43486938,-0.29980856,10.312003
69609903604801,-0.24743491,0.077709,10.326045
69609923458882,0.08105336,0.1466335,10.374267
69609943313070,-0.27702293,0.2597053,10.531887
69609963167151,-0.4083275,0.4138482,10.102474
69609983021232,-0.4577864,-0.037213758,10.343802
69610002883085,-0.34194055,0.039308615,10.313741
69610022737294,-0.21338609,-0.27055702,10.326625
69610042591503,-0.27739245,0.035866436,10.350888
69610062445840,-0.36920452,-0.008292686,10.00279
69610082300049,-0.29656497,-0.067101195,10.133779
69610102158764,-0.04914337,0.1947504,10.2736635
69610122013101,0.004010336,0.2834357,10.24897
69610141867566,-0.123281784,0.2315279,10.508423
69610161721903,0.109983005,0.25046945,10.580295
69610181576240,0.110177174,-0.3027301,9.867811
69610201430705,-0.039970204,-0.5347966,9.802702
69610221285962,-0.3409206,-0.28595248,9.989835
69610241140299,-0.4592958,0.3899688,10.364854
69610260994764,-0.04476034,1.417523,10.398808
69610280849101,0.01272507,1.0882792,10.059492
69610300703566,0.113125265,0.8325022,10.084771
69610320568837,-0.15754834,1.0207059,10.027764
69610340423430,-0.6439646,1.3730048,10.415344
69610360278023,-1.15805,1.9936522,11.102699
69610380132744,-1.2516342,2.9529772,11.319616
69610399987337,-1.3217682,2.1282248,11.012224
69610419845219,-0.7650007,-0.4912104,10.850499
69610439699940,-0.43703365,-7.644567,4.089393
69610459554661,-2.058843,-15.823106,4.5573845
69610479409382,-4.937765,-2.0479186,13.80093
69610499264103,0.66700435,8.532575,15.152447
69610519118610,10.8709955,6.1808443,7.140261
69610538973331,6.4748383,-2.4701836,4.855825
69610558828052,2.4197688,-1.2089951,12.498684
69610578682773,2.677713,-0.9742437,12.332539
69610598537494,1.8254399,-0.41031626,10.607811
69610618388217,2.7639854,0.7821792,10.148566
69610638242810,4.0778284,0.18553706,8.607033
69610658097531,6.6465397,0.54691917,8.753019
69610677952252,6.5770307,2.2438655,8.865024
69610697806973,3.1610548,1.806259,9.359964
69610717662900,1.5619129,1.1443161,10.750924
69610737517749,1.0311224,2.9446096,10.740451
69610757372470,-0.52837497,4.018772,12.221391
69610777227191,-4.925736,1.9357752,11.991583
69610797081912,-9.58479,-1.134144,11.439244
69610816940773,0.12503453,-2.8710124,8.666698
69610836795622,0.43485546,-3.0535524,7.3497477
69610856650471,-3.8516626,-4.1791387,7.9932957
69610876505320,-4.2551856,-3.9226894,7.498193
69610896360147,-1.0841869,1.7373276,8.503635
69610916211424,1.0098763,1.1598504,8.610353
69610936066273,2.026909,1.0531791,10.088944
69610955921122,-0.5770088,1.0525882,11.409622
69610975775971,-2.5202374,-0.683105,10.708517
69610995630692,-0.7102724,-0.90138936,10.208932
69611015475757,4.789314,-2.6597447,7.179568
69611035330350,3.3123538,1.8417091,9.683775
69611055184943,1.423624,3.343366,13.096136
69611075039536,1.9854931,1.5598584,12.694416
69611094894129,1.6282897,0.42557654,13.332759
69611114736732,-0.49371576,-0.39497206,14.378607
69611134591069,-0.83884025,-0.19849567,14.85834
69611154445534,-0.25534952,-0.9656046,13.306607
69611174299871,-0.82947284,-0.9328394,12.751993
69611194154208,-1.6295657,0.78203446,13.853426
69611213998219,-2.01262,-1.6622792,11.914054
69611233852300,-2.352445,-2.5461473,9.408249
69611253706381,-2.7018042,-0.79108906,9.028595
69611273560462,-2.6754684,-0.4884343,7.1961102
69611293414543,-3.572383,2.771432,8.8361
69611313265852,-1.6747702,2.343405,7.707712
69611333119805,-1.0891849,-0.017212903,6.5678396
69611352973758,-5.375394,0.61103594,7.2195725
69611372827690,4.9391556,-2.5570538,9.276871
69611392681643,0.2318287,0.49445912,10.808573
69611412535248,-3.0970995,-0.82380545,10.520319
69611432389201,0.42482182,-3.268479,10.595174
69611452243154,1.2656678,-2.2202656,10.416034
69611472097107,0.5260467,-4.382472,10.033615
69611491951060,0.16008486,-3.3904757,10.736419
69611511804281,0.3089465,-1.6444724,11.366688
69611531658234,0.040312458,-1.6023633,11.799334
69611551512059,-0.802377,-1.1896375,11.645278
69611571366012,-1.4145186,-0.6586709,11.187542
69611591219837,-0.9000597,-0.37057766,10.369472
69611611074912,-1.1747721,-1.1903586,10.20378
69611630928865,-2.0480847,-0.5090357,10.488415
69611650782690,-1.4993217,-0.70257616,10.754075
69611670636643,-0.4446481,-1.3769917,9.582913
69611690490468,0.14064534,-1.0455097,8.386756
69611710352863,-0.46567056,-0.21698107,7.7744346
69611730206816,-0.7547237,0.37821096,6.9428086
69611750060897,0.26415876,0.14099978,6.23606
69611769914850,-0.61081356,0.3113423,7.088019
69611789768931,-1.4439745,0.27986404,8.295864
69611809627528,-1.2146382,-0.30707863,8.540069
69611829481609,-0.65953195,2.14464,13.851452
69611849335670,10.236991,5.4645376,5.524301
69611869189751,1.5004984,-0.14559646,4.508075
69611889043832,-0.7642035,1.3046142,8.511928
69611908908581,-1.4399278,1.1816965,10.812085
69611928762918,-0.599579,1.6730015,9.0179615
69611948617255,-2.3345504,0.2890827,7.262399
69611968471592,-2.3397343,1.0197862,11.39447
69611988325929,-3.653968,0.9560597,9.918148
69612008185502,-3.1319063,0.81499827,9.213155
69612028039967,-3.3672764,0.12334916,9.507133
69612047894432,-1.9478016,-0.9543551,10.094643
69612067748897,-0.4626398,-1.2829672,10.024484
69612087603362,0.24553667,-0.31016695,9.530883
69612107459601,2.6271234,-0.25749597,8.053384
69612127314194,10.86574,-2.4631364,6.372809
69612147168659,4.6326566,-1.6886482,10.156724
69612167023252,-0.5698049,-0.7218017,13.358255
69612186877845,-0.7882361,0.28943613,10.293826
69612206732310,0.87215084,1.470111,6.35863
69612226584263,-1.8045801,0.94919586,9.03896
69612246438728,-3.535895,0.482201,11.223467
69612266293321,-4.0206523,1.6424508,10.274387
69612286147786,-1.1104574,0.16018727,9.201749
69612306002251,4.7894993,-2.7792213,9.831315
69612325866287,1.9744008,4.1928477,8.880112
69612345721008,0.3656582,2.0907562,9.496387
69612365575729,1.0201535,2.1153936,8.370551
69612385430450,1.6244872,1.7214004,8.692528
69612405285171,2.6208947,1.5504924,10.022651
69612425144938,1.0254202,1.0745183,8.523214
69612444999915,0.29559147,0.8314631,7.512944
69612464854892,0.55462825,0.38658744,8.6504545
69612484709741,1.1537272,0.66163015,11.309184
69612504564718,2.8878858,0.74006736,11.86584
69612524421151,2.9727647,-0.21059324,10.084966
69612544276128,1.8134059,-1.8893636,8.941817
69612564131233,2.8985345,-1.9674062,9.787457
69612583986210,4.1242304,-1.3696057,10.874221
69612603841187,1.7623924,1.200366,8.999716
69612623693470,-2.2002249,4.0675044,5.4443297
69612643548447,-1.2875676,1.8583082,8.404037
69612663403424,-1.984127,1.6625499,9.061436
69612683258401,-1.477345,2.4185433,9.152596
69612703113378,-1.1616336,1.6175058,9.55764
69612722966813,-0.74636674,0.61535865,9.646848
69612742821662,1.0150281,0.50571203,12.159231
69612762676639,0.74946994,0.080190405,11.8674965
69612782531488,0.6620879,-1.2043542,11.214235
69612802386444,1.0368319,-1.5467817,11.347626
69612822242505,1.0210601,-0.8922227,10.904503
69612842097482,0.7997044,-0.08476823,10.304523
69612861952331,0.6420946,0.4332321,10.077798
69612881807180,0.30854064,0.628569,9.686962
69612901662157,-0.17569536,0.38228554,9.144624
69612921505719,0.042297807,0.55984896,9.562725
69612941360439,0.66788334,0.0400683,10.487061
69612961215159,0.026808368,0.060617518,9.810208
69612981069879,-0.78342533,0.90965915,8.292143
69613000924599,-0.98863655,1.3532125,8.063093
69613020774437,-0.8806815,0.7643478,8.560616
69613040629029,-0.59484047,0.3231047,8.663763
69613060483493,-0.020667387,0.4017855,8.975915
69613080338085,0.18388984,-0.078080475,9.77212
69613100192677,0.39276165,-0.6190272,10.1807785
69613120034518,0.11558174,-1.0351663,10.180016
69613139888726,-0.6039153,-1.4112642,11.203066
69613159743062,0.80298066,-0.005819573,11.482065
69613179597398,0.930923,0.66508704,11.59631
69613199451606,0.2206243,0.43698794,11.146739
69613219298250,-0.65384406,-0.49506545,10.273296
69613239152330,0.038776655,-0.48951188,10.855962
69613259006410,0.73056173,-0.5290743,13.017046
69613278860491,-0.14460538,0.41515994,11.609383
69613298714570,-0.66388315,1.0914664,8.654068
69613318570314,-0.80950415,1.4829328,7.956215
69613338424394,-0.7503743,0.46346447,7.8630548
69613358278474,0.25695747,-1.082474,8.644161
69613378132554,0.1625253,-1.9683521,8.953371
69613397986634,0.7367887,-0.6924943,9.582429
69613417839233,1.0766683,1.2860321,11.673311
69613437693313,0.8744332,1.2922529,12.826511
69613457547266,0.7461888,-0.2353729,10.050378
69613477401347,0.3278738,-0.32847157,9.558385
69613497255425,0.22827797,0.14644529,9.179113
69613517113205,-0.4714213,-0.45204997,7.0850234
69613536967286,-0.25550592,-0.13080391,9.232925
69613556821493,0.9950513,-0.5472103,9.862346
69613576675573,1.6435865,-0.5887655,9.97913
69613596529653,-0.94020057,-1.8034629,7.776121
69613616386087,-1.564208,-2.4136436,4.6071734
69613636240295,-0.9349589,2.277316,3.7739568
69613656094376,0.23217253,4.5981655,3.6511948
69613675948583,-0.3975108,2.6474664,3.7995245
69613695804755,1.210708,0.31541494,7.999974
69613715658964,3.792418,-0.41462332,16.025154
69613735513043,0.9786822,2.5124633,14.904769
69613755367251,0.10752122,0.5909535,15.381173
69613775221460,0.37619492,-3.5824893,12.429276
69613795075539,0.03322604,-1.2265214,11.191822
69613814929276,0.923446,2.3703077,13.340919
69613834783357,1.7532398,1.7946973,13.645334
69613854637436,0.054201197,1.839933,11.203449
69613874491516,-1.3390384,1.1710061,9.632329
69613894345597,-1.3331878,-0.3186887,10.080799
69613914203882,-0.374747,-0.3964176,11.048383
69613934058090,-0.087415576,-0.268653,11.012117
69613953912299,-0.2616132,-0.038607303,9.974046
69613973766506,-0.55550593,0.13801168,9.169962
69613993620714,-0.5597867,0.4096399,8.440381
69614013474923,-0.27610305,0.6828309,8.348456
69614033334776,0.3127922,-0.09969109,10.047577
69614053189112,0.23969258,0.11822686,10.784828
69614073043449,-0.43427435,0.41185522,9.803865
69614092897784,-0.8844869,0.5778365,8.905141
69614112756728,-0.5604889,0.5412779,8.933152
69614132611193,-0.09614219,0.3654011,9.698225
69614152465656,-0.06306876,0.48328826,9.965868
69614172320120,-0.32634848,0.47685313,9.990668
69614192174585,-0.26194483,0.39065245,9.945322
69614212034323,-0.09407424,0.32492447,9.886582
69614231888915,-0.2675325,0.4567557,9.628812
69614251743380,-0.58349746,0.6745733,9.397666
69614271597971,-0.46002865,0.5601034,9.623842
69614291452563,-0.1829979,0.24445418,9.516217
69614311307156,0.09294479,0.035191804,9.482073
69614331162182,0.21577124,0.039453186,9.376539
69614351016902,-0.23827633,0.4404263,9.092068
69614370871495,-0.54018086,0.76566446,9.509531
69614390726214,-0.45907575,0.92016524,10.201784
69614410589499,-0.38555512,0.9245047,10.462843
69614430444348,0.67448324,-0.4111699,9.298821
69614450299323,0.4302945,-0.38806638,9.281418
69614470154171,0.10274356,0.113970675,9.479682
69614490009148,-0.07778261,0.21410163,9.857113
69614509869866,-0.047799323,0.3335505,9.914274
69614529724714,-0.10622508,0.21181336,9.630178
69614549579563,-0.019389665,-0.11005236,9.600758
69614569434410,-0.039157983,-0.05969293,9.603742
69614589289386,-0.16569388,0.268114,9.604762
69614609144235,-0.40695712,0.42533046,9.351056
69614628996601,-0.4879166,0.28405514,9.227343
69614648851577,-0.13298012,0.19902009,10.146716
69614668706426,0.3853403,-0.04851398,10.609044
69614688561273,0.18547589,0.08485111,10.030582
69614708416871,-0.23480587,0.19831182,9.304815
69614728271592,-0.2533177,0.18527263,9.184666
69614748126439,0.17905045,0.15328637,9.720383
69614767981287,0.21996242,0.33571342,10.086677
69614787836136,-0.10563484,0.4093837,9.29546
69614807690983,-0.40737298,0.3528541,9.094094
69614827541213,-0.28370106,0.6004433,9.660196
69614847395934,-0.20410106,0.41760677,9.346882
69614867250653,-0.5075041,-0.091435604,8.799873
69614887105373,-0.34594378,0.2891016,9.210646
69614906960094,-0.27317896,0.60270554,10.038611
69614926820750,0.20618935,0.3951998,10.824623
