UPTIMENANO,Ax,Ay,Az
351544985029012,-0.3813912,1.0122656,9.276861
351545004885013,-1.5007707,0.81693274,11.747239
351545024740884,-1.8315438,0.7233183,12.660819
351545044589856,-0.49319986,-0.32489258,9.686477
351545064445601,0.564164,-0.97120774,7.764827
351545084301472,-0.09651718,-0.07773421,8.734746
351545104157344,-0.74957323,0.6231404,9.966097
351545124013089,-1.0996603,0.34493107,9.5262985
351545143862779,-1.4203049,0.28355014,8.577043
351545163718523,-1.1837138,-0.45922223,10.461473
351545183574140,-1.5332012,-1.0655541,11.095348
351545203429755,-1.065381,-0.75574446,10.639134
351545223285499,-0.74559563,-0.42683032,10.137977
351545243141116,-0.6311078,0.10138987,9.924351
351545262991209,-1.0092875,0.27373642,9.8394375
351545282846697,-1.0379201,0.27269387,9.652326
351545302702314,-0.32489157,0.0635515,9.550504
351545322557801,0.3216448,0.055519983,9.279188
351545342411893,-0.1532967,1.1130468,9.780704
351545362267382,-1.1296939,1.069888,10.649116
351545382122869,-1.2924992,-0.60192937,10.1261635
351545401978357,-0.7607579,-1.1864653,9.813624
351545421833846,-0.3233646,-0.5084774,9.444504
351545441689333,-0.43876117,0.19914535,9.2116995
351545461544510,-0.5237987,-0.33055145,9.474466
351545481399871,-0.90710235,-0.7722916,9.747805
351545501255358,-0.9297413,-0.68309593,9.723666
351545521110718,-0.8012696,-1.1280137,9.874156
351545540966207,-0.46624655,-0.5251785,9.446271
351545560823754,-0.05280198,-0.099117056,8.380612
351545580679242,0.14904869,0.014446353,8.667463
351545600534603,0.08807369,0.27313116,9.584561
351545620390090,-1.1411422,-0.009974469,10.17941
351545640248473,-0.43943685,0.73870844,9.880225
351545660103962,-0.28584585,0.5454114,9.323695
351545679959321,-0.6689179,-0.10762403,9.517429
351545699814809,0.3980598,0.031474642,8.8436985
351545719670298,-0.14801653,0.3164382,9.079838
351545739525657,-1.1284354,0.53831464,10.399079
351545759380522,-0.939929,0.811661,10.692061
351545779235883,-0.9677805,0.7189781,10.476173
351545799091370,-0.6999678,0.33398077,10.166801
351545818946730,-1.0894196,1.137601,10.1984825
351545838802219,-1.4196185,1.5536426,10.876766
351545858658293,-0.71045774,0.63756067,10.881852
351545878513653,-0.34415188,-0.01802792,10.575778
351545898369014,-0.26971188,0.6198588,10.1847105
351545918224501,-0.15054922,0.58332074,9.653681
351545938086524,-0.13893184,0.06858727,9.309278
351545957942141,0.00912187,-0.85352325,8.519594
351545977797756,-0.3686152,-0.037107993,8.9153385
351545997653244,-0.77404755,0.5341512,9.394535
351546017508861,-1.0256281,-0.021058239,9.4755125
351546037364476,-1.1073722,0.6252931,9.974383
351546057222334,-1.2461374,1.0642864,10.307244
351546077078079,-0.1909412,-0.18715537,9.398767
351546096933694,0.2054443,-0.29485986,9.171676
351546116789438,-0.31149533,0.22685015,9.604329
351546136645055,-1.0024686,0.67988145,9.960145
351546156509459,-1.7471577,1.304488,11.009488
351546176365331,-1.4063687,0.62801087,10.8863325
351546196221204,-1.1036971,0.20758596,10.323506
351546216077075,-0.55191755,-0.58560246,11.265468
351546235930332,-1.0808505,-0.94666564,11.537917
351546255786205,-1.0347233,0.3135265,10.99273
351546275642076,-0.7126967,0.622213,9.742803
351546295497948,-0.5801521,1.0138497,8.850962
351546315353949,0.46596557,1.3625258,8.0298815
351546335209820,0.70685786,0.092469834,3.9406145
351546355062516,-0.5011297,-2.383844,3.5066187
351546374918389,-0.55250436,-4.4174986,4.246429
351546394774260,-1.6883283,-5.090046,7.990733
351546414630004,-3.9346902,0.0697859,10.1039095
351546434485877,-1.069545,2.667294,8.719087
351546454344966,1.4231428,-0.7100627,8.502113
351546474200838,0.8687321,0.23603463,9.334061
351546494056711,-1.9492456,0.51763326,12.117078
351546513912710,-3.8026123,0.040195435,12.284499
351546533768582,-5.7723837,-2.006364,9.491335
351546553624583,-6.5694876,-3.4292388,5.8717875
351546573477266,-5.902531,-3.4307537,3.7140675
351546593333138,-5.31216,-1.0094138,4.8515825
351546613189011,-4.6795816,1.4328843,7.684076
351546633044882,-3.5806568,1.3644652,9.040656
351546652901979,-4.0999227,1.0507919,8.509068
351546672757852,-5.9223275,2.5818634,9.705565
351546692613723,-3.1103742,3.854376,16.481312
351546712469595,1.9966246,3.7621365,18.717583
351546732325468,3.2297635,2.7550569,14.96355
351546752182008,7.110432,7.066206,0.7265748
351546772037880,-3.7891889,0.62980896,6.6052885
351546791893625,-1.0766677,-1.4732177,10.248377
351546811749496,-1.5170753,-5.891814,6.759862
351546831605368,-3.8882573,-6.8961616,3.529908
351546851461241,-7.660508,-1.425367,5.2957964
351546871315399,-0.5562005,-5.743232,11.265436
351546891171271,-2.4796412,-2.4904954,11.268401
351546911027016,-1.4899509,-3.412886,9.138127
351546930882759,0.5542413,-2.5760624,8.099559
351546950741766,2.9697685,-2.2952433,5.847977
351546970597639,2.6005845,-4.343834,5.9019976
351546990455540,1.1330763,-1.5429143,10.232635
351547010311412,1.3295065,-2.7582188,14.047264
351547030167285,0.47025755,-7.5408897,12.489025
351547050022570,-0.15679407,-5.582466,15.343936
351547069878314,-0.51037234,-1.3953737,18.248068
351547089734187,-2.1628249,-1.2915709,19.930399
351547109590058,-5.996608,-0.8002797,18.997793
351547129445930,-5.7889934,0.3290686,16.433813
351547149301675,-4.981991,1.643024,13.706465
351547169160679,-4.445818,7.5999913,10.922431
351547189016551,-0.921237,6.7505846,8.296831
351547208872552,-1.9540929,5.210859,7.2108355
351547228728423,-4.3527455,4.3060718,7.592327
351547248587007,-6.43221,0.8467416,7.574175
351547268443008,-5.176273,3.051692,3.1336188
351547288299007,-1.9641049,2.6301472,2.2493918
351547308155007,-0.04344177,1.8017318,4.5599413
351547328011008,0.38803127,2.292573,6.0682774
351547347867007,0.15029156,3.513766,7.094318
351547367713785,-1.2221305,1.8234701,9.220609
351547387569658,-0.024760177,-2.1859336,9.937596
351547407425401,0.758608,-2.657723,10.901024
351547427281273,4.880083,-4.1463385,14.620303
351547447137018,1.6447275,-6.2757044,17.173862
351547466999362,1.6893836,-2.350092,11.173035
351547486855362,4.478098,-0.0062368116,13.433992
351547506711235,4.77822,2.3180432,16.577345
351547526567234,4.7440825,1.6088932,15.715748
351547546420880,4.829463,0.75936276,13.601949
351547566276753,4.339908,0.03065658,10.065207
351547586132624,5.484005,-2.7529929,9.411646
351547605988624,4.0956254,-0.60562223,7.352282
351547625844497,0.87872297,1.7909421,5.4874816
351547645700368,-3.685058,-1.2432704,8.179367
351547665560403,-5.134708,-1.8643075,8.385532
351547685416404,-4.0069857,0.3381111,9.04159
351547705272403,1.3735933,1.6546817,11.169799
351547725128403,3.1087303,-0.7735541,7.343208
351547744984276,-2.7403998,-1.67083,3.6699321
351547764838550,-1.6154437,-0.74827486,-1.4076275
351547784694550,-1.9571855,-4.549094,3.465828
351547804550551,-4.459323,-1.2072531,7.350233
351547824406550,3.517418,1.523789,7.3588724
351547844262495,3.1132355,-0.7414554,5.7397823
351547864118496,2.0964751,-1.3247589,9.599226
351547883974495,1.5664854,0.044977758,16.03798
351547903830495,1.2663271,-0.9956096,18.872637
351547923686368,-0.0030644226,-0.9562173,16.632826
351547943542367,0.33937877,-0.24046412,11.637529
351547963397136,0.7797829,-0.00897038,9.588619
351547983253009,0.71162355,0.04293082,8.790903
351548003108880,0.7229345,-0.20227554,8.476222
351548022964880,0.6022171,-0.11577538,8.505822
351548042820753,0.8317348,0.14925912,9.0851965
351548062677796,0.8045478,-0.18548717,10.548681
351548082533668,1.029336,-0.37813032,11.719179
351548102389669,1.4084135,-0.23071063,12.673747
351548122245540,1.2948986,-0.19757184,11.734573
351548142099201,0.86024415,-0.09322011,9.929253
351548161955074,0.69825256,0.19779068,10.10938
351548181810945,0.34683466,-0.40607268,10.986195
351548201666817,0.53553134,-0.6601568,10.810587
351548221522562,1.120065,-0.08674944,9.649886
351548241378433,0.2846227,0.29894593,9.041919
351548261231977,-0.8775177,0.68187255,6.770073
351548281087850,0.31738773,-1.4400303,6.8211465
351548300943593,-0.0024680723,-1.5382805,7.737008
351548320799465,-0.13206661,-0.30164176,6.5603743
351548340655338,0.2711454,0.784948,7.6731715
351548360516682,1.0646412,-2.837039E-4,9.024075
351548380372554,2.254687,-0.22064976,10.021456
351548400228555,2.9470613,0.2958473,10.307522
351548420084554,2.166577,0.6464067,11.537747
351548439940426,1.9733043,0.9681395,12.131378
351548459796427,2.2337372,1.4432276,10.931521
351548479654931,2.1706903,1.4354792,9.497727
351548499510931,2.4587789,1.4980328,9.845675
351548519366804,2.5877745,0.22039945,17.050411
351548539222803,0.16982442,-1.7321882,17.757925
351548559083064,-2.05253,-4.4732804,8.467148
351548578939193,-0.5461935,-2.6199417,12.120997
351548598795320,-0.25178277,-1.2601528,13.235799
351548618651320,0.24493243,-0.3570662,12.39746
351548638507449,-0.27592683,-0.65672904,11.723291
351548658364917,-0.24480842,2.3964891,12.480851
351548678221045,0.40148056,-3.3144312,11.175097
351548698077174,0.21482684,-0.4998929,11.135301
351548717933301,0.111346036,2.870275,12.419925
351548737789429,-1.0680737,3.1972878,7.4993777
351548757645558,-0.2337218,2.8876317,2.2892208
351548777494968,1.1910074,-1.5122008,7.445307
351548797350968,-0.49693155,-4.3026323,12.304003
351548817206969,-1.3457563,-3.4429908,11.009518
351548837063096,-1.4358774,-2.153399,7.850923
351548856926955,-0.46696383,-1.8260516,5.5572553
351548876783084,4.3398952,-1.8452246,7.410583
351548896639339,9.181142,-1.7000743,13.562404
351548916495467,4.9792814,0.442112,13.730628
351548936351724,1.3585598,3.5283866,10.922011
351548956202023,1.2903012,6.030267,11.878093
351548976058023,-0.4999292,6.8737774,11.91792
351548995914024,-2.2071166,3.956239,10.423739
351549015770151,-0.55741364,1.2724861,10.112348
351549035628530,0.59915686,0.20036267,10.448707
351549055484531,0.8586985,-0.8463033,10.560584
351549075334264,0.7620091,-1.0921348,10.324571
351549095190264,0.20137674,-0.92507374,10.411619
351549115046137,-0.20187289,-0.12942398,10.531679
351549134902136,0.2866957,0.13695753,10.252007
351549154757258,1.0186044,-0.0863284,10.070785
351549174613259,1.2345414,-0.7919229,9.946925
351549194469130,1.0787896,-1.2124798,10.156347
351549214325002,0.57420355,-1.10779,10.3617525
351549234180875,0.079298414,-0.7793414,10.3604145
351549254036874,-0.044181,-0.385268,10.715331
351549273888527,-0.102043554,-0.30440482,10.48373
351549293744400,-0.21551543,-0.16890995,10.444836
351549313600271,-0.1628592,0.35612106,10.586698
351549333456144,0.10951006,0.6686743,10.290425
351549353312017,0.19591825,0.69668007,10.350619
351549373164372,0.30145812,0.20839809,10.420387
351549393020117,0.4500374,-0.456813,10.285124
351549412875862,0.6074775,-0.8180078,10.410326
351549432731607,0.62828815,-0.89165574,10.360495
351549452595354,0.4092796,-0.5903166,10.32751
351549472451355,0.10607608,-0.455587,10.354348
351549492307228,-0.06394449,-0.34983686,10.289818
351549512163101,-0.12538742,-0.40872508,10.357868
351549532018974,-0.14854454,-0.6449586,10.368466
351549551874847,-0.021423034,-0.7417955,10.363114
351549571729830,0.15769883,-0.68336666,10.474847
351549591585703,0.2786887,-0.5670376,10.454975
351549611441576,0.47793305,-0.48491386,10.389757
351549631297449,0.7476019,-0.32767808,10.526801
351549651153322,0.8596001,-0.025909023,10.534952
351549671008609,0.8346244,0.18975434,10.392034
351549690864482,0.85552,0.19514097,10.341806
351549710720355,0.767441,0.017178861,10.365791
351549730576100,0.54623604,-0.07713496,10.426846
351549750428339,0.4048895,-0.13401121,10.560539
351549770284084,0.3225465,-0.1237855,10.468908
351549790139809,0.39651114,0.10712159,10.405673
351549809995553,0.5761842,0.10687237,10.353973
351549829851298,0.6058681,-0.13697308,10.239127
351549849707041,0.50440115,-0.40399575,10.285685
351549869562163,0.35126916,-0.54330593,10.459423
351549889417908,0.20856123,-0.3786279,10.56001
351549909273651,0.1549605,-0.16645215,10.43173
351549929129267,0.17214975,-0.14579889,10.365615
351549948985012,0.24409394,-0.25116485,10.4428215
351549968845475,0.37967697,-0.39328808,10.416622
351549988701347,0.531886,-0.2884187,10.394037
351550008557092,0.5499538,-0.32920918,10.404203
351550028412963,0.3549401,-0.40470782,10.342774
351550048268707,0.1586485,-0.42689654,10.396106
351550068124580,-0.05113239,-0.4092012,10.472117
351550087978801,0.013009333,-0.40680704,10.457208
351550107834546,0.30807304,-0.40214857,10.334635
351550127690419,0.5233995,-0.37878227,10.299456
351550147546159,0.57970744,-0.3461629,10.363799
351550167409511,0.5000833,-0.43026716,10.373765
351550187265512,0.35299945,-0.5259024,10.354156
351550207121511,0.17405523,-0.477751,10.387149
351550226977511,0.17344129,-0.4137593,10.448804
351550246833384,0.31652063,-0.35935956,10.449814
351550266693612,0.27101108,-0.28610587,10.349135
351550286549740,0.24837096,-0.28683844,10.323682
351550306405869,0.35493037,-0.35173833,10.330932
351550326261868,0.40579876,-0.36935872,10.400181
351550346117996,0.39251417,-0.3748318,10.34479
351550365974125,0.39620566,-0.42023385,10.202832
351550385815660,0.33097863,-0.46023485,10.199241
351550405671532,0.24911545,-0.42655754,10.229599
351550425527277,0.3302645,-0.40061778,10.2606125
351550445383020,0.3933131,-0.33800626,10.211317
351550465249127,0.43709168,-0.24219766,10.206761
351550485105128,0.4711885,-0.27808022,10.228029
351550504961129,0.39250034,-0.3447659,10.264058
351550524817255,0.35755995,-0.31519687,10.254258
351550544673256,0.3522857,-0.29886916,10.257357
351550564530698,0.35332692,-0.3101943,10.178795
351550584386698,0.34386918,-0.35552362,10.141649
351550604242827,0.29265955,-0.41366413,10.124128
351550624098954,0.24869415,-0.47490138,10.15963
351550643955082,0.2561116,-0.37849027,10.10347
351550663811083,0.3360457,-0.33262104,10.107105
351550683663086,0.40203938,-0.2993079,10.121282
351550703519086,0.4440469,-0.3621085,10.129819
351550723375087,0.35684523,-0.40047774,10.123628
351550743230958,0.28095198,-0.26647368,10.078586
351550763091221,0.3202817,-0.15316595,10.0762825
351550782947350,0.4274642,-0.18591982,10.075173
351550802803349,0.44867003,-0.2359995,10.063353
351550822659477,0.38017878,-0.27140236,9.981966
351550842515478,0.36981454,-0.27705586,9.97996
351550862371605,0.3755012,-0.23680955,10.034787
351550882215505,0.44190684,-0.18377721,10.098008
351550902071250,0.4524504,-0.14081074,10.074939
351550921927121,0.40238535,-0.19841263,10.023719
351550941782865,0.45514652,-0.20815343,9.981187
351550961638610,0.45863456,-0.14721867,9.976067
351550981493866,0.45006844,-0.16057271,9.9442215
351551001349610,0.46194386,-0.19448088,9.973746
351551021205355,0.3564534,-0.2574661,10.081585
351551041061098,0.39849716,-0.3428889,10.070831
351551060914294,0.35360357,-0.3116368,9.933143
351551080770039,0.25650948,-0.2948542,9.686858
351551100625782,0.38906983,-0.28248602,9.727201
351551120481654,0.4424628,-0.31028134,9.765584
351551140337399,0.4113487,-0.4011687,9.707303
351551160193142,0.3911473,-0.27590036,9.642552
351551180053075,0.42358163,-0.20132104,9.657877
351551199908948,0.52058417,-0.35712838,9.832771
351551219764821,0.4045496,-0.3970256,9.990284
351551239620694,0.21790741,-0.2769129,10.013369
351551259476439,0.4427,-0.29276896,9.87604
351551279324540,0.5304911,-0.27304965,9.894833
351551299180285,0.36487737,-0.28151786,9.939953
351551319036030,0.32993683,-0.21006934,9.914356
351551338891647,0.3823643,-0.06180128,9.853278
351551358742020,0.43417144,-0.09286338,9.778767
351551378597637,0.4605426,-0.16062945,9.815806
351551398453126,0.4964252,-0.13854891,9.825546
351551418308743,0.5322767,-0.17017886,9.799918
351551438164232,0.47439203,-0.21091786,9.7486315
351551458019849,0.35280535,-0.23660193,9.746549
351551477880836,0.28358817,-0.252267,9.791483
351551497736453,0.39581287,-0.37213576,9.802313
351551517592070,0.43284383,-0.40256923,9.786706
351551537447687,0.42947602,-0.36843854,9.804779
351551557303432,0.40135425,-0.3249335,9.83037
351551577155785,0.3814884,-0.28538275,9.846875
351551597011402,0.41381425,-0.2552746,9.830317
351551616867019,0.47843105,-0.27366808,9.829486
351551636722486,0.44502932,-0.2839256,9.855593
351551656578103,0.4254463,-0.27439967,9.807673
351551676433720,0.42651007,-0.26276776,9.770167
351551696290731,0.43759468,-0.25133976,9.748637
351551716146348,0.4711806,-0.26508424,9.742117
351551736001837,0.4439606,-0.23500828,9.729413
351551755857454,0.40410492,-0.19780195,9.725446
351551775709548,0.38012233,-0.2358887,9.734976
351551795565165,0.35798723,-0.26134586,9.738842
351551815420652,0.33482993,-0.23264432,9.749183
351551835276140,0.36521637,-0.27222365,9.750101
351551855131757,0.3800128,-0.25034884,9.8202305
351551874990365,0.35418737,-0.24074772,9.856826
351551894845981,0.37150046,-0.22061174,9.868881
351551914701598,0.44577974,-0.22696114,9.871394
351551934557213,0.43308383,-0.22393472,9.848847
351551954412829,0.37238452,-0.20811363,9.85905
351551974268446,0.35515147,-0.17651902,9.830791
351551994124185,0.41176683,-0.19655006,9.807446
351552013979673,0.4261531,-0.19841623,9.802485
351552033835162,0.43314132,-0.2581734,9.789822
351552053690649,0.3825064,-0.2594737,9.785087
351552073551983,0.30929092,-0.23725183,9.769823
351552093407728,0.30832765,-0.22734569,9.748844
351552113263343,0.389767,-0.22925763,9.762818
351552133118960,0.46556497,-0.24020857,9.754354
351552152974705,0.44654474,-0.22090997,9.754231
351552172835930,0.3940865,-0.2010576,9.788735
351552192691675,0.34414554,-0.22881743,9.79827
351552212547420,0.34036586,-0.24413826,9.844562
351552232403293,0.41027346,-0.22729515,9.884964
351552252259038,0.46424326,-0.21717598,9.842163
351552272114911,0.41406778,-0.22623804,9.836926
351552291975404,0.3861951,-0.23712616,9.827082
351552311831277,0.35830048,-0.22661892,9.819856
351552331687278,0.40342867,-0.16589054,9.757769
351552351543151,0.4755726,-0.1617045,9.704451
351552371405546,0.44520673,-0.23905824,9.725067
351552391261547,0.39915517,-0.2392589,9.726321
351552411117676,0.40718567,-0.21947926,9.722496
351552430973805,0.44717333,-0.2322187,9.748061
351552450829934,0.41166613,-0.2289638,9.780315
351552470686063,0.34093153,-0.22254865,9.786452
351552490543806,0.33472124,-0.21206787,9.779625
351552510399935,0.38863662,-0.21104275,9.811131
351552530256064,0.3828928,-0.23558041,9.834139
351552550112193,0.35910788,-0.201948,9.83515
351552569968322,0.3929391,-0.16620171,9.839087
351552589829854,0.43992475,-0.12359645,9.834297
351552609686111,0.41391465,-0.15393835,9.807674
351552629542368,0.38934502,-0.18774979,9.790494
351552649398625,0.39963427,-0.14211173,9.780784
351552669256906,0.4236486,-0.08303723,9.789106
351552689113291,0.3643058,-0.08969054,9.783564
351552708969548,0.3471802,-0.13818327,9.772612
351552728825805,0.37549704,-0.18301073,9.80164
351552748682190,0.41421485,-0.16405322,9.791761
351552768538447,0.45070633,-0.15535025,9.804581
351552788396305,0.39752412,-0.13587952,9.79292
351552808252690,0.3305762,-0.11225614,9.812428
351552828109073,0.3608892,-0.1371112,9.841316
351552847965585,0.42146987,-0.16246584,9.809641
351552867821970,0.44794524,-0.1335255,9.811769
351552887669680,0.39655766,-0.10114096,9.814458
351552907525936,0.42151472,-0.120834626,9.78496
351552927382193,0.41449508,-0.11604891,9.779927
351552947238448,0.41346985,-0.12025311,9.710593
351552967089945,0.3874978,-0.19198857,9.704957
351552986946074,0.3277181,-0.23720667,9.747903
351553006802201,0.28016567,-0.21934438,9.7270565
351553026658329,0.31075063,-0.16297783,9.701133
351553046514458,0.40608346,-0.12057138,9.73018
351553066364458,0.48440123,-0.100905515,9.744272
351553086211206,0.47690833,-0.13412699,9.792434
351553106067207,0.43920854,-0.13716348,9.823899
351553125923206,0.35089517,-0.14920431,9.90195
351553145779206,0.3243659,-0.18663906,9.904064
351553165635207,0.37252715,-0.23307073,9.928228
351553185484164,0.39289135,-0.29381195,9.922611
351553205340037,0.36387238,-0.28398874,9.856179
351553225195782,0.32501304,-0.20597327,9.741701
351553245051655,0.33788893,-0.20524368,9.680405
351553264900042,0.38425922,-0.21555185,9.630132
351553284755787,0.40453887,-0.27402577,9.666075
351553304611404,0.3438306,-0.25974485,9.680631
351553324467149,0.3621303,-0.30075684,9.715616
351553344322766,0.43196824,-0.3519708,9.7935
351553364178511,0.38026318,-0.29499665,9.867165
351553384028908,0.3249014,-0.12973337,9.8563795
351553403884397,0.3417475,-0.20743577,9.914206
351553423739886,0.3947708,-0.3364342,9.950199
351553443595247,0.3326732,-0.2626714,9.878141
351553463450736,0.26740173,-0.13257991,9.76753
351553483308371,0.39729244,-0.25898415,9.931624
351553503163860,0.43171248,-0.38740605,9.884733
351553523019221,0.34662023,-0.3584728,9.707553
351553542874710,0.27642593,-0.2462184,9.68928
351553562730199,0.31587803,-0.28432932,9.715454
351553582585688,0.3489604,-0.39685342,9.679702
351553602434509,0.37466148,-0.46202326,9.684138
351553622289720,0.35302404,-0.4945364,9.7361
351553642145081,0.3618827,-0.4055039,9.757843
351553662000442,0.3075544,-0.35391903,9.786133
351553681854425,0.27430257,-0.35946363,9.804975
351553701709658,0.28645107,-0.39137247,9.925412
351553721564891,0.3229492,-0.42777023,10.002865
351553741420124,0.35369042,-0.3811556,10.014209
351553761275357,0.3552031,-0.30047214,9.754433
351553781119411,0.38173997,-0.34510693,9.513512
351553800974387,0.310342,-0.36042616,9.634857
351553820829492,0.26766747,-0.2521347,9.721312
351553840684467,0.37634328,-0.24000669,9.7373495
351553860539443,0.4745527,-0.16757472,9.719095
351553880394420,0.48344478,-0.11398258,9.788778
351553900255376,0.3529042,-0.22450356,9.888107
351553920110480,0.16152081,-0.21818997,9.934076
351553939965457,0.14248544,-0.12223186,9.896929
351553959820560,0.33547643,-0.16674148,9.83572
351553979682566,0.4152052,-0.1886124,9.856293
351553999537799,0.35027143,-0.2174338,9.834195
351554019392902,0.32930055,-0.29224524,9.836086
351554039248134,0.31763673,-0.26136813,9.811342
351554059103239,0.3592552,-0.21220537,9.744383
351554078964069,0.32759437,-0.15108499,9.772227
351554098819429,0.2935885,-0.110168904,9.789137
351554118674662,0.35717383,-0.12153891,9.75642
351554138530021,0.39740646,-0.17330858,9.725711
351554158385253,0.35883072,-0.3014629,9.694328
351554178240614,0.28775492,-0.33331633,9.726941
351554198103107,0.20204702,-0.29565492,9.781666
351554217958596,0.23593129,-0.26194507,9.821073
351554237813957,0.2667269,-0.2704295,9.837513
351554257669446,0.28935876,-0.24732348,9.871942
351554277532615,0.2951222,-0.26516685,9.893456
351554297388360,0.24411717,-0.2768653,9.872357
351554317243977,0.20050558,-0.27040595,9.848874
351554337099722,0.24013244,-0.29161996,9.83906
351554356955339,0.31484637,-0.32307377,9.787896
351554376811084,0.32633385,-0.29191765,9.73361
351554396673013,0.28895938,-0.23626187,9.690335
351554416528886,0.27622667,-0.27721912,9.685373
351554436384759,0.25940108,-0.35158497,9.730848
351554456240632,0.33662838,-0.35968643,9.749832
351554476096377,0.41104332,-0.402436,9.746432
351554495960770,0.3300726,-0.39050257,9.826807
351554515816771,0.19716723,-0.2904606,9.8541975
351554535672900,0.16417325,-0.26996747,9.830976
351554555528901,0.20760873,-0.31176025,9.849465
351554575384268,0.25891078,-0.3426025,9.860267
351554595240397,0.26840508,-0.3494873,9.866143
351554615096526,0.25878668,-0.3853217,9.83287
351554634952506,0.24778451,-0.3856753,9.785996
351554654808635,0.24969873,-0.39938405,9.76127
351554674664764,0.33893952,-0.39156348,9.724871
351554694519827,0.43114442,-0.32348835,9.706795
351554714375828,0.43870753,-0.254432,9.743327
351554734231957,0.31422386,-0.301519,9.737989
351554754087952,0.2079223,-0.36735108,9.749091
351554773944081,0.24444145,-0.37249947,9.778897
351554793803507,0.33898905,-0.366788,9.854679
351554813659635,0.2658508,-0.2952193,9.922597
351554833515892,0.110412285,-0.18106002,9.916296
351554853372019,0.10045774,-0.16928615,9.8497925
351554873222424,0.19729471,-0.25977868,9.7969885
351554893078553,0.2889788,-0.33653578,9.756244
351554912934552,0.32793245,-0.36340612,9.723921
351554932790552,0.30300888,-0.3649771,9.723438
351554952646553,0.2868207,-0.3239056,9.739899
351554972502554,0.3065314,-0.32641917,9.745342
351554992352939,0.27269438,-0.31416,9.781839
351555012208812,0.2533909,-0.3452443,9.825779
351555032064811,0.20556524,-0.37721393,9.838334
351555051920811,0.17629166,-0.36759886,9.842113
351555071776684,0.15868936,-0.33770803,9.826185
351555091623464,0.17967808,-0.32837686,9.814289
351555111479336,0.26388144,-0.35670328,9.770836
351555131335337,0.36941785,-0.37760556,9.745029
351555151191208,0.40253094,-0.38551044,9.742437
351555171046191,0.3121956,-0.3366338,9.754621
351555190902064,0.25167233,-0.32298464,9.769943
351555210757937,0.2808971,-0.35844007,9.755987
351555230613682,0.32060263,-0.3958725,9.799421
351555250469555,0.30077174,-0.36986324,9.848417
351555270325428,0.22030987,-0.28609303,9.887987
351555290177795,0.1662539,-0.2299947,9.843119
351555310033540,0.21658869,-0.30159286,9.811471
351555329889285,0.2610116,-0.34300297,9.82392
351555349745030,0.243843,-0.32698557,9.812214
351555369600775,0.21832354,-0.32950342,9.766812
351555389447560,0.20574613,-0.32459947,9.716504
351555409303049,0.19625276,-0.2832621,9.709567
351555429158410,0.25201693,-0.2735601,9.701817
351555449013899,0.25606287,-0.31470716,9.729746
351555468869388,0.2719828,-0.3150863,9.773503
351555488724877,0.2729902,-0.31282458,9.836865
351555508579002,0.25978443,-0.3096395,9.866473
351555528434491,0.18673062,-0.28915805,9.880121
351555548289852,0.12939358,-0.29405665,9.878129
351555568145341,0.17519172,-0.34396923,9.866146
351555588003762,0.22390912,-0.36830068,9.833921
351555607859251,0.20864765,-0.36069778,9.773603
351555627714718,0.21868923,-0.28463346,9.755513
351555647570207,0.20730285,-0.2914228,9.741271
351555667425568,0.27851287,-0.3106038,9.733761
351555687284939,0.3314891,-0.35606623,9.724355
351555707140428,0.31177595,-0.34236866,9.739224
351555726995917,0.21759643,-0.2647875,9.766259
351555746851406,0.22308408,-0.22734864,9.781481
351555766707017,0.276907,-0.28407696,9.822038
351555786562506,0.2586191,-0.31979176,9.834091
351555806374181,0.22406821,-0.3156415,9.871506
351555826228901,0.2297034,-0.30763364,9.879137
351555846083494,0.21697685,-0.29686314,9.868281
351555865938213,0.24227862,-0.26926476,9.830767
351555885805095,0.28181556,-0.2815003,9.772327
351555905659944,0.31174445,-0.2967291,9.756188
351555925514791,0.25974047,-0.27039754,9.734123
351555945369639,0.22434853,-0.24691725,9.712126
351555965224488,0.29030392,-0.23669302,9.729464
351555985091212,0.35990015,-0.26930618,9.719835
351556004946316,0.3147887,-0.24913652,9.707305
351556024801293,0.21883996,-0.24152368,9.774448
351556044656396,0.23653682,-0.26022637,9.815301
351556064511372,0.30454516,-0.24460216,9.841073
351556084366477,0.35318995,-0.22521505,9.820202
351556104233449,0.3280405,-0.25785348,9.821071
351556124088809,0.25282365,-0.24624132,9.848115
351556143944042,0.2716747,-0.22379126,9.854966
351556163799401,0.31866714,-0.21822059,9.848711
351556183666508,0.34529737,-0.23121823,9.829415
351556203521997,0.32237303,-0.23017937,9.816697
351556223377611,0.3210059,-0.22909886,9.809326
351556243233099,0.3398831,-0.24518315,9.751929
351556263088588,0.31746918,-0.21554089,9.722281
351556282945342,0.3274164,-0.20314,9.745193
351556302800958,0.36172894,-0.2453884,9.729499
351556322656575,0.3576187,-0.23165113,9.744676
351556342512062,0.3262276,-0.2198826,9.7853365
351556362367678,0.25769147,-0.23241712,9.7822485
351556382223295,0.24714606,-0.22939502,9.793227
351556402091515,0.2929346,-0.2331411,9.919965
351556421947387,0.32486895,-0.26161534,10.023907
351556441803260,0.32679704,-0.1984494,9.91089
351556461659131,0.3738561,-0.19338202,9.68476
351556481523195,0.35621297,-0.26508468,9.719982
351556501379324,0.31314397,-0.24347545,9.784078
351556521235323,0.2759324,-0.22196361,9.773827
351556541091451,0.31517825,-0.1937058,9.759441
351556560947580,0.36027214,-0.2109626,9.78814
351556580803707,0.3504158,-0.2731275,9.7703
351556600660553,0.30439207,-0.2789261,9.761376
351556620516682,0.28745198,-0.2450081,9.759837
351556640372809,0.3076156,-0.22954802,9.772006
351556660228938,0.34018412,-0.18163706,9.812219
351556680085067,0.3863434,-0.1578509,9.815534
351556699939880,0.37974057,-0.2130676,9.794949
351556719795881,0.32620165,-0.20583107,9.803298
351556739652010,0.31623963,-0.1553877,9.79463
351556759508134,0.33302388,-0.14189568,9.81018
351556779362952,0.32576782,-0.16474992,9.811801
351556799219081,0.2862389,-0.21568753,9.828611
351556819075208,0.31693605,-0.1904942,9.834441
351556838931336,0.3469835,-0.12302672,9.81219
351556858787593,0.33099827,-0.110014096,9.79444
351556878643720,0.3338794,-0.17868914,9.755783
351556898493413,0.37456223,-0.19444892,9.775248
351556918349414,0.3781254,-0.18120088,9.786781
351556938205541,0.29842383,-0.16083702,9.740303
351556958061541,0.23080051,-0.15863553,9.768866
351556977917670,0.2868723,-0.1659452,9.847266
351556997770448,0.3560731,-0.15952007,9.811353
351557017626448,0.33886352,-0.12865546,9.765917
351557037482449,0.30362105,-0.13701382,9.739216
351557057338576,0.3356099,-0.15184245,9.771765
351557077188885,0.3910527,-0.13604857,9.791997
351557097044886,0.41148165,-0.0961167,9.784327
351557116900097,0.42080572,0.007409172,9.786604
351557136756098,0.35389346,-0.03206503,9.800531
351557156612099,0.34436303,-0.064306,9.826871
351557176467972,0.37664422,-0.12781546,9.813079
351557196326691,0.39251268,-0.18270883,9.782334
351557216182692,0.37087145,-0.116553456,9.78514
351557236038821,0.39389482,-0.09505372,9.784943
351557255894822,0.39609993,-0.12702447,9.756407
351557275750823,0.37845472,-0.12111673,9.736566
351557295607072,0.36947826,-0.095847994,9.756408
351557315463329,0.39123556,-0.0848131,9.776481
351557335319458,0.36467758,-0.08173266,9.774999
351557355175587,0.3774253,-0.07820695,9.786103
351557375031716,0.38161752,-0.047949683,9.851226
351557394887845,0.3705593,0.01657161,9.835173
351557414720148,0.36534446,0.03438067,9.8881855
351557434575509,0.31981865,0.016113045,9.853273
351557454430742,0.40599284,0.059525058,9.754006
351557474286103,0.42629996,0.11200688,9.789445
351557494145358,0.4350766,0.027689425,9.882579
351557514000719,0.3191016,-0.086613044,9.826795
351557533856080,0.2780691,-0.12440948,9.728879
351557553711441,0.39523402,-0.06391992,9.786952
351557573566802,0.46471545,-0.04672289,9.796773
351557593421057,0.33373788,9.96612E-4,9.746249
351557613276418,0.34058353,0.08972002,9.744551
351557633131651,0.40394834,0.09113654,9.729464
351557652987012,0.39827293,0.03961839,9.750977
351557672842373,0.39530388,0.017094009,9.893032
351557692697734,0.4329951,0.044533264,9.877497
351557712555869,0.37983394,0.0968016,9.891052
351557732411230,0.3133558,0.062263876,9.889194
351557752266591,0.29861492,0.014895162,9.864658
351557772121943,0.31469184,-0.0042077987,9.792755
351557791978101,0.42224258,0.050338704,9.819212
351557811833462,0.393735,0.05676697,9.798873
351557831688949,0.3188704,-0.019244669,9.728401
351557851544437,0.32162103,-0.05442761,9.7439165
351557871399798,0.38617676,-0.0027843,9.721639
351557891252000,0.38667166,0.008257852,9.76254
351557911107232,0.31966355,-0.06701623,9.730001
351557930962593,0.23001257,-0.14169337,9.735149
351557950817824,0.18732144,-0.19635904,9.778153
351557970673184,0.23578358,-0.277377,9.790157
351557990528545,0.2186166,-0.34140304,9.828921
351558010388390,0.2057737,-0.35537273,9.828179
351558030243878,0.2568979,-0.3392007,9.812534
351558050099239,0.3204044,-0.2773808,9.791568
351558069954726,0.34839484,-0.19855353,9.8164425
351558089818030,0.3193163,-0.09574446,9.808046
351558109673647,0.3225097,-0.047893558,9.763557
351558129529262,0.3513463,0.012842409,9.754394
351558149384878,0.34935614,0.090156995,9.729608
351558169240623,0.4110113,0.0772516,9.756732
351558189096240,0.4826641,0.07534302,9.710956
351558208960659,0.43518808,0.0757202,9.726848
351558228816532,0.27244547,0.04813154,9.766854
351558248672405,0.24219659,-0.048286244,9.769014
351558268528278,0.29170197,-0.100301094,9.768351
351558288384151,0.430828,-0.054294,9.816166
351558308236402,0.50390995,-0.018316936,9.872296
351558328092275,0.3718186,-0.042603225,9.856889
351558347948020,0.21811962,-0.026777482,9.874157
351558367803893,0.27586594,-0.010161864,9.897566
351558387659204,0.40893623,-0.010783066,9.86379
351558407514949,0.42627427,0.0117564,9.848638
351558427370822,0.39132032,-0.0013455541,9.815273
351558447226567,0.37603638,-0.05794961,9.7752905
351558467082440,0.3834533,-0.066075884,9.755409
351558486938313,0.43828288,-0.017878901,9.78271
351558506792680,0.38850176,0.0037872787,9.781826
351558526648425,0.30766708,0.016577506,9.767791
351558546504298,0.31290197,7.385849E-4,9.76612
351558566360043,0.37515888,-0.04520092,9.747821
351558586215788,0.4024816,-0.058758892,9.745667
351558606071955,0.35246122,-0.089452446,9.75975
351558625927808,0.3162846,-0.1468395,9.755335
351558645783553,0.34892818,-0.17508519,9.7544365
351558665639298,0.36703667,-0.1877384,9.756736
351558685495975,0.35887548,-0.19484521,9.779405
351558705351720,0.34233493,-0.16520636,9.810829
351558725207465,0.34483355,-0.13689859,9.809723
351558745063210,0.36248785,-0.11663529,9.782198
351558764918955,0.383937,-0.13225865,9.871562
351558784774693,0.4200298,-0.12673846,9.892107
351558804634619,0.38403994,-0.055148885,9.845232
351558824490492,0.2806163,0.015990265,9.826224
351558844346363,0.27843806,-3.326149E-4,9.7921915
351558864202235,0.37921646,-0.021155896,9.783267
351558884058108,0.38928264,-0.014602561,9.76796
351558903909105,0.3668123,0.014007776,9.766949
351558923764849,0.35647848,0.01505103,9.7756
351558943620594,0.32560647,0.036522232,9.809427
351558963476337,0.30611694,0.064164,9.826107
351558983322494,0.27927265,0.034789436,9.824854
351559003178111,0.2477705,-0.010264342,9.814381
351559023033598,0.3148049,-0.071049504,9.765036
351559042889214,0.4022625,-0.108981155,9.769288
351559062744831,0.41221797,-0.108565435,9.833181
351559082600446,0.2730018,-0.1648021,9.799642
351559102450482,0.19928479,-0.16244261,9.791773
351559122305971,0.28469002,-0.14461526,9.857755
351559142161460,0.38637257,-0.15967721,9.80567
351559162017077,0.34360662,-0.15421163,9.748793
351559181872566,0.26318365,-0.09418032,9.785987
351559201724569,0.30704606,-0.13136281,9.796027
351559221580058,0.37272868,-0.16983488,9.718535
351559241435419,0.37684536,-0.10025212,9.704579
351559261290908,0.37594858,-0.06498664,9.790535
351559281146269,0.30787542,-0.16037364,9.771235
351559301001758,0.26440728,-0.15499257,9.765105
351559320848085,0.33016232,-0.13985617,9.836123
351559340703446,0.36151442,-0.1823005,9.810488
351559360558679,0.28745577,-0.17785934,9.752838
351559380413912,0.23248166,-0.1424014,9.823802
351559400268419,0.31120643,-0.17967665,9.825169
351559420123652,0.33039376,-0.15922104,9.785679
351559439978885,0.33604288,-0.098273404,9.787892
351559459833990,0.4070993,-0.10996902,9.79123
351559479689223,0.33142966,-0.14679565,9.808887
351559499539920,0.23291606,-0.13927397,9.816918
351559519395025,0.31581965,-0.13115442,9.804174
351559539250002,0.37707263,-0.1172591,9.806854
351559559105107,0.3319063,-0.08912194,9.839284
351559578960062,0.24857053,-0.096684955,9.857732
351559598815167,0.18976438,-0.13542664,9.804367
351559618674094,0.29255798,-0.15588793,9.763237
351559638529199,0.4290328,-0.09450961,9.765852
351559658384304,0.4332225,-0.04537653,9.769314
351559678239281,0.33492756,-0.054072056,9.766458
351559698100764,0.26849923,-0.05577006,9.796393
351559717955997,0.2882049,-0.07753313,9.803055
351559737811102,0.3598252,-0.08262413,9.801887
351559757666326,0.34911248,-0.08600563,9.793251
351559777521559,0.31732908,-0.0685481,9.83581
351559797386559,0.2817426,-0.046901345,9.828557
351559817241919,0.2588847,-0.05510111,9.774479
351559837097408,0.3333804,-0.046991795,9.752917
351559856952767,0.35641176,-0.042219896,9.783692
351559876808255,0.3477622,-0.073631175,9.791281
351559896663744,0.30744213,-0.0798783,9.811288
351559916518177,0.28380668,-0.056380894,9.772991
351559936373537,0.33288744,-0.030766526,9.76832
351559956229026,0.3661158,-0.02517224,9.791175
351559976084385,0.31474888,-0.05276417,9.798069
351559995941836,0.2507063,-0.10817235,9.785715
351560015797197,0.26901245,-0.10056254,9.805096
351560035652684,0.3383062,-0.0861943,9.806033
351560055508044,0.35138988,-0.06868846,9.788827
351560075363533,0.29530096,-0.048213664,9.782283
351560095218892,0.3127834,-0.05593492,9.762031
351560115079336,0.354667,-0.03186401,9.782857
351560134934825,0.35769722,-0.025219982,9.803278
351560154790312,0.36018017,-0.042411845,9.814831
351560174645801,0.32752126,-0.0317178,9.825836
351560194501418,0.27088326,-0.04583706,9.851296
351560214366795,0.24092849,-0.10580439,9.841523
351560234222540,0.29432774,-0.121756576,9.775735
351560254078285,0.39905438,-0.071490124,9.780195
351560273934030,0.40520734,-0.03603806,9.802052
351560293790797,0.27939233,-0.026543876,9.789003
351560313646670,0.2681281,-0.02211346,9.808084
351560333502543,0.3555094,-0.02947846,9.796742
351560353358416,0.38935122,-0.034638565,9.759895
351560373214161,0.32986233,-0.024715763,9.763958
351560393070034,0.24477622,-0.046351615,9.79361
351560412934043,0.2746659,-0.054613456,9.799645
351560432790172,0.36141208,-0.028746996,9.809378
351560452646301,0.38235608,0.009164712,9.806024
351560472502302,0.3020436,-0.015076997,9.801819
351560492358431,0.2513555,-0.05914029,9.816699
351560512215400,0.32009622,-0.039513197,9.802518
351560532071529,0.38325685,-0.034733444,9.7908945
351560551927658,0.38758054,-0.037616413,9.783594
351560571783915,0.31762436,-0.033036288,9.805567
351560591638874,0.28939262,-0.03712411,9.7763195
351560611495003,0.31642407,-0.031989828,9.791086
351560631351110,0.36607555,-0.101631574,9.821482
351560651207239,0.34947917,-0.103094675,9.797819
351560671063368,0.2837383,-0.09697508,9.75531
351560690919497,0.28433225,-0.09786912,9.815796
351560710779624,0.35722458,-0.10711788,9.795787
351560730635881,0.35036305,-0.100728825,9.723117
351560750492010,0.32476154,-0.0990645,9.735151
351560770348261,0.3145816,-0.12822554,9.779488
351560790204518,0.3029718,-0.14927633,9.788204
351560810058230,0.2975209,-0.12288479,9.820814
351560829914486,0.28600112,-0.12327468,9.879272
351560849770615,0.23161827,-0.15232089,9.848664
351560869626870,0.2424607,-0.1565374,9.806132
351560889474308,0.28023234,-0.15547235,9.81076
351560909330309,0.30582005,-0.17569004,9.794764
351560929186180,0.27009386,-0.16852775,9.787127
351560949042180,0.3110378,-0.13432953,9.80486
351560968898181,0.3253748,-0.13298339,9.784843
351560988754180,0.3165133,-0.14058484,9.759287
351561008598886,0.30649817,-0.1584557,9.775864
351561028454759,0.33325118,-0.19980834,9.814043
351561048310502,0.25202128,-0.17079604,9.798894
351561068166246,0.19379339,-0.14040805,9.806686
351561088021991,0.2087091,-0.15438622,9.812123
351561107867531,0.24325109,-0.17991634,9.78998
351561127723019,0.27676716,-0.17708129,9.782154
351561147578508,0.3131167,-0.17820376,9.803365
351561167433995,0.2868692,-0.14869444,9.800055
351561187289483,0.23135987,-0.122824654,9.7811365
351561207144972,0.2757171,-0.13090944,9.810034
351561226956008,0.31595537,-0.13563482,9.817022
351561246810600,0.2968009,-0.13718636,9.797407
351561266665321,0.24929634,-0.1463748,9.776409
351561286519912,0.2499671,-0.16605955,9.808282
351561306383364,0.2683847,-0.21504661,9.745855
351561326238085,0.28152284,-0.18951163,9.742275
351561346092804,0.30541807,-0.11711837,9.826306
351561365947652,0.28389788,-0.13177134,9.805094
351561385802373,0.19748983,-0.12627497,9.759456
351561405669215,0.24507987,-0.08056742,9.758989
351561425524191,0.3404076,-0.14421909,9.784074
351561445379040,0.29121137,-0.15523814,9.79717
351561465234015,0.2610107,-0.12559128,9.807616
351561485088991,0.2568275,-0.10746189,9.827394
351561504943840,0.29640076,-0.104170874,9.838903
351561524796561,0.32100263,-0.09853959,9.839129
351561544651409,0.27392387,-0.10091158,9.831803
351561564506258,0.24690662,-0.10206263,9.836296
351561584361105,0.2722064,-0.12990406,9.834665
351561604219320,0.32131878,-0.14317945,9.786983
351561624074169,0.316669,-0.11915506,9.757688
351561643929016,0.30001217,-0.08545369,9.766592
351561663783864,0.30595142,-0.057548795,9.792401
351561683638713,0.27080864,-0.08130002,9.793816
351561703501044,0.30212912,-0.06322771,9.792359
351561723356020,0.3212071,-0.046485007,9.815233
351561743210997,0.3145514,-0.06932705,9.807177
351561763063156,0.27987915,-0.08452647,9.819244
351561782918132,0.2825129,-0.092820935,9.832539
351561802773109,0.2872611,-0.08546634,9.819281
351561822639185,0.29545617,-0.059300866,9.820205
351561842494417,0.3158478,-0.03578062,9.788314
351561862349522,0.33271778,-0.07426349,9.71742
351561882204753,0.31064624,-0.048112135,9.725023
351561902067446,0.31790438,-0.04195689,9.793612
351561921922807,0.3365709,-0.060692556,9.783155
351561941778038,0.25424868,-0.058264066,9.783346
351561961633270,0.30078354,-0.059300497,9.848247
351561981488631,0.3277965,-0.080973074,9.852327
351562001343862,0.29603913,-0.083658904,9.806737
351562021205915,0.28649527,-0.038703583,9.784484
351562041061404,0.28025278,-0.0359984,9.786793
351562060916891,0.27474368,-9.1465545E-4,9.771001
351562080772251,0.34938014,0.02293232,9.769447
351562100627740,0.37819076,0.031990938,9.779884
351562120493115,0.31617823,-0.011493178,9.782249
351562140348859,0.27849346,-0.05795186,9.81233
351562160204476,0.2538388,-0.038883787,9.815401
351562180060219,0.24045937,-0.04293642,9.786813
351562199926941,0.25864035,-0.028765855,9.772699
351562219782942,0.28099504,-0.040090818,9.816307
351562239638813,0.27433598,-0.04725712,9.8090725
351562259494813,0.3075227,-0.0434364,9.792016
351562279350814,0.29024544,0.0028380745,9.804147
351562299206813,0.33635223,0.018538527,9.827007
351562319064414,0.3345435,0.014717146,9.826339
351562338920671,0.2974433,0.039905608,9.844008
351562358776798,0.2784083,0.015405325,9.816391
351562378632926,0.26108676,-0.03435934,9.780031
351562398489055,0.30000356,-0.015881145,9.78508
351562418348833,0.3399983,-0.018039908,9.778759
351562438205089,0.32471484,-0.035956293,9.731655
351562458061474,0.2624155,-0.03164942,9.732549
351562477917857,0.30235702,-0.024031214,9.784792
351562497770011,0.29649028,-0.04539241,9.803536
351562517626396,0.2694413,-0.053561196,9.819923
351562537482779,0.23730357,-0.035505373,9.82247
351562557339163,0.28241372,-0.029973583,9.795154
351562577195548,0.31077868,-0.007926828,9.795122
351562597051931,0.3219206,0.01724082,9.838126
351562616907541,0.2496291,-0.0090896,9.79556
351562636763926,0.2019151,-0.03900045,9.764138
351562656620309,0.29159677,-0.027770238,9.803988
351562676476693,0.38489622,-0.025596237,9.7798195
351562696333078,0.33711854,-0.0359755,9.76284
351562716196805,0.22966143,-0.04471154,9.797513
351562736053317,0.27295464,-0.044117577,9.815401
351562755909958,0.28575426,-0.011595813,9.776779
351562775766597,0.3092727,0.0053415056,9.771329
351562795603204,0.30391356,-0.045335732,9.808384
351562815459077,0.22773774,-0.11511839,9.789158
351562835314820,0.2519237,-0.07957161,9.781049
351562855170692,0.3507113,-0.041481394,9.803379
351562875026565,0.31256142,-0.05321599,9.815886
351562894882436,0.18216784,-0.085180916,9.784742
351562914731506,0.25160623,-0.056288242,9.786457
351562934587251,0.34985295,-0.06502602,9.819812
351562954442994,0.2894856,-0.059874695,9.816013
351562974298738,0.24468084,-0.050887465,9.835312
351562994154483,0.27262908,-0.033796754,9.812984
351563014006288,0.28175026,-0.031907,9.787984
351563033862032,0.29383355,-0.08400502,9.774068
351563053717649,0.28133392,-0.104201525,9.748875
351563073573392,0.26370507,-0.09396479,9.722838
351563093429136,0.2735608,-0.106347956,9.774695
351563113284881,0.29608497,-0.11271327,9.778475
351563133126812,0.28287694,-0.10231411,9.77223
351563152982172,0.24794024,-0.080026954,9.790632
351563172837533,0.2678886,-0.055677496,9.821792
351563192692892,0.25620994,-0.054019146,9.829905
351563212548746,0.24452797,-0.04405894,9.810357
351563232404107,0.28815988,-0.054265734,9.820782
351563252259466,0.31079245,-0.08058962,9.825938
351563272114826,0.29211596,-0.07954715,9.822233
351563291970187,0.24268544,-0.09862404,9.846728
351563311820895,0.25472838,-0.11946578,9.823789
351563331676127,0.29485807,-0.12618354,9.797707
351563351531360,0.32562292,-0.0996798,9.825381
351563371386591,0.24723248,-0.08885523,9.810903
351563391241695,0.19357832,-0.13453683,9.738537
351563411096928,0.2511404,-0.10416979,9.7913685
351563430954329,0.35174838,-0.13591427,9.837629
351563450809561,0.3116534,-0.140249,9.742876
351563470664794,0.23125131,-0.08072552,9.734127
351563490520025,0.30245993,-0.12860022,9.787302
351563510364847,0.26210195,-0.18042248,9.812416
351563530219824,0.16887087,-0.15586421,9.798753
351563550074927,0.2109884,-0.1312849,9.784278
351563569929903,0.27967805,-0.1537821,9.795531
351563589785008,0.29023,-0.16443534,9.822501
351563609639445,0.3186159,-0.1713457,9.803383
351563629494421,0.26644772,-0.13423766,9.788138
351563649349398,0.24621932,-0.1222003,9.806125
351563669204373,0.30755925,-0.12485104,9.830266
351563689059349,0.31403974,-0.09384806,9.816647
351563708914326,0.27984473,-0.10304227,9.79004
351563728774159,0.23433013,-0.14799234,9.790585
351563748629135,0.27026734,-0.17200382,9.812231
351563768484240,0.28792113,-0.1666764,9.766367
351563788341797,0.27752304,-0.14463033,9.764903
351563808201192,0.22208756,-0.13919242,9.7830715
351563828056425,0.22522354,-0.15227269,9.765398
351563847911656,0.23278368,-0.15682217,9.780766
351563867766888,0.2565116,-0.1495893,9.830306
351563887622121,0.22750968,-0.15373157,9.848289
351563907477224,0.18824585,-0.12931319,9.850884
351563927336089,0.20977077,-0.11169052,9.842948
351563947191322,0.20392856,-0.1368331,9.83283
351563967046553,0.22279081,-0.14847153,9.783297
351563986901785,0.270368,-0.13178907,9.741758
351564006757018,0.27799216,-0.14068486,9.753987
351564026610481,0.24928059,-0.1345498,9.769471
351564046465585,0.21529952,-0.12742567,9.773551
351564066320818,0.26036963,-0.12619625,9.71594
351564086176049,0.286193,-0.12531802,9.735633
351564106034597,0.2627233,-0.12509947,9.79585
351564125889830,0.23705906,-0.14469004,9.781426
351564145744933,0.20449471,-0.08485055,9.763954
351564165600165,0.25993025,-0.11193168,9.796952
351564185455398,0.27065355,-0.15445414,9.862005
351564205310501,0.2148282,-0.13795927,9.844976
351564225172663,0.19010139,-0.11764505,9.807341
351564245028024,0.24337694,-0.10218791,9.826878
351564264883255,0.26468706,-0.10405837,9.814855
351564284738615,0.2631885,-0.1040515,9.783295
351564304593976,0.2409951,-0.10709699,9.7877865
351564324459203,0.24138159,-0.10575674,9.766179
351564344314819,0.27515006,-0.09284552,9.785752
351564364170436,0.28046116,-0.07276575,9.802821
351564384026051,0.282074,-0.09504065,9.798687
351564403890554,0.2655755,-0.08402797,9.805377
351564423746427,0.24733146,-0.107128076,9.818039
351564443602298,0.245308,-0.12562457,9.818834
351564463458170,0.23589511,-0.08900395,9.831193
351564483314171,0.24358694,-0.095064536,9.870201
351564503170042,0.23484778,-0.09757804,9.893387
351564523026353,0.21998492,-0.084990636,9.81063
351564542882226,0.27436262,-0.105782405,9.734774
351564562738225,0.29629266,-0.116452135,9.746029
351564582594097,0.31300464,-0.091684386,9.769643
351564602450098,0.2522206,-0.093422696,9.752987
351564622310890,0.21259278,-0.07495271,9.791305
351564642166890,0.25123185,-0.08634887,9.816239
351564662022891,0.26578224,-0.115072444,9.817456
351564681878890,0.24727747,-0.10956891,9.8815365
351564701739390,0.24570972,-0.10675638,9.830765
351564721595519,0.21002129,-0.111236885,9.719805
351564741451646,0.22407493,-0.073637746,9.749773
351564761307646,0.3023435,-0.080924794,9.789192
351564781163775,0.27184555,-0.109423585,9.758779
351564801019902,0.26494727,-0.080283314,9.748572
351564820879431,0.30947596,-0.123050846,9.800265
351564840735560,0.25444505,-0.12961592,9.817624
351564860591815,0.21297795,-0.11542912,9.768485
351564880448071,0.20642424,-0.08038122,9.785607
351564900304328,0.23271644,-0.10882425,9.807615
351564920148728,0.25218835,-0.14551091,9.821345
351564940004856,0.25172362,-0.13107465,9.832195
351564959860857,0.2578187,-0.12493855,9.84316
351564979716856,0.19909488,-0.10868094,9.859764
351564999572984,0.23642506,-0.07729213,9.869411
351565019428985,0.31004336,-0.041079935,9.818292
351565039269252,0.28899068,-0.045783404,9.7621155
351565059124996,0.24083543,-0.087386735,9.777178
351565078980741,0.21644849,-0.09442332,9.80036
351565098836612,0.2286171,-0.10796039,9.742206
351565118684297,0.2533059,-0.10133541,9.74062
351565138539914,0.27220765,-0.10523796,9.807769
351565158395401,0.25367594,-0.10388568,9.803253
351565178250889,0.20873088,-0.0692616,9.774567
351565198106506,0.23896281,-0.055374954,9.78416
351565217957124,0.28654927,-0.08890991,9.795426
351565237812484,0.2991988,-0.104657136,9.770619
351565257667845,0.26428,-0.082045674,9.795658
351565277523332,0.23824614,-0.07613306,9.788419
351565297373268,0.23923187,-0.09392214,9.795031
351565317228629,0.2259825,-0.075795546,9.804938
351565337080088,0.22369273,-0.068064965,9.824784
351565356935321,0.21382152,-0.09536642,9.806534
351565376790682,0.2137722,-0.12479074,9.786776
351565396645915,0.22933997,-0.1107393,9.818936
351565416505172,0.25857106,-0.1197178,9.816558
351565436360405,0.24606736,-0.09173681,9.798435
351565456215766,0.22710656,-0.09216882,9.77445
351565476071127,0.23222323,-0.13088666,9.751971
351565495926360,0.2377194,-0.14913125,9.767805
351565515778831,0.25863823,-0.17118745,9.775341
351565535634064,0.25047258,-0.14269339,9.803763
351565555489425,0.23514087,-0.10743374,9.810226
351565575344658,0.19144417,-0.14210413,9.814064
351565595199891,0.16962104,-0.13287301,9.814888
351565615055124,0.25531548,-0.11563555,9.823841
351565634910935,0.2663989,-0.12067665,9.853674
351565654766040,0.20621343,-0.100613624,9.810012
351565674621273,0.24296434,-0.06538346,9.824807
351565694476506,0.26198167,-0.031119242,9.847183
351565714336225,0.22611411,-0.06603233,9.803463
351565734191458,0.1978067,-0.0784217,9.777276
351565754046819,0.25935972,-0.08413116,9.744983
351565773902030,0.28221223,-0.110434145,9.762307
351565793757263,0.20128655,-0.12768382,9.753866
351565813612494,0.17874077,-0.10986842,9.755566
351565833466422,0.17603946,-0.08752957,9.798565
351565853321655,0.19510275,-0.08989984,9.800519
351565873176886,0.2244177,-0.12964495,9.808658
351565893032118,0.21755904,-0.13418663,9.813153
351565912887351,0.21215934,-0.14752647,9.854905
351565932747135,0.19640234,-0.16215241,9.865621
351565952602367,0.2364919,-0.15277551,9.866698
351565972457728,0.27264568,-0.1760746,9.830416
351565992313087,0.24446402,-0.15551226,9.822159
351566012170318,0.26251942,-0.13007165,9.781506
351566032025679,0.29622138,-0.12599806,9.725536
351566051881038,0.2807184,-0.10134584,9.750994
351566071736398,0.27635923,-0.09420048,9.753482
351566091591759,0.26768976,-0.10787804,9.705326
351566111447118,0.28417417,-0.08867578,9.706633
351566131302271,0.30656326,-0.13225098,9.766895
351566151157632,0.22415628,-0.17270947,9.833128
351566171012991,0.15571529,-0.12661721,9.838196
351566190868351,0.15062827,-0.0895631,9.818827
351566210723712,0.21024105,-0.11874389,9.853453
351566230591548,0.1790795,-0.20110278,9.853089
351566250447165,0.21105829,-0.2253833,9.829146
351566270302910,0.24506341,-0.2158191,9.832043
351566290158527,0.19756038,-0.21651982,9.793984
351566310020428,0.21053545,-0.21602684,9.810335
351566329876301,0.303937,-0.18770996,9.766936
351566349732174,0.37936988,-0.19352593,9.6848
351566369588175,0.34298882,-0.1980586,9.7109995
351566389444048,0.27022275,-0.1737389,9.724509
351566409299921,0.2399495,-0.17067201,9.735109
351566429165638,0.1997608,-0.113737985,9.745638
351566449021895,0.1517516,-0.09525816,9.788792
351566468878024,0.14342314,-0.1605681,9.795264
351566488734281,0.12898536,-0.1755662,9.804367
351566508590410,0.10977722,-0.1109039,9.840112
351566528444407,0.11405552,-0.067247115,9.887321
351566548300536,0.08071035,-0.057802,9.914902
351566568156665,0.07356521,-0.052531682,9.902171
351566588012794,0.10814848,-0.081350245,9.868579
351566607869051,0.19539449,-0.14139743,9.810979
351566627725180,0.25547373,-0.14569078,9.797111
351566647572939,0.22924215,-0.11512772,9.744738
351566667428812,0.23040324,-0.14284106,9.723602
351566687284813,0.24245636,-0.116968416,9.734306
351566707140663,0.2921059,-0.09993861,9.701644
351566726998316,0.32795236,-0.10527233,9.701249
351566746854189,0.26572952,-0.06814461,9.7394
351566766710187,0.21592009,-0.08469889,9.784632
351566786566187,0.19376966,-0.161117,9.840893
351566806422060,0.13482372,-0.15663078,9.869706
351566826272531,0.10727367,-0.1740866,9.874029
351566846128403,0.19038936,-0.16951275,9.865989
351566865984148,0.19296229,-0.12086682,9.812688
351566885840019,0.1538514,-0.063806444,9.833622
351566905695891,0.22409669,-0.09373709,9.864517
351566925551764,0.2536045,-0.12726432,9.823926
351566945396909,0.21047604,-0.08046461,9.782245
351566965252525,0.26573032,-0.055602144,9.762719
351566985108142,0.30715123,-0.100490846,9.756559
351567004963757,0.24410777,-0.12272984,9.753876
351567024816521,0.22250903,-0.06268401,9.791205
351567044672010,0.25805598,-0.033144165,9.813232
351567064527625,0.23156816,-0.029315857,9.808474
351567084383241,0.1881755,-0.008844453,9.824339
351567104238858,0.21329021,-0.041021176,9.817338
351567124090415,0.26777008,-0.057868563,9.830709
351567143945903,0.27215272,-0.036308367,9.870094
351567163801392,0.23741911,-0.040819112,9.816534
351567183656879,0.20854792,-0.085811935,9.808605
351567203512239,0.20352541,-0.069416195,9.840267
351567223367728,0.23298818,-0.05734497,9.804082
351567243220749,0.2717291,-0.12618715,9.754008
351567263076110,0.21438006,-0.12557557,9.748891
351567282931471,0.1930624,-0.09351108,9.797712
351567302786960,0.22828452,-0.08513856,9.771641
351567322643369,0.18889764,-0.08217031,9.759425
351567342498858,0.16357589,-0.07464674,9.790776
351567362354219,0.17468335,-0.09847698,9.80693
351567382209708,0.1346213,-0.047169123,9.8405695
351567402065197,0.12998803,-0.06525607,9.830921
351567421919032,0.153993,-0.18666558,9.759238
351567441774393,0.08157127,-0.25917152,9.74504
351567461629754,0.09991447,-0.2399674,9.761468
351567481485115,0.23994444,-0.2763615,9.727965
351567501340476,0.25807807,-0.25500605,9.747
351567521195837,0.19035542,-0.20336679,9.789139
351567541047998,0.17696726,-0.19371937,9.841695
351567560903359,0.23532306,-0.20829682,9.794623
351567580758592,0.2752823,-0.17945701,9.778443
351567600613825,0.2785585,-0.16466612,9.7973
351567620467796,0.31062436,-0.17890413,9.805026
351567640323029,0.2668672,-0.055556573,9.842727
351567660178262,0.23043518,0.0339659,9.807735
351567680033471,0.24860157,0.04387208,9.802236
351567699888704,0.2748536,-0.030104063,9.8222475
351567719743809,0.24351479,-0.05154793,9.840269
351567739596318,0.24882627,-0.09486742,9.817058
351567759451423,0.17238039,-0.118601546,9.829032
351567779303703,0.08976158,-0.122855246,9.817852
351567799158807,0.12250974,-0.12269584,9.800541
351567819013784,0.22912882,-0.11570641,9.778498
351567838869046,0.2627033,-0.08837895,9.7797
351567858724150,0.24587011,-0.047762327,9.783106
351567878579255,0.2488372,-0.013111753,9.777669
351567898434358,0.25670978,0.08623782,9.761585
351567918290907,0.3251829,0.07687011,9.719523
351567938146012,0.33022857,-0.031727694,9.741019
351567958001115,0.2009275,-0.006818773,9.855739
351567977856219,0.1807267,-0.014798842,9.874417
351567997711452,0.1554971,0.0096842265,9.83094
351568017566555,0.108749606,5.92242E-5,9.807807
351568037420734,0.1120662,0.011155334,9.766679
351568057275967,0.17906119,-0.0062557054,9.805717
351568077131070,0.16850533,-0.14704262,9.804313
351568096986174,0.1476213,-0.15093268,9.79748
351568116841407,0.22849452,-0.09270076,9.772404
351568136702596,0.2307931,-0.059059113,9.765058
351568156557828,0.19223164,-0.121039934,9.775738
351568176413061,0.12333269,-0.04105994,9.784453
351568196268422,0.170597,-0.094181366,9.792611
351568216134613,0.22506022,-0.13818839,9.783255
351568235990102,0.21971704,-0.051933702,9.786644
351568255845719,0.16839008,0.036604762,9.808348
351568275701208,0.25398505,-0.07045115,9.854954
351568295556697,0.30394444,-0.19858141,9.843526
351568315412186,0.22715971,-0.09569195,9.838982
351568335267307,0.18622582,-0.003395043,9.80174
351568355122924,0.24495827,-0.081489414,9.796703
351568374978413,0.21885385,-0.14894855,9.793443
351568394834030,0.12567501,-0.082684144,9.838753
351568414689519,0.11653268,-0.009570763,9.852408
351568434553852,0.21452668,-0.08840918,9.789436
351568454409597,0.2945954,-0.15023334,9.769542
351568474265342,0.2899962,-0.15370253,9.732114
351568494121087,0.20198883,-0.16959262,9.757429
351568513977032,0.18836403,-0.1372284,9.76867
351568533832777,0.21297412,-0.0859562,9.765184
351568553688522,0.2837219,-0.12063823,9.831891
351568573544267,0.27495968,-0.14898704,9.825326
351568593400012,0.20936063,-0.13333026,9.827798
351568613255757,0.20050642,-0.10940888,9.875252
351568633107969,0.1960113,-0.15408482,9.882915
351568652963586,0.23143587,-0.12834385,9.853512
351568672819203,0.1936801,-0.13093744,9.820384
351568692674948,0.15602838,-0.12456528,9.775528
351568712530565,0.29883605,-0.013680581,9.794555
351568732388346,0.28768155,-0.09227993,9.869351
351568752244085,0.18834352,-0.42301154,9.633756
351568772099702,0.13655886,-0.4060749,9.659936
351568791955445,0.19011775,-0.04772933,9.85476
351568811811189,0.2579916,0.12030819,9.776452
351568831666934,0.1660654,-0.17586493,9.789236
351568851516693,0.02363341,-0.25029105,9.819217
351568871372181,0.16223347,-0.16706033,9.814533
351568891227798,0.31123367,-0.15420523,9.881329
351568911083413,0.21142262,-0.1426686,9.872586
351568930933361,0.14644131,-0.10686919,9.841388
351568950788850,0.1593798,-0.102150284,9.831532
351568970644337,0.22597118,-0.1386876,9.814889
351568990499826,0.24605401,-0.19324248,9.812707
351569010355443,0.20190307,-0.1921671,9.771156
351569030203478,0.14585848,-0.15506677,9.749943
351569050058963,0.15147234,-0.15986405,9.784855
351569069914324,0.16725178,-0.18495807,9.818794
351569089769683,0.13960224,-0.17684126,9.833597
351569109625171,0.15448894,-0.14004277,9.824343
351569129480532,0.1285963,-0.13650413,9.785953
351569149338227,0.09050413,-0.13577053,9.808342
351569169193587,0.061407536,-0.16297355,9.844642
351569189049076,0.113169305,-0.22335842,9.833349
351569208904435,0.15579936,-0.20265308,9.841616
351569228765324,0.11571872,-0.15160802,9.826201
351569248620941,0.05968922,-0.16340667,9.809191
351569268476428,0.09250622,-0.16994968,9.803343
351569288331917,0.15097916,-0.18600431,9.803267
351569308187534,0.14523232,-0.20952281,9.746046
351569328036871,0.09019771,-0.20517333,9.731941
351569347892232,0.05618145,-0.16109176,9.797336
351569367747721,0.10581103,-0.16924037,9.776453
351569387603082,0.14515713,-0.15759063,9.73714
351569407458443,0.16542771,-0.12696636,9.7313385
351569427313932,0.15333068,-0.15835866,9.772522
351569447168969,0.059249006,-0.16800508,9.768593
351569467024330,0.034173753,-0.13894314,9.772098
351569486879691,0.115646034,-0.14150877,9.824716
351569506735052,0.12913536,-0.16246255,9.836384
351569526588901,0.08108684,-0.15125427,9.82357
351569546444134,0.07320111,-0.1605717,9.800224
351569566299495,0.12597033,-0.20741947,9.803554
351569586154728,0.15004206,-0.1918371,9.78601
351569606010089,0.1504007,-0.11634702,9.813992
351569625865322,0.17488907,-0.10363709,9.818337
351569645716819,0.17166941,-0.14905837,9.766055
351569665571924,0.14043632,-0.1512914,9.755876
351569685427157,0.16395932,-0.1785839,9.76914
351569705282262,0.19564103,-0.19454035,9.740238
351569725137367,0.16632816,-0.1831884,9.771897
351569744996888,0.14521502,-0.14683011,9.832968
351569764852120,0.099409506,-0.15900193,9.849281
351569784707353,0.09842594,-0.13403776,9.876398
351569804561435,0.12172028,-0.16052417,9.882022
351569824420800,0.13728902,-0.19630052,9.840376
351569844276161,0.120121785,-0.17526379,9.813656
351569864131520,0.13960446,-0.20541087,9.845555
351569883986880,0.14666474,-0.20735571,9.877759
351569903842241,0.15734652,-0.1814179,9.816943
351569923697600,0.21844724,-0.16754225,9.773924
351569943551456,0.22279005,-0.16613638,9.752902
351569963406817,0.18146048,-0.16814768,9.738629
351569983262048,0.15446882,-0.15293728,9.765711
351570003117280,0.16572455,-0.15070038,9.842555
351570022972641,0.17721954,-0.16487914,9.858785
351570042831938,0.14923184,-0.15290856,9.823252
351570062687426,0.10013968,-0.16080788,9.852886
351570082542787,0.0964817,-0.21447848,9.824701
351570102398274,0.07484291,-0.20492645,9.796757
351570122262948,0.07803273,-0.13966757,9.732324
351570142118693,0.105792716,-0.1677835,9.661201
351570161974308,0.12821771,-0.20047235,9.74872
351570181829924,0.20232004,-0.17099929,9.838438
351570201685669,0.22824508,-0.13960522,9.797163
351570221541284,0.14651163,-0.07658305,9.78395
351570241404984,0.07343058,-0.055070173,9.808312
351570261260857,0.048107374,-0.10081238,9.825153
351570281116728,0.07773495,-0.101592414,9.815422
351570300972472,0.16088289,-0.17825192,9.781427
351570320828345,0.12756768,-0.18362424,9.787974
351570340685561,0.053494584,-0.10329921,9.798461
351570360541433,0.025864443,-0.11006329,9.79735
351570380397434,0.068315506,-0.1603982,9.800853
351570400253305,0.10180053,-0.17883521,9.767129
351570420110335,0.14767617,-0.1829596,9.809793
351570439966336,0.14136674,-0.20566303,9.822735
351570459822207,0.089721374,-0.16988088,9.77542
351570479678207,0.12142215,-0.0936641,9.777984
351570499534208,0.19200331,-0.15740447,9.837051
351570519390079,0.18513177,-0.20510867,9.851347
351570539238102,0.12277219,-0.13604668,9.79597
351570559093847,0.13104247,-0.11697378,9.756861
351570578949718,0.15487842,-0.1393224,9.761675
351570598805462,0.14964837,-0.15428975,9.784375
351570618661207,0.17792518,-0.13138475,9.801997
351570638508538,0.22288391,-0.11857104,9.760524
351570658364026,0.21322113,-0.10977856,9.798377
351570678219643,0.16331898,-0.11273073,9.81221
351570698075132,0.11003257,-0.085372336,9.843938
351570717930749,0.09221263,-0.08821396,9.814291
351570737786238,0.12891883,-0.15639368,9.765871
351570757642434,0.13451554,-0.18155584,9.794994
351570777498050,0.10755758,-0.17000802,9.837869
351570797353667,0.09018909,-0.123298414,9.869009
351570817209282,0.10862082,-0.09934259,9.832121
351570837063388,0.1396211,-0.114718616,9.751872
351570856919005,0.10811238,-0.15628974,9.7473
351570876774620,0.1405492,-0.21500772,9.749948
351570896630236,0.16201109,-0.20381935,9.748187
351570916485853,0.13228568,-0.087443456,9.78702
351570936332033,0.14847267,-0.050451547,9.82893
351570956187393,0.17173404,-0.12536885,9.802001
351570976042754,0.13794082,-0.13926685,9.793622
351570995898113,0.13064097,-0.09135747,9.819362
351571015753601,0.15701424,-0.099096425,9.811726
351571035608962,0.13635562,-0.09243656,9.822925
351571055460440,0.073291846,-0.08760828,9.7982
351571075315672,-0.0051663485,-0.14140339,9.769251
351571095171033,-0.017706113,-0.24774496,9.777241
351571115026264,0.007925606,-0.27436885,9.783696
351571134878772,3.8054743E-4,-0.24171564,9.774751
351571154734005,0.018136205,-0.15942015,9.793814
351571174589236,0.025231678,-0.09328106,9.778366
351571194444468,0.034152236,-0.1182117,9.793186
351571214299573,0.084915176,-0.16072565,9.788012
351571234157911,0.111015625,-0.17611232,9.803286
351571254013143,0.106403865,-0.18061835,9.851816
351571273868376,0.08030132,-0.1611523,9.803252
351571293723607,-0.0012082411,-0.07471712,9.803594
351571313578840,0.08098774,-0.07050824,9.844665
351571333434073,0.20219187,-0.110490404,9.810941
351571353284220,0.26350456,-0.07080783,9.774531
351571373139325,0.23688975,-0.051555827,9.798588
351571392994430,0.16666284,-0.14314315,9.7884655
351571412849535,0.027760075,-0.17850111,9.78684
351571432708868,-0.012178741,-0.14088646,9.798392
351571452563973,0.016125934,-0.19092251,9.833742
351571472419206,-0.015132361,-0.20052059,9.855245
351571492274311,-0.0708936,-0.12480733,9.829056
351571512129544,3.5120777E-4,-0.13397026,9.805287
351571531984649,0.03977702,-0.2043866,9.767677
351571551835164,0.05792003,-0.28822413,9.733955
351571571690141,0.04641205,-0.2246879,9.769328
351571591545246,0.053988274,-0.1759169,9.754895
351571611400223,0.057721578,-0.17788878,9.743435
351571631255328,0.07615411,-0.1747731,9.804968
351571651114211,0.0936683,-0.19278108,9.832795
351571670969316,0.099873155,-0.21494888,9.827118
351571690824421,0.08030916,-0.20781945,9.840541
351571710679398,0.0582903,-0.1572514,9.82817
351571730534703,0.066619344,-0.14922687,9.80998
351571750389808,0.11746211,-0.1710038,9.824285
351571770244892,0.18328984,-0.18666387,9.811884
351571790099868,0.18728486,-0.15280412,9.777342
351571809954973,0.19486311,-0.13777159,9.76135
351571829807657,0.23856844,-0.17512,9.769601
351571849665187,0.21459328,-0.22563715,9.750939
351571869520420,0.12647821,-0.22025177,9.817972
351571889375651,0.06684383,-0.1615352,9.848408
351571909230755,0.05990948,-0.16868962,9.779284
351571929085988,0.0312752,-0.14964308,9.815354
351571948944872,0.044769995,-0.18620947,9.794603
351571968800105,0.11283084,-0.25531936,9.727124
351571988655338,0.1247461,-0.15188985,9.745253
351572008510699,0.11365632,-0.12918684,9.738187
351572028372322,0.07642516,-0.15441376,9.736672
351572048227811,0.025074728,-0.095343344,9.685584
351572068083298,0.13743985,-0.17142403,9.700839
351572087938786,0.19647472,-0.21983974,9.706416
351572107794275,0.1658981,-0.14470878,9.656987
351572127649634,0.12339216,-0.07922193,9.663928
351572147510504,0.10904365,-0.10344358,9.673618
351572167365993,0.12380761,-0.16381791,9.639788
351572187221608,0.13380626,-0.17303027,9.636877
351572207077096,0.13755362,-0.1484643,9.671638
351572226932713,0.10243052,-0.13156156,9.650741
351572246789940,0.07132708,-0.1136989,9.638105
351572266645556,0.08290024,-0.104090646,9.613438
351572286501173,0.12986723,-0.16784981,9.553863
351572306356788,0.14005645,-0.16353294,9.561106
351572326215453,0.11109754,-0.13687998,9.575661
351572346071198,0.09359654,-0.14228559,9.560416
351572365926813,0.06221287,-0.15313374,9.588983
351572385782557,0.06853993,-0.12867044,9.617274
351572405638302,0.09905723,-0.18090238,9.606291
351572425494045,0.10750685,-0.21852544,9.536212
351572445349021,0.11218221,-0.24152447,9.505182
351572465204638,0.14210708,-0.23695314,9.529868
351572485060381,0.11208605,-0.21117024,9.53575
351572504916125,0.022110593,-0.12354966,9.520361
351572524771870,0.015731907,-0.15468234,9.505225
351572544626162,0.079101555,-0.23738094,9.442246
351572564481778,0.09106014,-0.27718884,9.459801
351572584337523,0.08140601,-0.24879372,9.525705
351572604193138,0.06864539,-0.18729787,9.490413
351572624048882,0.068215705,-0.13586438,9.4118185
351572643904499,0.10491999,-0.15496932,9.335985
351572663762284,0.10559589,-0.20516285,9.320683
351572683618028,0.06336254,-0.19035837,9.334935
351572703473645,0.04606925,-0.17813285,9.295089
351572723329388,0.053254135,-0.22165298,9.337551
351572743182877,0.066238225,-0.15081254,9.412734
351572763038494,0.0726224,-0.16590126,9.424019
351572782894109,0.05993138,-0.19388884,9.373845
351572802749853,0.060528867,-0.17587681,9.34233
351572822605470,0.075802125,-0.19173723,9.289614
351572842464517,0.071172096,-0.19709979,9.263744
351572862320261,0.0906959,-0.19459131,9.27204
351572882176006,0.10967824,-0.20574747,9.283143
351572902031749,0.09521573,-0.19384031,9.245124
351572921887621,0.11580857,-0.16736703,9.251439
351572941743366,0.12722339,-0.175759,9.295211
351572961595490,0.07139272,-0.18144651,9.294237
351572981451234,0.06621228,-0.15082577,9.233058
351573001306851,0.09085964,-0.17992944,9.241502
351573021162594,0.05931348,-0.19181438,9.308856
351573041006959,0.015504003,-0.14806502,9.312882
351573060862448,-0.036642767,-0.07718951,9.240746
351573080718063,-0.017910887,-0.0923997,9.241341
351573100573551,-0.02392178,-0.19951805,9.249593
351573120429040,-0.028230391,-0.21874247,9.206658
351573140276108,-0.04192008,-0.16496786,9.195996
351573160131468,-0.0715377,-0.0957871,9.202837
351573179986701,-0.09035946,-0.07341934,9.202527
351573199842062,-0.08173931,-0.07851229,9.255246
351573219697295,-0.06253965,-0.13608423,9.245999
351573239552656,-0.017996734,-0.1943398,9.203059
351573259404091,0.0018566052,-0.10903217,9.212515
351573279259324,-0.008030162,-0.10639067,9.281629
351573299114685,-0.09707779,-0.10789136,9.2140045
351573318969918,0.009867264,-0.09348246,9.2744
351573338819359,0.11212393,-0.10700269,9.306642
351573358674464,0.15957919,-0.2198825,9.271766
351573378529569,-0.16770248,-0.09420352,9.068344
351573398384546,0.006097286,-0.2996205,9.339751
351573418239651,-0.010471724,-0.33691964,9.153563
351573438094756,0.06497311,-0.30186385,9.285516
351573457947783,-0.0773487,0.061696973,9.150671
351573477802760,-0.07632423,-0.10491921,9.2230835
351573497657737,-0.036689978,-0.20056905,9.240874
351573517512586,-0.13853809,-0.27616283,9.211599
351573537367563,-0.04332118,-0.2085523,9.234006
351573557216310,0.043402936,-0.20131344,9.41246
351573577071031,-0.15938917,-0.17936067,9.15429
351573596925880,-0.31129682,-0.12620123,9.18655
351573616780601,0.041342076,0.04584574,9.274988
351573636641469,-0.107829966,-0.32539907,9.138289
351573656496318,-0.20856237,-0.2837751,9.225239
351573676351167,-0.20189379,-0.22169365,9.274692
351573696206016,-0.04325339,-0.081544906,9.20878
351573716060993,-0.17939173,-0.2064811,9.181921
351573735915842,-0.12958446,-0.32531273,9.289584
351573755768465,-0.08360747,-0.4088449,9.32828
351573775623314,-0.14337772,-0.19366194,9.248778
351573795478156,-0.08421958,0.13374382,9.135774
351573815333004,-0.059270717,0.017975356,9.193717
351573835187853,0.005888051,-0.24892178,9.368903
351573855041588,-0.107311614,-0.44262466,9.42016
351573874896436,-0.2257109,-0.31690153,9.122455
351573894751285,-0.12727416,-1.2028623E-4,9.1401005
351573914606132,0.040493898,0.03362857,9.26211
351573934468087,-0.1603641,-0.23841588,9.173709
351573954323064,-0.14410163,-0.27680492,9.236801
351573974178039,-0.07177859,-0.09005866,9.086369
351573994033015,0.06043131,0.018286679,8.972056
351574013887992,-0.15189852,-0.045430344,8.991299
351574033742967,-0.21611896,0.048241675,9.138739
351574053603276,-0.04947238,0.044820946,9.267339
351574073458381,0.04479657,-0.12259243,9.222299
351574093313356,0.13663678,-0.123320125,9.249271
351574113168460,0.06061998,-0.06189379,9.34737
351574133023437,-0.054859087,-0.12998065,9.347329
351574152884112,-0.2361627,-0.33199033,9.219821
351574172739216,-0.26910278,-0.46385255,9.062476
351574192594449,0.122523434,-0.168963,9.225323
351574212449552,0.08308252,-0.13626857,9.22914
351574232304517,-0.12127303,-0.1529687,9.338185
351574252159750,-0.13314979,-0.030270588,9.26634
351574272014983,-0.1344463,-0.13148823,9.21992
351574291870216,-0.13832764,-0.30350515,9.229463
351574311725449,-0.14849691,-0.21711166,9.201762
351574331580682,-0.05554453,-0.043376535,9.11456
351574351436835,0.0154388305,-0.06947868,9.255376
351574371292196,-0.099327765,-0.21413766,9.156956
351574391147429,-0.07072619,-0.28476012,9.217965
351574411002790,-0.2050355,-0.22337413,9.28768
351574430858023,-0.0688318,-0.08829353,9.2630415
351574450723562,0.015426999,-0.06423169,9.354159
351574470579179,0.13308956,-0.075240746,9.445808
351574490434668,0.14022973,-0.25969353,9.334245
351574510290285,-0.061204527,-0.3604642,9.290216
351574530145774,0.093880855,-0.21695295,9.261127
351574550001391,-0.08922161,-0.26230705,9.196215
351574569863072,-0.18480587,-0.11738175,9.30104
351574589718817,-0.08962131,-0.08940468,9.341548
351574609574562,-0.078543514,-0.17842573,9.311436
351574629430307,-0.0676457,-0.16103528,9.212788
351574649286100,-0.1706446,-0.20825496,9.37584
351574669141845,-0.15396488,-0.04421462,9.417066
351574688997462,-0.20716166,0.060995813,9.363624
351574708853186,-0.13463284,0.008478678,9.414258
351574728708931,-0.11307836,-0.15740724,9.443558
351574748566444,-0.12835665,-0.28245243,9.439871
351574768422314,-0.21598485,-0.30844223,9.351105
351574788278059,-0.13999295,0.08144031,9.382056
351574808133802,-0.34488323,-0.06252881,9.268694
351574827989546,-0.35719696,-0.009490284,9.382888
351574847845291,-0.21577643,0.053271774,9.5095215
351574867698951,-0.055731747,-0.21954614,9.54189
351574887554695,0.27627861,-0.21589255,9.492692
351574907410440,0.062465012,-0.04565503,9.312321
351574927266055,-0.1093207,-0.0510581,9.524788
351574947114108,-0.2657354,-0.38963223,9.387133
351574966969597,-0.18820621,-0.25356132,9.33503
351574986825214,0.15769278,-0.029108819,9.621221
351575006680831,0.40440446,0.20136876,9.553722
351575026536320,0.14934677,0.13849235,9.505074
351575046389509,-0.3285337,-0.10322408,9.441004
351575066245121,-0.3966519,-0.44540086,9.4802265
351575086100610,0.037727814,-0.42254364,9.645615
351575105956225,0.05346588,-0.39794183,9.471799
351575125811713,-0.2495266,-0.4404807,9.590149
351575145667330,-0.25169212,-0.27939987,9.870865
351575165518046,-0.018634787,-0.16038372,9.851926
351575185373406,0.17478634,-0.13213494,9.645959
351575205228895,0.07473013,-0.12140514,9.55474
351575225084254,-0.31676817,-0.070852384,9.599224
351575244937670,-0.23119903,0.05139813,9.675961
351575264793159,0.12039167,-0.051038045,9.660393
351575284648518,0.19992474,-0.44580022,9.695799
351575304503878,-0.0876737,-0.542051,9.706462
351575324359367,-0.3480109,-0.1853142,9.729873
351575344214726,-0.22960322,0.16062488,9.765712
351575364064263,0.32762343,-1.2678293,9.677853
351575383919496,0.4762758,-1.421329,9.715109
351575403774729,0.4193018,-1.4608097,9.756061
351575423629962,0.19409005,-1.4484862,9.889112
351575443485195,0.19556186,-1.201534,10.087782
351575463337484,0.76936525,-0.7262305,10.099791
351575483192589,1.1527042,-0.56655955,9.208875
351575503047822,-1.6928813,-1.3537515,7.125625
351575522902927,-4.1762104,-2.152231,10.987294
351575542759202,-5.900211,2.284649,5.5633035
351575562614435,4.8171945,-5.6984115,10.911419
351575582469540,4.833118,-6.1709456,11.972279
351575602324773,5.0491095,-6.476318,10.061373
351575622179878,4.1566243,-8.033368,8.699538
351575642035111,3.3939965,-7.226482,8.002388
351575661896158,1.2220728,-7.055436,7.458724
351575681751391,-0.5623765,-2.806394,9.938859
351575701606752,-2.095979,0.14901277,11.09094
351575721461985,-0.4598155,-1.1422551,9.3148
351575741317218,-0.62395585,1.7191703,10.044897
351575761145613,-0.55923843,4.213436,9.868886
351575781000315,0.33886832,1.5839447,8.213204
351575800855164,-0.14665186,-0.4925611,9.218068
351575820709883,-1.6304184,-0.6199729,9.619508
351575840562860,-1.5945619,-0.065059975,9.5193815
351575860417581,-0.5613476,0.34178776,8.850703
351575880272428,0.0056432616,0.38087752,8.379537
351575900127148,-0.014059454,0.87009203,8.763453
351575919981869,-1.0640556,1.6451834,9.655246
351575939836716,-3.046336,2.4611528,10.468477
351575959697733,0.11247849,1.5949126,12.1611185
351575979552582,2.3185668,-2.2022038,9.95728
351575999407429,0.355881,-6.7094936,6.4447556
351576019262149,5.6023116,-4.6584044,10.601882
351576039116998,5.32755,-0.5133326,11.47006
351576058977352,4.817412,0.46210486,11.523677
351576078832328,3.6071603,-1.63996,11.249643
351576098687305,6.3112,-6.412091,10.230822
351576118542280,4.144857,2.0707536,12.569722
351576138408138,1.4247241,7.905543,11.435772
351576158263243,1.9502195,-0.70025766,9.22595
351576178118474,-7.165936,1.8053051,5.7890654
351576197973579,-4.3027077,3.4695554,6.212596
351576217828812,-1.4918377,3.2092023,8.8103895
351576237683917,0.046369206,1.8488452,10.304405
351576257545220,1.4902426,0.59984165,9.973093
351576277400581,3.3564677,-1.2799493,8.673977
351576297255814,2.7644515,-1.1134228,9.007671
351576317111175,0.8058763,2.3516026,11.383374
351576336966536,0.85282433,6.7689996,13.484807
351576356829911,-1.2289091,-7.5538626,6.4017477
351576376685528,-0.4606789,-5.1899967,7.13864
351576396541017,1.8886293,5.084103,13.632374
351576416396506,2.133927,-0.39156407,12.909581
351576436252123,1.3022525,-1.7051743,14.254127
351576456107612,0.1925025,-1.1528131,14.253379
351576475970427,-1.0918188,-0.79558533,14.047932
351576495826172,-1.5561538,-0.7193539,15.447241
351576515681789,-0.5075629,0.8237819,14.855543
351576535537534,-0.88693,1.151144,13.822854
351576555392031,-2.2915452,-0.138881,11.530608
351576575247648,-2.223534,-0.25720236,9.007154
351576595103393,-3.6999538,-0.72699857,7.767144
351576614959138,-2.4501803,1.598957,8.147554
351576634814883,-1.4874986,2.781118,6.1849194
351576654671331,2.9080935,-1.9019332,7.704123
351576674527076,1.4844413,-2.9796572,9.358285
351576694382821,-1.2394693,-1.0262138,14.535657
351576714238566,3.4208322,-2.2744517,10.15962
351576734094311,7.028869,1.2963736,4.0831413
351576753950056,-3.0944605,-0.27575332,7.3772306
351576773807543,-5.463118,-1.7100476,11.838182
351576793663410,2.4020839,4.2926784,10.429736
351576813519155,2.7152245,4.754636,9.885003
351576833375026,2.8325331,2.5694175,11.305807
351576853228566,1.6376207,2.1715672,11.878307
351576873084311,1.6354918,3.074043,10.727022
351576892940054,2.3494017,3.621507,9.470889
351576912795926,3.632042,3.7996118,9.376506
351576932651671,5.11462,4.036308,8.612435
351576952499495,3.624409,3.3789494,7.5686536
351576972355111,2.2629793,2.5924253,6.861359
351576992210856,2.5621927,1.4104408,6.3709855
351577012066471,2.3139694,0.09204817,6.8858495
351577031922215,2.2434185,0.88257116,8.100745
351577051777832,2.2303789,2.220221,9.09586
351577071628547,0.114212416,1.0558605,8.863753
351577091484163,0.32590792,-1.3108296,8.340287
351577111339780,0.8737228,-1.3994545,9.073656
351577131195267,-1.0174669,-1.0892888,10.850904
351577151049062,-0.6205859,-3.55083,8.723004
351577170904679,5.056942,-3.979551,9.935345
351577190760166,4.364891,3.4567943,11.617801
351577210615782,8.450282,2.3505123,6.4507437
351577230471399,5.8796754,-0.71804106,7.111458
351577250326888,6.7460284,1.7465585,7.5187793
351577270176087,5.5504227,1.5676805,8.330105
351577290031576,4.0998516,2.1694233,9.757074
351577309887193,1.6436123,2.120239,10.109814
351577329742682,0.614388,1.5951053,9.679071
351577349598171,-0.14379013,1.3284261,8.912368
351577369438018,-2.8078213,1.0424461,8.322143
351577389292995,-4.833059,0.6544177,8.633742
351577409147844,-3.5944643,0.7320658,10.181253
351577429002821,-0.5944054,-1.0583938,9.284616
351577448860108,-4.511072,-0.6914945,7.3422585
351577468715085,2.0026374,-0.88059115,7.7581716
351577488570062,4.3209734,1.1258403,11.303224
351577508425039,-1.4298241,0.72673243,10.209459
351577528280016,-4.283358,0.38940093,9.685118
351577548134865,-4.0975885,-0.34362444,8.958646
351577567990410,-2.5792918,-1.6439146,8.171845
351577587845387,0.15714566,-1.40598,9.924986
351577607700364,-2.160601,-0.60583365,10.445659
351577627555341,-2.5106256,-1.0333256,10.039438
351577647410318,-1.4750469,-1.5425448,9.349583
351577667264643,-0.37203595,-1.7734557,7.9498224
351577687119469,0.26271722,-1.3967923,8.323438
351577706974446,-2.5847595,-2.3501964,8.177061
351577726829295,-2.0624633,0.17001198,11.26222
351577746636420,1.5920951,0.8170972,10.466989
351577766490373,4.1317344,0.84152585,9.370644
351577786344321,0.99825716,0.9291564,10.885214
351577806198401,-0.27361,-1.0547032,8.568563
351577826052354,0.13460256,-1.2510738,6.7789855
351577845906305,1.3048309,-0.36463854,8.471576
351577865774102,0.8751167,0.1378509,10.518748
351577885628311,-0.1579651,0.5002856,10.771367
351577905482518,-0.048059717,0.73811483,10.535857
351577925336726,1.4809266,-0.17596857,7.708484
351577945190935,1.0575076,-0.44728342,8.827122
351577965056329,1.7800083,0.89469093,9.1009445
351577984910793,3.2904494,3.8369808,10.729467
351578004765130,-3.9468167,3.0487096,10.522138
351578024619465,-6.9897046,-1.6957335,8.811665
351578044481488,-0.25996807,-0.38436982,10.7146635
351578064336081,1.3610682,2.9515674,11.870229
351578084190544,0.83057785,2.9673443,11.177772
351578104045136,0.85779536,1.8878689,10.444374
351578123899601,0.061429325,0.9899688,10.3426695
351578143754192,-1.1185411,-0.1430905,7.9235334
351578163617965,-2.4827054,-1.6017376,6.340503
351578183472686,2.040394,0.6135241,5.8987074
351578203327405,3.261805,6.140234,15.13685
351578223182125,0.31840324,3.0601008,15.447225
351578243036846,0.5158739,-2.6314692,7.3767776
351578262895753,-0.6809363,-3.6431744,8.926276
351578282750601,-0.20921367,-2.5374017,8.889488
351578302605322,0.802312,0.065666266,7.9229565
351578322460169,0.17047033,2.4621918,11.273762
351578342314889,-0.6930051,0.5135972,10.996497
351578362169738,-0.48838407,-0.64060956,10.128626
351578382037200,0.06147301,-1.4223042,9.172512
351578401892304,0.5863488,-0.39405608,8.523738
351578421747409,1.7960391,1.3848071,9.42647
351578441602384,0.25207865,0.47005978,9.451519
351578461473087,-0.60475814,-0.47872105,8.636999
351578481328576,1.4275732,0.97723234,9.547672
351578501184063,0.004972939,2.271813,9.764455
351578521039423,-1.1015804,2.0288842,10.618955
351578540894912,-0.12673879,-1.4119982,10.8214655
351578560756322,0.13250892,-2.6259234,9.956962
351578580611810,-0.07405299,-1.5487965,9.657299
351578600467427,0.57114244,-0.14059559,9.556896
351578620322914,0.87780386,0.9265095,8.999745
351578640178530,0.52594274,0.62795854,8.790011
351578660034147,0.14449312,-0.47273287,9.20811
351578679898460,0.08427242,-0.8024297,10.464632
351578699754204,-0.12199826,-0.4383091,11.379222
351578719609949,-0.60299844,0.3426966,11.354157
351578739465692,-0.44651303,0.9328834,10.468244
351578759322548,0.10529554,1.0373513,9.569897
351578779178421,0.4149635,0.14301004,9.429282
351578799034292,0.4461035,-0.5941372,9.601773
351578818890164,0.32934624,-0.5920498,9.896646
351578838746037,0.24884489,-0.29755953,9.611315
351578858604765,0.29480985,-0.06192901,9.150533
351578878460637,0.2391753,-0.0052317753,9.351606
351578898316638,0.437292,-0.051859155,9.7316475
351578918172509,0.10788547,-0.37284508,9.69691
351578938028509,-0.0073936246,0.055855874,9.72121
351578957884510,-0.07953291,0.3741951,10.038536
351578977740601,-0.23301338,0.3178184,10.46722
351578997596601,-0.26992062,-0.029679831,10.429905
351579017452730,-0.055571448,-0.49566346,10.031574
351579037308729,0.1897546,-0.36405557,9.707882
351579057162335,0.25403804,0.172642,9.740606
351579077018464,0.13402589,0.2710272,9.931588
351579096874591,0.12021938,-0.04253486,9.739051
351579116730719,0.24542366,-0.25354338,9.563761
351579136586848,0.25598252,-0.15259035,9.672566
351579156438459,0.08411392,0.17551462,9.799444
351579176294587,-0.053540513,0.31170446,9.83401
351579196150716,0.09027962,0.16831255,9.668606
351579216006843,0.13874228,-0.24882334,9.689359
351579235862971,0.035643388,-0.042766236,9.804575
351579255719100,0.03293107,0.23855692,9.809031
351579275572289,-0.01002568,-0.07637934,9.717823
351579295428417,0.0026313947,-0.057655785,9.926495
351579315284546,0.1111067,-0.019416768,9.573584
351579335140801,0.4766327,0.40041763,9.200986
351579354969866,0.18361244,0.4532263,9.69367
351579374824971,-0.06924663,0.46610808,10.273471
351579394680202,-0.11300574,-0.020568186,10.578179
351579414535434,0.20344992,-0.32257026,9.555401
351579434390667,0.23138674,0.38699555,8.910061
351579454245770,0.22205123,0.4272854,9.812463
351579474100580,-0.072246835,-0.5156901,10.346348
351579493955813,0.17239335,-0.9517048,10.300413
351579513811044,0.37286365,0.04647807,10.261715
351579533666276,-0.3300382,0.32444617,10.148489
351579553521509,0.013976761,0.21420445,9.115095
351579573377046,0.06951223,0.9031311,9.408756
351579593232278,0.5587189,-0.40328738,9.668147
351579613087383,0.6875427,-1.0386205,9.355743
351579632942614,0.09269523,-0.51876545,9.385829
351579652791597,-0.38077575,-0.27469158,10.149189
351579672646702,-0.07917263,-0.16666381,10.429368
351579692501677,-0.124784395,0.48120847,9.581851
351579712356653,-0.15545489,0.37421176,9.564996
351579732211758,0.20030794,0.20946696,9.954328
351579752066733,0.38593623,0.09845394,10.006037
351579771916906,-0.055890113,0.37184444,10.03558
351579791771755,-0.30656564,0.45493144,10.027057
351579811626730,0.051636104,0.14490205,9.867945
351579831481578,0.5496569,-0.17480218,9.438794
351579851336555,0.7555815,-0.25755617,9.566034
351579871189599,-0.1464085,0.11703615,10.171786
351579891051697,-0.4293042,0.24127045,9.860285
351579910906418,0.073292024,0.031124543,9.536604
351579930761265,0.5802759,-0.059847303,9.5660515
351579950623641,0.45382863,-0.116824076,9.728312
351579970478490,0.026583238,0.4061383,9.774243
351579990333337,0.03320555,-0.16615929,9.786278
351580010188313,-0.06485945,0.021510204,9.326999
351580030043162,-0.2163769,0.58704257,9.587023
351580049898137,-0.40730974,-0.018949669,10.446837
351580069756709,-0.004459041,-1.0027126,10.886598
351580089611814,-0.06757367,-0.37958196,10.763747
351580109466789,-0.2711294,0.692451,10.342515
351580129321765,0.03072967,0.5270535,9.697908
351580149176870,0.48768362,0.19663915,9.247911
351580169039342,0.49085546,0.23497257,8.915808
351580188894574,0.08409413,0.6776341,9.108219
351580208749807,-0.25940463,0.6254741,9.605148
351580228604910,-0.10965671,0.22819145,9.720152
351580248463720,0.28605962,0.032144107,9.261154
351580268319081,0.5188982,-0.16864364,9.219307
351580288174312,0.02101277,-0.055174373,9.989406
351580308029672,-0.3741304,0.08241136,10.593222
351580327885033,-0.1946002,-0.14672066,10.669796
351580347740264,0.18616569,-0.071482055,10.069409
351580367596392,0.33292526,0.07182786,9.433307
351580387451625,0.1901394,0.3365585,9.516307
351580407306984,-0.2524435,0.47211325,9.985608
351580427162344,-0.13921392,0.074957184,10.127906
351580447017705,0.2780899,-0.17247097,9.819998
351580466878159,0.14780818,0.24920158,9.374045
351580486733647,0.15015064,0.26410085,9.456661
351580506589136,0.27406627,0.1588183,9.512557
351580526444623,0.09270388,0.044475242,9.771797
351580546300111,-0.0826759,-0.03206587,10.073189
351580566155600,0.27031177,-0.3873675,10.2623825
351580585969950,0.24581254,-0.43190166,10.122089
