UPTIMENANO,Ax,Ay,Az
3220193044640,-0.11190042,-0.10709641,9.907703
3220212903072,-0.06439864,-0.08588594,9.960187
3220232761377,-0.13938287,-0.08652007,9.975656
3220252619430,-0.1502414,0.0786489,9.797045
3220272477734,-0.05885172,0.16180515,9.670622
3220292336039,0.08813658,0.0991503,9.70887
3220312194470,0.24427311,-0.12950414,9.910889
3220332059552,0.24430393,-0.271708,10.001409
3220351918113,0.017048988,-0.25067994,9.8753
3220371776672,-0.1965618,-0.08628375,9.740726
3220391635232,-0.1864402,-0.025423849,9.767092
3220411493793,-0.102839015,-0.05336528,9.852759
3220431348030,-0.059400972,0.011731351,9.742586
3220451206590,0.01923543,0.017690567,9.584496
3220471065023,0.2671533,0.07384527,9.348503
3220490923582,0.5896406,0.020264126,9.395426
3220510782014,0.8542809,-0.17561118,9.636986
3220530640575,1.1298063,-0.16664182,9.480968
3220550486620,0.82286835,-0.01658231,9.435562
3220570344924,0.36755148,0.15224196,9.654052
3220590203101,0.86714274,-0.13038398,9.836191
3220610061404,0.85625994,-0.43683326,10.084379
3220629915497,0.51567096,-0.32783183,10.336869
3220649773802,0.58937305,-0.50390565,10.4459505
3220669631977,-0.07310804,-0.36065918,10.335334
3220689490153,-0.27718434,-0.11812192,9.993683
3220709348330,0.416146,-0.1430661,9.718911
3220729197684,0.62977046,-0.3212854,9.930211
3220749055604,0.37179092,-0.4252524,9.964795
3220768913653,0.35791898,-0.20211513,9.468117
3220788771572,0.42529613,-0.1180196,9.3514
3220808629620,0.45502234,-0.31821752,9.629561
3220828487541,0.23744093,-0.45507222,9.620106
3220848348800,-1.203081,-0.081207655,9.31247
3220868206848,-3.9192383,-1.5941875,13.420566
3220888064897,0.82743996,-1.1922141,10.916717
3220907922944,2.1641605,-0.3063396,9.672828
3220927786319,1.3965266,-0.81019723,11.21994
3220947644496,-0.08272914,-1.497727,12.494037
3220967502671,-0.6040162,0.58898574,8.739126
3220987360719,-0.6357705,1.9111719,7.0181794
3221007218896,-0.75341773,0.39527056,9.248175
3221027077071,-0.17829864,-0.962143,10.41916
3221046926397,-0.2885916,-0.54587793,9.883586
3221066784318,-0.790145,0.5122732,8.85582
3221086642237,-1.0579942,0.6829957,9.487311
3221106500157,-0.05634222,-0.19693975,10.309916
3221126358078,1.2331414,-0.49769062,10.025748
3221146214467,0.3038618,-0.27831537,9.848407
3221166072387,0.2153464,0.035589173,9.553827
3221185930180,0.28887168,0.25367203,9.414541
3221205787971,0.6676106,-0.531058,10.469329
3221225644678,0.7989457,-1.1621172,10.361493
3221245502471,0.091380164,-0.038532507,9.212926
3221265360262,-1.1375635,0.9348495,8.9275255
3221285218054,-1.2866684,0.5086692,9.324699
3221305075719,-1.1631126,-0.1431296,9.563726
3221324933510,-0.7559109,-0.8463866,9.956256
3221344798421,-0.5740623,-0.54505676,9.867971
3221364656342,-0.7184373,-0.019404674,9.725938
3221404848978,-0.40624946,-0.21505621,9.680705
3221424706898,0.23500642,-0.32838592,9.46465
3221444564819,0.14171183,-0.4488223,9.762586
3221464429304,-0.5359985,-0.3646721,10.00402
3221484287352,-0.62891686,-0.19074167,9.878931
3221504145401,-0.15789041,-0.6279037,10.394752
3221524003448,0.6172191,-1.3584616,10.9182825
3221543859072,0.59940475,-1.0193574,10.573093
3221563717121,0.62246114,-0.759103,9.841721
3221583575168,0.3652017,-0.418812,9.475407
3221603433088,-0.3292946,-0.40805653,9.216906
3221623291137,-0.47071755,-0.13304116,8.9186735
3221643149056,-0.521899,-0.09748967,8.502453
3221663011846,-0.2817914,-0.58707976,8.780656
3221682869895,-0.11369465,-1.2850564,9.084555
3221702727942,-0.19378738,-1.4190909,9.173796
3221722585990,0.22866154,-1.275361,9.114776
3221742444167,0.8722988,-1.1120509,9.242508
3221762302054,-0.5159626,-0.8397211,10.509192
3221782160230,-0.69106174,-0.51675785,10.346604
3221802018407,0.84074336,-0.4891957,7.798168
3221821876454,-0.8122536,-0.005429306,8.741066
3221841739482,-2.0841858,0.2892807,10.685079
3221861597787,-1.3879099,-0.25327674,9.916771
3221881456090,-0.5085592,-0.3629948,9.302395
3221901314266,-0.5491095,-0.17151666,9.283612
3221921172571,-0.7875852,-0.13194469,9.292413
3221941030874,-0.5565637,-0.3594432,9.807534
3221960898802,-0.65650773,-0.4313274,10.276055
3221980757363,-0.9351329,-0.40758008,10.402874
3222000615922,-0.46555683,-0.59860635,10.584075
3222020474482,-0.48959053,-0.5308295,10.587121
3222040333043,-0.52819014,-0.33529702,10.426031
3222060189249,-0.10630546,-0.3945842,10.464069
3222080047809,-0.026155772,-0.8724906,10.368867
3222099906370,0.0022549927,-1.2633404,9.868225
3222119764929,0.19227527,-1.2837058,9.4362335
3222139623489,0.21835165,-1.6311115,9.418501
3222159481922,0.12841867,-1.761046,9.260325
3222179335044,-0.4124644,-1.2418256,9.090134
3222199193476,-0.9640741,-0.6583031,9.255361
3222219051909,-0.7908985,-1.0928313,9.930637
3222238910212,-2.0430214,-1.6695166,7.956223
3222258766486,-2.8468535,-0.38577422,8.71606
3222278624791,-1.2521248,-0.19355404,7.51168
3222298483094,-0.13388136,-2.5311427,9.126455
3222318341398,0.5524896,-1.5946406,10.629719
3222338199831,0.85495776,1.0234227,10.915792
3222358057852,1.1944653,2.2959015,10.098584
3222377916156,1.9702003,-0.5359826,6.7927256
3222397774460,3.2516878,-2.374419,0.7383647
3222417632764,1.7514108,-0.73346376,3.4376073
3222437491068,2.0699785,-1.3570162,7.3826213
3222457350062,2.3247879,0.31876338,8.030546
3222477208366,2.3014274,0.05483114,6.841891
3222497066670,2.2645772,-1.9295903,4.2827706
3222516924974,1.8594095,-4.6406236,4.5731745
3222536783278,2.1968942,-5.306325,7.836543
3222556634536,3.5420244,-5.3340263,9.73822
3222576492712,4.0898027,-4.934053,10.493549
3222596351016,4.3290777,-5.1006446,12.242692
3222616209192,3.2474945,-4.8873186,14.629461
3222636067368,1.0951227,-4.536751,16.795628
3222655923264,-2.1136954,-2.4917986,17.101492
3222675781312,-2.9514086,-2.0602078,17.648802
3222695639488,-4.382309,-1.5261729,17.054129
3222715497664,-4.2650814,-1.3487836,13.924219
3222735355712,-4.2418756,3.0417914,17.198587
3222755210871,-3.728305,4.8878922,16.51673
3222775068919,-2.5130556,4.0251493,14.177963
3222794926967,-1.6944438,3.2401848,12.262291
3222814785015,0.12873375,4.1781974,11.246717
3222834643063,0.9964405,4.2499204,11.166556
3222854494857,0.7390764,4.3637505,11.141631
3222874352777,1.4151684,3.1548762,11.219965
3222894210697,3.0331357,1.4893829,9.997036
3222914068617,2.6344059,0.6252317,10.539908
3222933926409,-0.85279363,0.024958614,10.577374
3222953790552,1.4545695,1.423848,8.835347
3222973648472,2.6570444,0.61912113,12.018471
3222993506520,1.4156747,1.3122959,14.1117
3223013364568,0.124871865,2.9445202,12.918365
3223033222488,-1.8097482,0.07023365,11.086598
3223053078549,-3.8312624,0.05659538,10.930313
3223072936597,-4.7510247,3.0812032,11.471043
3223092794517,-3.8037014,1.9913031,11.057329
3223112652565,1.9412016,1.8648016,10.195926
3223132510485,-3.094564,0.34982023,9.180573
3223152369258,-3.127477,1.9626949,7.4021697
3223172227178,2.4213302,2.2655005,5.161194
3223192085226,3.33141,0.34043235,5.3523808
3223211943146,0.77367574,1.1980339,7.2280846
3223231801194,-1.283019,3.2220604,8.551572
3223251658613,-1.1020985,1.6581372,7.7478514
3223271516533,-2.0209308,2.7634509,8.185973
3223291374581,-3.779192,2.6828372,7.9267235
3223311232501,-2.285346,0.82938474,6.365048
3223331090549,-0.7176888,1.5017458,6.4199023
3223350952187,-0.67972827,2.1450744,8.863599
3223370810235,-2.3801062,0.552988,9.128898
3223390668155,-0.9284783,-0.7811858,7.57962
3223428321893,-0.30600354,-1.0509607,5.8479323
3223448179813,-0.40491763,0.0456646,6.7236614
3223468046516,-3.9672408,-0.27508333,10.356599
3223487904692,-5.162015,-1.517872,12.423946
3223507762868,-3.8451197,-1.8780297,12.346923
3223527621044,-0.11918816,1.0124353,9.628204
3223547479220,3.3968728,5.170982,9.948431
3223567337396,3.077838,4.5470757,11.270351
3223587200387,-2.2062976,0.054250218,13.76418
3223607058691,-5.5193977,-9.045917,13.393911
3223626916995,-0.13596855,-2.933709,12.558844
3223646775299,6.9848804,7.5945663,12.139471
3223666633603,1.5208551,-0.121799,11.232109
3223686492616,-2.1547654,-1.2788938,9.139919
3223706351048,-0.021150868,-1.8473898,11.604063
3223726209352,2.5961206,-1.2280242,9.398878
3223746067656,1.0157691,2.5812173,8.152298
3223765926088,-1.3505762,-2.0063949,13.6063595
3223785741550,-0.55962574,-1.2523031,12.974638
3223805599086,-0.51366377,0.66165537,9.902917
3223825456622,-0.6057656,-0.44119528,9.354936
3223845314158,0.59623396,-0.45971343,9.583214
3223865171694,-0.9973023,-0.27969864,10.485004
3223885036593,-0.8388912,0.7251975,9.382173
3223904894257,-3.4196758,-0.9086195,9.2745285
3223924751921,-0.12101648,0.87970287,8.350997
3223944609585,0.11329135,1.0333835,8.793897
3223964467249,-0.91686994,0.5739171,8.86384
3223984339089,-1.0697076,1.211783,8.947343
3224004197009,-1.7525481,1.5411235,9.259153
3224024055057,-2.282621,1.189455,9.948217
3224043912977,-2.228453,1.2499391,9.850181
3224063770897,-2.2897277,0.42720315,10.60491
3224083637545,-2.044987,0.09486104,10.984971
3224103495593,-0.9508162,-0.19600506,10.903746
3224123353769,0.7044613,-0.78128505,10.277524
3224143211945,1.1605676,-0.8007482,10.105433
3224163069993,-1.4257839,0.04270128,11.682741
3224182930369,-3.632925,-0.6507205,13.319378
3224202788545,0.23692957,-2.1505094,10.092971
3224222646593,3.0122097,-1.5656883,6.9951205
3224242504769,2.4300897,-0.52328324,6.910095
3224262362817,1.5867374,0.048369598,8.131619
3224282228179,1.1644269,0.10896161,8.8114195
3224302086483,1.612401,-0.46118852,10.283957
3224321944787,2.2956238,-0.94082344,11.540033
3224341802963,-2.1418362,2.3911383,5.1268206
3224361661267,-0.013928227,2.5922146,3.799003
3224381508007,2.5538244,1.1253088,3.5316772
3224401366055,1.9484414,0.9140457,2.5004315
3224421224103,0.56284255,1.4640096,2.1927443
3224441082151,1.0000045,-9.277902,21.3742
3224460940199,9.094924,-2.5076663,41.873325
3224480801727,15.3299055,1.2434963,4.302564
3224500659775,-2.7241757,2.657413,8.312642
3224520517823,-6.8881116,0.33058938,9.904313
3224540375999,-1.9590102,2.6639032,11.867593
3224560234047,1.6691915,2.9474676,11.021835
3224580097408,0.9653757,0.81058306,9.488323
3224599955584,0.84301186,-0.18121728,9.856342
3224619813760,0.7357102,0.32888833,10.493366
3224639672064,0.6345243,0.77348435,10.370523
3224659530240,0.8266508,0.4930039,10.186584
3224679389488,0.95112175,1.1724674,10.3809185
3224699247664,0.82844967,0.8041804,9.945268
3224719105968,0.47508493,1.6085355,9.8909
3224738964144,-0.9459109,2.64565,9.535809
3224758822320,-0.0036277394,0.045781575,10.022875
3224778685853,0.99890655,-0.19015242,10.281417
3224798544157,0.027852984,0.8901822,9.479956
3224818402461,-0.3062599,2.3541052,9.289433
3224838260893,-1.420243,-2.7056553,9.2745905
3224858119197,-3.2120867,-2.3697207,9.109851
3224877980303,-3.5317638,-0.33957344,9.753381
3224897838607,0.9204644,0.65480655,9.906509
3224917697039,2.1150544,1.1561209,9.859945
3224937555471,-1.0194055,1.906687,10.308768
3224957413775,-1.7109517,0.834135,9.102783
3224977281209,-1.786024,0.14681292,9.3733015
3224997139897,-3.069693,-2.4100263,9.823994
3225016998457,-3.4912176,-2.8784952,8.458525
3225036857146,-0.79090524,-0.030572709,7.774109
3225056715707,6.131597,3.2268147,7.6494007
3225076582544,5.662018,2.351623,9.4225235
3225096441486,-0.81529367,1.0331218,9.375889
3225116300302,-1.6839342,0.70535564,8.107282
3225136159246,-1.6802939,1.0053087,7.7315116
3225156018190,-0.9988632,1.9811943,7.699541
3225175881777,-0.16511708,-1.1138028,8.031902
3225195740849,0.06624795,-2.5750923,9.053013
3225215599921,-0.38259077,-2.261921,11.487998
3225235459121,0.33421117,-1.0608338,14.027865
3225255318193,1.4590645,1.4576086,14.306186
3225275174886,2.4452322,4.1006775,12.075382
3225295033958,2.4440732,1.2445138,9.712373
3225314893158,1.4201685,-3.45522,7.7931566
3225334752358,0.16509737,-2.656303,7.94535
3225354611558,-0.24035731,-1.4934657,8.682552
3225374447596,-0.8971595,0.281266,10.232189
3225394305900,0.27942905,0.33379662,10.938734
3225414164333,1.4069835,-0.8430801,10.719851
3225449592258,0.9820963,-0.90861726,10.168725
3225469450691,1.4527335,-0.66227627,9.713639
3225489317206,1.6511502,-0.16118684,10.048557
3225509175767,1.4712832,0.12765783,9.916699
3225529034324,1.0735162,0.03979901,9.578671
3225548892756,0.7575521,-0.4348095,9.532252
3225568751316,0.74367344,-0.6613596,9.52985
3225588611881,0.58950245,-0.50207275,9.463624
3225622088849,0.5430935,-0.42169654,9.244575
3225641947538,0.38850838,-0.5620521,9.276139
3225661806099,0.34970805,-0.85953444,9.418853
3225681664788,0.805395,-1.1240778,10.197987
3225701527389,0.6386138,-0.8295268,9.884628
3225721386206,0.39295974,-0.77622104,9.094147
3225741244895,0.46867022,-0.93262625,8.836341
3225761103712,0.6139737,-1.5279803,9.910378
3225780962401,0.8115448,-1.7516769,11.549134
3225800822382,0.5483255,-1.0508417,11.041204
3225820681199,0.11827227,0.7175737,10.396118
3225840540016,-0.15521252,2.5707996,9.80748
3225860398833,-0.7422095,1.8073052,9.533995
3225880257650,0.31914353,-1.0353543,9.713831
3225900114461,1.1108483,-3.6614454,9.272589
3225919973278,0.96080124,-3.814344,9.026187
3225939832095,1.008102,-1.1705843,9.649525
3225959690912,1.0030935,-0.108490355,10.001359
3225979549729,1.2257358,-0.12988879,9.941844
3225999401780,0.30308735,0.8074363,10.095818
3226019260469,0.5495906,-0.22798067,9.953309
3226039119030,0.93182516,-1.8200624,9.484063
3226058977591,1.0861127,-2.1841023,9.722369
3226078836152,1.1436738,-1.3764404,9.71468
3226098698742,0.8915054,-0.9013387,9.549192
3226118557431,0.30573824,-0.89692837,9.444669
3226138415992,0.036679797,-1.5747981,9.311907
3226158274681,0.01735352,-0.59631306,9.950199
3226178133370,0.33284277,-0.009385415,10.266512
3226197992059,0.3454945,-0.33140925,9.942035
3226217850886,0.132388,-0.32213777,9.800247
3226237709575,0.03351336,-0.95655745,9.673213
3226257568136,-0.06044824,-0.877601,9.851076
3226277426825,-0.18521792,-0.62247974,9.858348
3226297285514,-0.13617514,-0.6679707,9.759775
3226317142935,-0.06960577,-0.66486853,9.743222
3226337001496,0.07131696,-1.072346,9.712754
3226356860185,0.20415482,-1.191681,9.661495
3226376718746,0.24956976,-0.91013193,9.8276005
3226396577435,0.25961375,-0.75295806,9.680863
3226416435752,0.27453354,-0.6128929,9.809395
3226436294313,0.1487305,-0.77562314,9.802466
3226456153002,0.09880486,-0.9290708,9.613814
3226476011563,0.1503462,-0.87780213,9.808528
3226495870252,0.26809362,-0.9536571,9.781661
3226515721261,0.3779101,-0.96124977,9.789058
3226535579694,0.2892605,-0.8014104,9.838489
3226555438255,0.3508262,-0.5331101,9.853594
3226575296665,0.6103076,-0.40044597,9.724025
3226595155098,0.8616044,-0.34410724,9.641494
3226615007547,0.6717796,-0.5994388,9.731573
3226634865980,0.45050746,-0.8440137,9.855219
3226654724285,0.38694456,-1.0546107,9.862301
3226674582718,0.49436998,-1.3168805,9.713588
3226694441023,0.39421836,-1.1729081,9.748442
3226714304550,0.14399867,-0.6891251,9.853709
3226734163111,0.175913,-0.39163214,9.761273
3226754021544,0.27921304,-0.5197913,9.657145
3226773879977,0.26047876,-0.60143524,9.651402
3226793738538,0.23527448,-0.55484205,9.776398
3226813597945,0.20845252,-0.5496255,9.814706
3226833456378,0.17271611,-0.48903832,9.832046
3226853314939,0.21746027,-0.62606996,9.744425
3226873173372,0.21271503,-0.80526567,9.69453
3226893031933,0.18658163,-0.95558536,9.654475
3226912887756,0.20929262,-0.94872344,9.63066
3226932746061,0.14559647,-0.83871996,9.543083
3226952604494,0.11825513,-0.7394273,9.53213
3226972462927,0.18374617,-0.82878387,9.584013
3226992321232,0.35502812,-0.81266975,9.594234
3227012180757,0.40601692,-0.65043485,9.598558
3227032039062,0.25882125,-0.6407598,9.684495
3227051897473,0.0621362,-0.6732489,9.808155
3227071755778,0.08948525,-0.6866856,10.042808
3227091614211,0.5112704,-0.96008736,10.352298
3227111479262,1.102628,-1.359763,10.651268
3227131337823,1.01637,-1.1383497,10.346899
3227151196384,0.7082019,-0.46854013,9.759465
3227171054817,0.97751635,0.201518,9.37718
3227190913378,1.4070534,0.5976183,9.1887045
3227210768983,1.5648197,0.6340451,9.155999
3227230627416,1.1719908,0.4107114,9.274627
3227250485977,0.6676148,-0.12288661,9.703295
3227270344410,0.5573096,-0.359264,9.932717
3227290202843,0.5765782,0.06938716,9.757867
3227310064342,0.5196451,0.8470555,9.64415
3227329922903,0.3684928,1.5975592,9.625687
3227349781336,0.30782968,2.1513295,9.650804
3227369639897,0.6095818,1.8578961,9.614842
3227389498458,0.67731225,1.4077079,9.545383
3227409357969,0.72273463,1.3015575,9.577865
3227429216530,0.87565804,1.1006656,9.676655
3227449075091,0.72950566,1.1641741,9.803906
3227468933652,0.6150858,1.3638567,9.978257
3227488792213,0.6602542,1.3957821,9.976336
3227508652938,0.6868746,1.5266418,9.779054
3227528511606,0.7973533,1.780756,9.331866
3227548370167,0.8834871,2.0531483,9.102776
3227568228728,0.9047101,2.2848034,9.050303
3227588087289,0.730498,2.3307352,8.834775
3227607938670,0.50688046,2.3200352,8.884354
3227627797103,0.2550374,1.9743626,9.006799
3227647655536,0.41705832,1.5797334,9.1873045
3227667514097,0.44555253,1.209146,9.132989
3227687372530,-0.046474297,1.1662254,9.514417
3227707234115,-0.4028774,1.4060273,10.0406475
3227727092676,-0.3232435,1.830206,10.115009
3227746951237,-0.24551086,2.1667182,9.989596
3227766809798,0.3749906,2.2212245,9.584692
3227786668359,0.5507133,2.3442729,9.272758
3227806527302,-0.04674144,1.9124893,9.5035
3227826385863,-0.0828356,1.5476133,9.724517
3227846244424,0.3356136,1.6150428,9.826988
3227866103113,0.8443467,1.8230708,9.7516165
3227885961674,1.2404661,2.0627997,9.5110235
3227905809159,1.3119917,1.879689,9.3918295
3227925667592,0.91990805,1.6231424,9.435843
3227945525897,0.54845953,1.5958432,9.645315
3227965384330,0.40419427,1.4983467,9.7181
3227985242763,0.4516608,1.3753821,9.719265
3228005101173,0.6389729,1.2985744,9.711736
3228024968870,0.71108234,1.3043153,9.570678
3228044827559,0.6202344,1.3752712,9.5304985
3228064686120,0.53165436,1.4347607,9.586007
3228084544681,0.49533918,1.4286078,9.648115
3228104403242,0.59725374,1.467939,9.622477
3228124253641,0.72435343,1.5634494,9.55202
3228144112074,0.813,1.4250542,9.560311
3228163970507,0.8557539,1.2258781,9.5725975
3228183828812,0.8218307,1.1466136,9.619533
3228203687245,0.7581677,1.2397269,9.673084
3228223545214,0.7805231,1.3650078,9.700875
3228243403519,0.77193844,1.4646426,9.670815
3228263261824,0.75505435,1.4253278,9.6655445
3228283120129,0.74916935,1.2947536,9.6832485
3228302978434,0.75355357,1.204616,9.655917
3228322834617,0.7986214,1.2146738,9.634593
3228342692922,0.7685405,1.2206496,9.629787
3228362551099,0.74012536,1.2467432,9.637185
3228382409404,0.7634559,1.2413336,9.641978
3228402267709,0.75405794,1.1896573,9.62222
3228422128556,0.7852518,1.1371651,9.674419
3228441986861,0.75095475,1.1740292,9.674734
3228461845166,0.70508265,1.2139688,9.639124
3228481703451,0.6962057,1.1688572,9.636206
3228501561756,0.7050391,1.0916984,9.630588
3228521416861,0.67579734,1.0263652,9.613021
3228541275038,0.5975063,1.0664335,9.656365
3228561133343,0.5567094,1.1071066,9.668681
3228580991520,0.61587006,1.122888,9.6378765
3228600849697,0.67528814,1.0820012,9.656747
3228620703060,0.6949282,1.0733675,9.6734705
3228640561109,0.66392523,1.0881604,9.6472025
3228660419286,0.6224556,1.1001897,9.642435
3228680277463,0.62101954,1.0425314,9.641794
3228700135512,0.6521792,1.0091401,9.658275
3228719996493,0.631407,1.0042738,9.641399
3228739854670,0.58609,1.0316771,9.658346
3228759712847,0.60619915,1.0893337,9.671014
3228779571024,0.6372876,1.1155884,9.673782
3228799429201,0.6385636,1.1104372,9.668939
3228819280916,0.5957549,1.1680568,9.700596
3228839138965,0.59730107,1.1662277,9.700581
3228858997014,0.6163003,1.1890194,9.648189
3228878855063,0.6323402,1.1775318,9.643316
3228898713112,0.6505797,1.1927798,9.662695
3228918569719,0.6089725,1.2234865,9.660526
3228938427768,0.58663666,1.2610738,9.658487
3228958285794,0.5843576,1.2532542,9.61528
3228978143843,0.59701765,1.282727,9.62043
3228998001892,0.60720295,1.3228197,9.60653
3229017863897,0.6383869,1.2488303,9.605797
3229037721946,0.6510858,1.2185249,9.636633
3229057580123,0.6592901,1.2349924,9.622466
3229077438172,0.66446656,1.2553827,9.584384
3229097296221,0.62462866,1.3066306,9.5561
3229117159896,0.6014585,1.3149127,9.596846
3229137018073,0.58490604,1.3006287,9.630176
3229156876378,0.5554427,1.3135661,9.606288
3229176734683,0.5475877,1.3414421,9.604179
3229196592860,0.5582583,1.3065594,9.603824
3229216452695,0.5639284,1.2927049,9.584525
3229236311000,0.5664157,1.2821381,9.598785
3229256169177,0.53828365,1.3116068,9.60622
3229276027482,0.5254816,1.3414888,9.613702
3229295885659,0.506186,1.3752065,9.630788
3229315747286,0.5179112,1.4134436,9.619266
3229335605591,0.47358063,1.4322942,9.633726
3229355463896,0.44091374,1.4077363,9.642947
3229375322201,0.42191428,1.4448818,9.655282
3229395180506,0.4708637,1.4204645,9.64796
3229415036293,0.48581016,1.3956356,9.628564
3229434894576,0.48231697,1.4146757,9.623974
3229454752881,0.43519026,1.4406124,9.633716
3229474611186,0.4371584,1.4641846,9.638771
3229494469491,0.48159572,1.4672278,9.641319
3229514330246,0.5309866,1.4682912,9.631884
3229534188551,0.51347834,1.4219882,9.648091
3229554046728,0.5039107,1.3888572,9.642908
3229573905033,0.4999952,1.3824962,9.633247
3229593763210,0.51994866,1.396603,9.590343
3229613627589,0.5024272,1.4101841,9.571285
3229633486150,0.50271857,1.3943524,9.616619
3229653344583,0.5061942,1.4159368,9.636028
3229673203016,0.51919514,1.4490228,9.619662
3229693061449,0.5576501,1.4409691,9.595726
3229712919236,0.5074505,1.4706433,9.598313
3229732777669,0.5414066,1.430166,9.619514
3229752636102,0.53900987,1.3811661,9.611781
3229772494535,0.5187973,1.3830235,9.597376
3229792352968,0.54943943,1.4244751,9.6122875
3229812209865,0.55187345,1.4329299,9.598016
3229832068298,0.54314184,1.4098709,9.597738
3229851926731,0.5384971,1.4153316,9.600182
3229871785164,0.550117,1.4124416,9.619342
3229891643597,0.5668622,1.4297302,9.619578
3229911503087,0.57661253,1.4443687,9.605395
3229931361520,0.5806977,1.4321845,9.600481
3229951220081,0.58523726,1.4455336,9.588666
3229971078514,0.6012982,1.4748292,9.584242
3229990936947,0.61917543,1.5056179,9.58463
3230010800744,0.60706383,1.5235195,9.594376
3230030659433,0.5477786,1.5264689,9.62299
3230050517994,0.53473854,1.5531613,9.61367
3230070376683,0.57181084,1.5283649,9.577567
3230090235244,0.55650014,1.5280306,9.570338
3230110090403,0.5548295,1.5485903,9.568165
3230129948964,0.5335611,1.599413,9.590226
3230149807525,0.526534,1.5966307,9.587781
3230169666086,0.48784786,1.601521,9.59252
3230189524647,0.48611248,1.621816,9.614298
3230209383208,0.49122456,1.6419417,9.600162
3230229240799,0.48931447,1.6186078,9.573552
3230249099360,0.4980315,1.6009097,9.570986
3230268957921,0.5369428,1.5991565,9.587838
3230288816482,0.56865543,1.6323993,9.569128
3230308674915,0.5521673,1.6783171,9.538454
3230328531940,0.5191416,1.6907704,9.58401
3230348390501,0.48721212,1.6951209,9.586368
3230368248934,0.5330629,1.6743354,9.581471
3230388107473,0.53133065,1.6731863,9.5455265
3230407965954,0.48822743,1.66523,9.516581
3230427824515,0.47793365,1.7253286,9.538773
3230447682948,0.47090378,1.7439903,9.5940485
3230467541381,0.44543365,1.7036692,9.591141
3230487399942,0.48833773,1.7085946,9.588916
3230507258375,0.51939386,1.734717,9.603659
3230527110000,0.56460583,1.7261236,9.577339
3230546968305,0.62688285,1.6976486,9.529288
3230566826610,0.68332493,1.6608963,9.505082
3230586684915,0.76739806,1.6910418,9.5224085
3230606543220,0.7991032,1.7264692,9.611506
3230626394083,0.68494785,1.7644476,9.654731
3230646252260,0.7520161,1.7503537,9.501465
3230666110437,0.9574996,1.8897848,9.474817
3230685968614,0.96418524,1.9488912,9.458722
3230705831319,0.8085605,1.9389616,9.537233
3230725689624,0.72905165,1.9244821,9.603924
3230745547801,0.8262296,1.8682626,9.646679
3230765406106,0.92087334,1.9445101,9.717236
3230785264283,0.9198556,2.1135082,9.65922
3230805122460,0.77676016,2.3293562,9.517509
3230824974743,0.60573167,2.517767,9.45446
3230844832920,0.4889876,2.7693818,9.562312
3230864690948,0.49490324,2.9474247,9.856507
3230884549125,0.5624323,2.9440792,9.952459
3230904407302,0.5327148,2.9323034,9.861233
3230924264827,0.1961351,2.8038986,9.583462
3230944123004,-0.19241913,2.7423265,9.191319
3230963981053,-0.346192,2.9930305,9.052361
3230983839230,-0.76216125,3.0651958,9.363409
3231003697279,-1.5073072,2.5337765,9.580676
3231023555456,-1.7617081,1.9305282,9.503865
3231043416753,-0.82561547,1.552737,9.066294
3231063274802,0.06308983,1.2641834,8.905025
3231083132979,0.43350643,1.7453022,8.7005625
3231102991028,0.054726128,1.8508737,8.786935
3231122849205,0.29714182,1.8110073,9.163191
3231142701482,0.7800927,1.9685743,8.780609
3231162559531,1.2812766,1.7558477,8.393988
3231182417580,1.7779309,1.5793719,8.443674
3231202275629,1.9396323,1.7102797,8.744953
3231222133678,1.5597426,1.7942783,9.396346
3231241994653,1.0847267,1.4101082,9.920155
3231261852702,0.90075475,1.0609728,10.900219
3231281710879,1.0228425,1.676906,11.43908
3231301568928,0.36871165,2.0859969,11.525667
3231321427105,-0.87497795,1.3629872,11.641272
3231341277262,-1.7243472,-0.2123736,10.709016
3231361135311,-1.618232,-1.0704042,8.9920635
3231380993232,-0.62545305,0.12026585,8.6079
3231400851153,0.31323677,0.96213156,8.811345
3231420709074,0.30883875,1.0677189,9.578956
3231440568203,-0.16081232,0.6876841,10.148334
3231460426124,-0.23128554,0.4296553,9.891404
3231480284045,0.04116284,0.46652892,9.418301
3231500141966,0.16230199,0.57470334,9.474913
3231519999759,-0.14545563,0.59795225,9.70188
3231539863360,-0.2015755,0.51836413,9.791866
3231559721409,-0.0592104,0.6140235,9.745403
3231579579458,0.0012209624,0.78520525,9.639676
3231599437379,-0.24281685,0.7777269,9.856895
3231619295428,-0.667478,0.43926632,10.022069
3231639156537,-0.58013386,0.10021274,9.898799
3231659014714,-0.3068986,0.31860566,9.901948
3231678872763,-0.22069138,0.54022187,10.105825
3231698730812,-0.33159602,0.3739217,10.153987
3231718588989,-0.3435246,0.16541633,9.892972
3231738444040,-0.2498034,0.2823147,9.530451
3231758302089,-0.13197559,0.5708481,9.44294
3231778160010,-0.08752837,0.81811446,9.491299
3231798018059,-0.08317128,1.012745,9.531782
3231817876085,-0.08427006,0.99716645,9.414245
3231837729456,-0.086674705,0.8474992,9.441327
3231857587377,-0.1342424,0.89087003,9.566228
3231877445426,-0.056594416,0.9465861,9.624536
3231897303347,0.12316045,0.8818488,9.657838
3231917161268,0.20872825,0.77526784,10.032933
3231937021981,0.35304224,0.8196714,10.297282
3231956880030,0.37020886,1.0569841,9.923908
3231976738079,0.33067843,0.86309445,9.627053
3231996596000,0.3037633,0.44393256,9.770849
3232016454049,0.11777016,0.35740715,9.93466
3232036323026,-0.11835496,0.44216532,10.052323
3232056181203,-0.24104397,0.6850529,10.224733
3232076039508,-0.13531642,0.95083696,10.134542
3232095897813,-0.061832327,1.0073389,9.7018385
3232115755990,-0.0027948406,0.75697666,9.61061
3232135613375,-0.07685676,0.5434835,9.651166
3232155471552,-0.09096486,0.43927702,9.803267
3232175329857,-0.074005686,0.38047925,9.91763
3232195188034,0.042135626,0.3254485,9.864643
3232215046339,0.31486714,0.45373744,9.723085
3232234903338,0.54824424,0.51759535,9.559153
3232254761515,0.37312183,0.61973363,9.641244
3232274619692,0.08212955,0.4953507,9.722918
3232294477847,0.11133397,0.43844014,9.729552
3232314336024,0.21833944,0.45711377,9.689329
3232334199491,0.31121516,0.51060915,9.680591
3232354057924,0.30543515,0.583951,9.700545
3232373916229,0.33280545,0.626109,9.6771345
3232393774534,0.2031775,0.6201771,9.659952
3232413632967,0.13364924,0.4629214,9.804133
3232433483184,0.12407054,0.41050425,9.851432
3232453341233,0.23160286,0.5556434,9.745543
3232473199410,0.2727291,0.6791085,9.644025
3232493057587,0.28153834,0.6425478,9.655622
3232512915764,0.34889206,0.4927215,9.630196
3232532773941,0.47684297,0.5191866,9.647598
3232552633828,0.46133175,0.63790643,9.634498
3232572492005,0.3475759,0.78258795,9.707644
3232592350182,0.31798556,0.938552,9.812281
3232612208359,0.12282646,0.9211769,9.790006
3232632066664,0.10549159,0.8178621,9.88702
3232651925087,0.15828003,0.79727757,9.812684
3232671783392,0.0022736876,0.81762105,9.620874
3232691641697,-0.20770085,0.7464337,9.6578455
3232711500002,-0.2886807,0.6356706,9.833646
3232731358179,-0.2526819,0.64052707,9.8888855
3232751211808,-0.16146292,0.712424,9.767772
3232771069965,-0.03216736,0.87313646,9.626186
3232790928014,0.050792612,1.0097355,9.556063
3232810786191,-0.0048617446,1.1377559,9.619601
3232830644368,-0.12036868,1.1613348,9.744101
3232850499979,-0.14002222,1.0522523,9.917689
3232870358156,-0.03424275,1.0355849,9.8555155
3232890216205,0.07512478,1.0794446,9.674262
3232910074382,0.090957284,1.0841328,9.59292
3232929932431,-0.0399015,1.0835372,9.563819
3232949781964,-0.13067316,0.99423254,9.567379
3232969639885,-0.04881778,1.0833925,9.793731
3232989497678,0.085666694,1.1468848,9.794795
3233009355599,0.14229636,1.2137516,9.774129
3233029213392,0.06622008,1.2162495,9.666169
3233049076993,0.11615391,1.26245,9.568611
3233068935042,0.17170501,1.2967951,9.576326
3233088792963,0.06575747,1.3727118,9.660711
3233108650884,-0.061482612,1.3173231,9.791491
3233128508933,-0.07326385,1.2596147,9.872256
3233148367932,-0.003945917,1.2317641,9.71645
3233168225981,-0.059366576,1.1358001,9.595482
3233188083902,-0.18902355,1.2111436,9.605544
3233207941951,-0.32940584,1.1798131,9.659909
3233227800000,-0.23532015,1.1272517,9.702695
3233247647587,-0.15754683,1.2219634,9.617724
3233267505380,-0.13446727,1.2732482,9.570452
3233287363173,-0.20027012,1.380568,9.58583
3233307220966,-0.22173099,1.3684491,9.614381
3233327078887,-0.30547723,1.241223,9.612749
3233346926122,-0.33099237,1.1407796,9.66666
3233366783787,-0.3354722,1.1683724,9.6645565
3233386641324,-0.2847243,1.1860727,9.676865
3233406498861,-0.1719253,1.1743721,9.724943
3233426356526,-0.10885731,1.155784,9.698562
3233446211881,-0.009326378,1.2490201,9.733392
3233466069418,-0.045400027,1.2823392,9.609114
3233485926827,-0.13025738,1.1823963,9.607781
3233505784236,-0.058245253,1.2328658,9.721107
3233525641773,-0.11540561,1.3007262,9.704935
3233545505126,-0.0179903,1.3675706,9.684381
3233565362535,-0.0071079293,1.3957093,9.67035
3233585220072,-0.025085412,1.3430531,9.6505575
3233605077609,-0.0821469,1.33214,9.686211
3233624935146,-0.16268623,1.323817,9.666739
3233644800411,-0.17502919,1.3385552,9.6572895
3233664658076,-0.27110326,1.3097389,9.7621
3233684515869,-0.314365,1.279677,9.735303
3233704373534,-0.1952692,1.299603,9.644829
3233724231305,-0.15662351,1.3137872,9.606766
3233744094010,-0.1708131,1.3076669,9.652169
3233763951803,-0.16708031,1.3325205,9.681194
3233783809596,-0.11016086,1.3428515,9.69823
3233803667389,-0.11512447,1.3233345,9.657283
3233823525310,-0.051496882,1.3114699,9.63337
3233843378939,-0.0034546142,1.2766895,9.647487
3233863236732,-0.04076458,1.2982962,9.666787
3233883094525,-0.0737774,1.3108026,9.707553
3233902952190,-0.10431277,1.2912447,9.709651
3233922809983,-0.07507626,1.2944037,9.664256
3233942672944,-0.026959438,1.2813848,9.707355
3233962530865,-0.024093825,1.233886,9.678096
3233982388658,0.012462262,1.1618475,9.615124
3234002246579,-0.007382396,1.3131903,9.755663
3234022104500,-0.0052301884,1.2561221,9.675998
3234041962521,0.030668013,1.2990481,9.671778
3234061820314,0.014065206,1.2224045,9.658911
3234081678235,-0.014264178,1.2296088,9.682866
3234101536028,0.013033485,1.2307719,9.678162
3234121393949,-0.007148459,1.1920577,9.644147
3234141256084,-0.022845307,1.1879252,9.675197
3234161114005,-0.007584721,1.2287515,9.709221
3234180971926,-0.011171967,1.2259507,9.682834
3234200829955,-0.021742223,1.2827007,9.702594
3234220687876,-0.043038514,1.1898619,9.653606
3234240545847,0.0055033895,1.1808002,9.644057
3234260403896,0.07365631,1.2443801,9.678474
3234280261817,0.013022184,1.2714229,9.690586
3234300119866,0.012891185,1.2901269,9.690793
3234319977787,0.042606525,1.2182841,9.661337
3234339836146,0.06085563,1.1521772,9.660656
3234359694195,0.032723527,1.1816459,9.668092
3234379552244,0.014751208,1.1911643,9.711262
3234399410165,0.027621428,1.1830171,9.735158
3234419268214,0.03886917,1.1741709,9.682397
3234439120497,0.066514365,1.1789736,9.653782
3234458978418,0.033257283,1.1882635,9.680141
3234478836339,-0.0030484614,1.160693,9.682135
3234498694260,0.021899436,1.0938083,9.700625
3234518552181,0.05503385,1.0840156,9.719767
3234538410736,0.068174034,1.1391277,9.708435
3234558268657,0.06482459,1.1395167,9.69885
3234578126450,0.09230487,1.1221874,9.67478
3234597984371,0.121189184,1.1024469,9.7033825
3234617842292,0.09797194,1.129777,9.713202
3234637700329,0.038993713,1.1554403,9.684586
3234657558250,-0.0035367957,1.0943234,9.693376
3234677416276,0.07295456,1.0742856,9.695756
3234697274197,0.025293848,0.9308156,9.660509
3234717132246,0.06318966,1.0188903,9.707093
3234736990167,0.065461844,1.0866207,9.712638
3234756846418,0.060285006,1.1261675,9.710667
3234776704467,0.045529198,1.1732342,9.715937
3234796562388,0.011683173,1.1542244,9.694079
3234816420437,0.01960756,1.0859356,9.662209
3234836278358,0.048792448,1.0888828,9.635972
3234856134517,0.04157337,1.1260107,9.713009
3234875992438,-0.0053091254,1.1551635,9.737156
3234895850359,-0.008679756,1.1747065,9.687064
3234915708152,0.034649715,1.1236515,9.672247
3234935566073,0.007628635,1.125837,9.679382
3234955415322,-0.03835316,1.1653267,9.684485
3234975272987,-0.05896489,1.1633328,9.71315
3234995130652,-0.0050683343,1.1369092,9.696238
3235014988189,0.052478123,1.1327844,9.634072
3235034845854,0.016720701,1.1525884,9.650961
3235054706627,-0.06906472,1.164288,9.703552
3235074564292,-0.088104576,1.1605709,9.722622
3235094421957,-0.062275592,1.1638805,9.689195
3235114279622,-0.05592623,1.1786963,9.684587
3235134137287,-0.10731788,1.2138656,9.660884
3235153995564,-0.13187113,1.2653419,9.649411
3235173853229,-0.14390984,1.2643013,9.680504
3235193710894,-0.083568126,1.2553012,9.728472
3235213568559,-0.102909334,1.245919,9.649275
3235233426224,-0.087499976,1.2274168,9.668273
3235253289405,-0.121441245,1.2487137,9.689974
3235273147198,-0.13712065,1.2638938,9.666146
3235293004991,-0.15751587,1.2842437,9.671107
3235312862784,-0.17181702,1.296907,9.709531
3235332720577,-0.14478466,1.2540704,9.689969
3235352579644,-0.12040307,1.2403729,9.668327
3235372437437,-0.11646184,1.2468398,9.66841
3235392295358,-0.14490445,1.2321236,9.677751
3235412153279,-0.1787811,1.2536852,9.675502
3235432011072,-0.19279476,1.2889832,9.663879
3235451867067,-0.17471391,1.3420626,9.645353
3235471724732,-0.13400097,1.3010454,9.66417
3235491582525,-0.14556925,1.24421,9.665907
3235511440318,-0.20915158,1.2562596,9.673054
3235531303353,-0.2109613,1.254793,9.665847
3235551161274,-0.19965033,1.3083593,9.654493
3235571019195,-0.25150907,1.2580051,9.68254
3235590877116,-0.25491008,1.2581824,9.692112
3235610735037,-0.20898023,1.2784182,9.666114
3235630592806,-0.222612,1.2982546,9.666296
3235650450325,-0.24702424,1.3525239,9.707547
3235670308246,-0.26658523,1.4021791,9.669722
3235690166167,-0.29263592,1.3143513,9.66389
3235710023960,-0.253259,1.2974805,9.661414
3235729880467,-0.21727672,1.2808133,9.666118
3235749738388,-0.2278145,1.2777586,9.713959
3235769596309,-0.2600143,1.3387241,9.671433
3235789454230,-0.2859374,1.3735105,9.643005
3235809312023,-0.30146626,1.3101288,9.651843
3235829169944,-0.33183485,1.2934699,9.697086
3235849023763,-0.30897185,1.3224111,9.673515
3235868881684,-0.32894006,1.3274847,9.673518
3235888739477,-0.35388133,1.3344588,9.692689
3235908597398,-0.35028306,1.3565458,9.666595
3235928455191,-0.36811984,1.3666198,9.659474
3235948310668,-0.441092,1.3677235,9.652103
3235968168461,-0.46628395,1.3714548,9.659263
3235988026254,-0.447674,1.4118922,9.702873
3236007884047,-0.47341588,1.3275453,9.6875
3236027744328,-0.3975037,1.3606415,9.654538
3236047602121,-0.42882344,1.4940124,9.665507
3236067460042,-0.56561565,1.4440387,9.688538
3236087317835,-0.5660233,1.2966052,9.653376
3236107175604,-0.41803318,1.3182877,9.644435
3236127033397,-0.3351618,1.4352831,9.65553
3236146895914,-0.37915766,1.4577204,9.650869
3236166753835,-0.3745972,1.349064,9.606567
3236186611756,-0.17719491,1.352656,9.628696
3236206469677,-0.20014521,1.4646893,9.66101
3236226327598,-0.27202243,1.519838,9.6757965
3236246182387,-0.3241967,1.5259136,9.675723
3236266040308,-0.39330867,1.511696,9.641847
3236285898101,-0.40169558,1.5137209,9.675379
3236305755894,-0.38506547,1.4683852,9.653367
3236325613167,-0.39630377,1.4558139,9.646012
3236345470960,-0.4665333,1.468853,9.61483
3236365328753,-0.5329783,1.5069573,9.593514
3236385186546,-0.54108393,1.4716535,9.61945
3236405044467,-0.5057434,1.4886227,9.660451
3236424902260,-0.53640014,1.4064143,9.6426935
3236444753269,-0.5334196,1.4215397,9.635683
3236464610934,-0.4505046,1.4980162,9.62238
3236484468599,-0.52514744,1.5196795,9.612838
3236504326264,-0.5294347,1.5502769,9.644302
3236524184057,-0.5469674,1.6045091,9.637668
3236544037040,-0.6305116,1.6216588,9.642423
3236563894577,-0.6119565,1.5804769,9.68992
3236583752091,-0.60565424,1.6143408,9.654385
3236603609628,-0.5487255,1.6032542,9.611302
3236623467165,-0.57294863,1.6390574,9.630794
3236643324830,-0.61563915,1.67792,9.667035
3236663175905,-0.6010872,1.6684996,9.640624
3236683033442,-0.5314273,1.6272398,9.616404
3236702890851,-0.52652705,1.5843445,9.615943
3236722748260,-0.57260895,1.5420296,9.641698
3236742602151,-0.5791167,1.5051082,9.648458
3236762459560,-0.6148631,1.5441983,9.612866
3236782316841,-0.62881666,1.5605011,9.62738
3236802174250,-0.6276247,1.555006,9.653669
3236822031531,-0.6159529,1.5523276,9.653672
3236841883680,-0.5329248,1.4879358,9.622046
3236861740833,-0.51364416,1.4733986,9.5620575
3236881598114,-0.5831538,1.4960335,9.578888
3236901455395,-0.6421476,1.4831511,9.652836
3236921312676,-0.60744125,1.4716351,9.662384
3236941169957,-0.5873229,1.5078739,9.614935
3236961027542,-0.578237,1.4746616,9.628963
3236980884695,-0.5291953,1.4313816,9.635803
3237000741976,-0.4766202,1.4698611,9.600442
3237020599257,-0.48798144,1.5167242,9.598535
3237040466096,-0.5468703,1.544969,9.6418
3237060323484,-0.596054,1.5876667,9.687649
3237080180893,-0.57177764,1.5927792,9.656632
3237100038302,-0.5519697,1.5848331,9.611091
3237119895583,-0.52730966,1.5552508,9.639572
3237139756180,-0.540592,1.5594935,9.663535
3237159613589,-0.55544174,1.5847194,9.647008
3237179471126,-0.5363273,1.6101981,9.65692
3237199328663,-0.5088987,1.5926571,9.652011
3237219186072,-0.49768975,1.583652,9.613619
3237239043609,-0.53038436,1.5782216,9.584728
3237258901572,-0.5645357,1.5772012,9.627738
3237278759109,-0.5906461,1.6112205,9.66876
3237298616518,-0.60972816,1.5858741,9.646873
3237318474055,-0.5757205,1.5456084,9.648914
3237338326444,-0.52075,1.5324466,9.653708
3237358183725,-0.5238359,1.5960684,9.611291
3237378041134,-0.50213724,1.611377,9.599543
3237397898543,-0.49360943,1.6121452,9.618734
3237417755952,-0.5077296,1.5656121,9.630158
3237437613233,-0.48814118,1.5567665,9.666041
3237457473092,-0.50289863,1.5631294,9.663677
3237477330501,-0.48180827,1.5500588,9.610895
3237497187782,-0.4225212,1.5278763,9.6299715
3237517045191,-0.40799347,1.5590538,9.620774
3237536902579,0.23472983,1.6375299,9.620883
3237556770064,0.22996412,1.6086744,9.65173
3237576627601,0.24681923,1.593661,9.620578
3237596485138,0.2449443,1.6006302,9.615837
3237616342675,0.22794813,1.581009,9.620332
3237636203956,0.20257851,1.5912757,9.639405
3237656061621,0.20802903,1.5975461,9.6682415
3237675919286,0.21673593,1.585306,9.629871
3237695776951,0.19655365,1.6046207,9.62511
3237715634616,0.20609325,1.5973788,9.615533
3237735492281,0.21467555,1.6022109,9.6180315
3237755358382,0.20973094,1.6279252,9.654153
3237775216175,0.22743592,1.6179312,9.649398
3237795074096,0.23975228,1.6189735,9.630334
3237814932017,0.22616448,1.632719,9.615989
3237834789938,0.21166901,1.6484327,9.639977
3237854643349,0.17438881,1.6479985,9.654081
3237874501142,0.14197496,1.6663775,9.65641
3237894359063,0.13841625,1.653159,9.629921
3237914216856,0.18673263,1.604449,9.617853
3237934077703,0.219698,1.5836545,9.627482
3237953935624,0.20635763,1.6047713,9.634762
3237973793673,0.20656766,1.6496611,9.618396
3237993651594,0.14893089,1.69572,9.64235
3238013509619,0.07881059,0.16678806,9.80953
3238033367540,0.12905347,0.067781866,9.772346
3238053231387,0.13478185,0.10588284,9.730162
3238073089564,0.10713129,0.15857495,9.779577
3238092947613,0.111389115,0.15618183,9.801111
3238112805662,0.14460239,0.1786909,9.77387
3238132663839,0.13218673,0.2019607,9.7653265
3238152521164,0.094150126,0.18414293,9.7713995
3238172379341,0.07735713,0.16665734,9.792488
3238192237390,0.058350407,0.18442214,9.792627
3238212095567,0.06259798,0.20568986,9.7597885
3238231953616,0.10128589,0.17799439,9.758385
3238251811665,0.10380322,0.18210761,9.783382
3238271673650,0.11065194,0.18259601,9.790874
3238291531827,0.12375052,0.21849896,9.758178
3238311390004,0.09943652,0.2366827,9.763141
3238331248181,0.09832641,0.25063443,9.76784
3238351104090,0.23717347,0.24378705,9.696474
3238370962267,0.27187344,0.35842732,9.735382
3238390820316,-0.12755111,0.2751429,10.250749
3238410678493,-0.50534016,-0.032427482,10.15675
3238430536542,-0.0037828349,-0.10088172,9.904798
3238450389397,0.4773185,-0.18834679,9.615355
3238470247318,0.4846511,-0.24590063,9.596321
3238490105347,0.50834656,0.43716148,9.926126
3238509963268,0.3486604,0.5254222,9.999026
3238529821317,0.12962933,0.40358353,9.666519
3238549679238,-0.10487693,0.20291024,9.650734
3238569520561,-0.34160072,0.05811452,9.797312
3238589378226,-0.29077008,0.20260344,9.836955
3238609235891,-0.24227826,0.30791837,9.805048
3238629093556,2.4196345E-4,0.52498794,9.791312
3238648951191,0.21156119,0.58019716,9.6279125
3238668808856,0.3889758,0.4601682,9.510899
3238688666521,0.3570728,0.40072605,9.687426
3238708524186,0.001357822,0.31346107,9.908851
3238728381979,-0.21846557,0.26885486,9.957694
3238748239644,-0.19809186,0.19499207,9.8538065
3238768093463,-0.045212705,0.20105287,9.800356
3238787951000,0.072373524,0.23111476,9.864711
3238807808665,0.13747878,0.22107819,9.936461
3238827666202,0.2141104,0.07367538,9.847028
3238847523867,0.21530783,0.12332266,9.6981125
3238867378368,0.22567025,0.17474493,9.662645
3238887235905,0.23035167,0.09821687,9.726918
3238907093442,0.19926806,0.12106586,9.6736555
3238926950979,0.1674985,0.2993576,9.622214
3238946798406,0.1228871,0.38725606,9.744223
3238966655538,0.14606197,0.3306937,9.799395
3238986512819,0.034898665,0.36241934,9.69668
3239006369972,0.006447303,0.44113532,9.735421
3239026227253,-0.11921985,0.49923834,9.880717
3239046084534,-0.21794172,0.3540818,9.837234
3239065939527,-0.106698595,0.199125,9.660042
3239085796680,0.068374634,0.14773956,9.680255
3239105653833,0.12030554,0.26653975,9.789862
3239125510858,0.20328987,0.19206,9.865916
3239145368011,0.27371684,0.13255194,9.695197
3239165225786,0.29493976,0.16707551,9.62213
3239185083067,0.2131092,0.12756097,9.686147
3239204940220,0.22690251,0.12989643,9.766152
3239224797373,0.30758795,0.26418778,9.815358
3239244656434,0.24448265,0.30405346,9.796395
3239264513587,0.31327257,0.17649159,9.792059
3239284370868,0.3652015,0.099862054,9.8262825
3239304228021,0.3564114,0.18069346,9.848811
3239324085174,0.25614378,0.07586978,9.884069
3239343942327,0.20016414,-0.06448886,9.938329
3239363797640,0.17490819,-0.1324488,9.848951
3239383654793,0.13659602,-0.045303646,9.770345
3239403511946,0.1303886,-2.956565E-4,9.878365
3239423369099,0.09872826,-0.13915138,9.709352
3239443226229,0.3001874,0.46808115,9.669296
3239463088094,0.20794958,0.5051607,9.750519
3239482945247,0.04656617,0.5047214,9.771053
3239502802528,-0.048778817,0.40189064,9.814807
3239522659681,-0.019850418,0.2967897,9.750793
3239542507276,0.09005704,0.35586408,9.6406555
3239562364173,0.19917306,0.48357052,9.607893
3239582221070,0.11169199,0.52223456,9.698879
3239602078095,-0.05272896,0.37483892,9.782347
3239621934992,-0.00475289,0.26813272,9.721064
3239641791889,0.08145248,0.28310767,9.668407
3239661660276,0.04549747,0.34671617,9.809556
3239681517557,6.9798477E-4,0.30711424,9.857198
3239701374710,0.12554508,0.34918073,9.777795
3239721231863,0.16641541,0.4320672,9.736792
3239741089144,0.013236913,0.48637035,9.807896
3239760950225,-0.102769,0.43607903,9.894315
3239780807506,-0.047912236,0.31424388,9.784545
3239800664787,0.062023047,0.26473972,9.734318
3239820522068,0.09008241,0.33154956,9.802633
3239840379221,0.11624695,0.35644698,9.792307
3239860236502,0.18074547,0.33550143,9.720805
3239880104979,0.16110279,0.38418683,9.688987
3239899962516,0.10089196,0.4348889,9.785883
3239919820159,0.013224999,0.3637188,9.904415
3239939677696,-0.0109487185,0.21942538,9.810598
3239959543583,0.18613717,0.19522181,9.706857
3239979401376,0.31510797,0.282775,9.676106
3239999259169,0.24131635,0.38687575,9.726996
3240019116962,0.1923626,0.28900352,9.800201
3240038974755,0.22690395,0.25230378,9.837781
3240058829776,0.25592208,0.26009986,9.783768
3240078687569,0.25027838,0.2626578,9.846098
3240098545362,0.18130864,0.20766526,9.810453
3240118403155,0.12559214,0.3038437,9.863855
3240138260948,0.10955985,0.26513705,9.863993
3240158118741,0.13766953,0.22735737,9.8485775
3240177971238,0.14726277,0.22267243,9.815037
3240197828775,0.12756789,0.2074569,9.701053
3240217686440,0.10381289,0.25340167,9.685789
3240237544105,0.018831821,0.2629569,9.767889
3240257406074,-0.008066091,0.24927276,9.788102
3240277263867,-0.0035759849,0.27064517,9.736464
3240297121660,0.0038323083,0.27173552,9.739115
3240316979325,-0.05773581,0.30919018,9.724825
3240336837118,-0.11861025,0.29427764,9.734465
3240356699937,-0.09711556,0.25736213,9.817253
3240376557858,0.016192311,0.23861177,9.824233
3240396415630,0.21387859,0.2973244,9.692374
3240416273551,0.22798692,0.28563002,9.678113
3240436131472,0.18206576,0.29603603,9.734358
3240455989265,0.2230377,0.30662668,9.755343
3240475845302,0.23640786,0.23383275,9.755865
3240495703223,0.23036551,0.21133725,9.795683
3240515561144,0.29127195,0.30840454,9.882524
3240535418937,0.2662662,0.35487708,9.993434
3240555262698,0.18349232,0.27409023,9.990262
3240575120235,0.09615548,0.03866838,9.802089
3240594977772,0.14549094,0.10847293,9.679026
3240614835437,0.22476327,0.2509153,9.744012
3240634692974,0.30280882,0.41739523,9.675456
3240654550511,0.4407919,0.4984394,9.596684
3240674405708,0.37860253,0.4773247,9.574599
3240694263245,0.118939415,0.4414999,9.669673
3240714120782,-0.16976826,0.34239992,9.87196
3240733978319,-0.021398008,0.3611431,9.750781
3240753835856,0.37703016,0.4607918,9.617168
3240773690565,0.48970553,0.61385113,9.702874
3240793547974,0.3949596,0.7616899,9.824165
3240813405383,0.41449067,0.7388926,9.848103
3240833262792,0.3366355,0.6975119,9.774449
3240853121017,0.16298932,0.64281523,9.814435
3240872978406,-0.02868175,0.31766817,9.9481125
3240892835815,0.07606382,0.33092377,9.91729
3240912693352,0.17153363,0.25217175,9.741687
3240932550761,0.2723449,0.18067528,9.64132
3240952408170,0.3421309,0.27893588,9.730349
3240972264013,0.30557227,0.37217602,9.790434
3240992121422,0.22267458,0.47189972,9.833361
3241011978831,0.14386804,0.427242,9.847456
3241031836112,0.097906575,0.4023528,9.85754
3241051693521,0.12499644,0.38287535,9.817471
3241071554112,0.17297862,0.40665123,9.809865
3241091411649,0.2007045,0.42216012,9.757226
3241111269058,0.2772783,0.28556907,9.716777
3241131126595,0.32633469,0.3419827,9.722949
3241150977068,0.25855505,0.36004788,9.714583
3241170834349,0.16158666,0.35171548,9.738968
3241190691502,0.20760019,0.24150793,9.769964
3241210548783,0.2859769,0.20300142,9.744327
3241230405936,0.27241227,0.31895128,9.754234
3241250263217,0.30225003,0.39701658,9.762658
3241270124570,0.34957513,0.39399335,9.73199
3241289981851,0.34021553,0.38783497,9.762296
3241309839132,0.33074418,0.36646128,9.818246
3241329696413,0.32134247,0.37667763,9.777291
3241349553799,0.2658404,0.30984852,9.767812
3241369412496,0.24758787,0.3105758,9.708813
3241389269777,0.25250912,0.46229556,9.776926
3241409127058,0.21629156,0.57048124,9.858494
3241428984467,0.2098054,0.48919165,9.831012
3241448843174,0.2397151,0.4234937,9.8552685
3241468700583,0.31884065,0.5329006,9.82961
3241488557992,0.37172392,0.8038235,9.77906
3241508415273,0.34697154,0.92175376,9.816367
3241528272682,0.3581146,0.89307094,9.870609
3241548130091,0.43215403,0.92121154,9.783883
3241567986902,0.41891852,1.0108913,9.680579
3241587844311,0.32973057,1.2807413,9.749805
3241607701720,0.041193385,1.4097918,9.932733
3241627559129,-0.095801614,1.2979438,9.869901
3241647416538,0.158367,1.0845786,9.601968
3241667274575,0.4022553,1.0559646,9.429713
3241687131984,0.22506104,1.3327612,9.478709
3241706989393,-0.22574838,1.4879323,9.675898
3241726846802,-0.53014404,1.4825541,9.798295
3241746704083,-0.54808396,1.3628845,9.757841
3241766561492,-0.4555555,1.4569224,9.55887
3241786425595,-0.44385716,1.5995232,9.554675
3241806283132,-0.47580013,1.262688,9.780424
3241826140647,-0.14073804,1.3215109,9.658771
3241845998184,0.18933849,1.2735409,9.51463
3241865861963,0.41251287,1.2377062,9.595888
3241885719628,0.43411028,1.2450509,9.67824
3241905577293,0.05743224,0.52778816,9.804986
3241925434958,-0.3333432,0.34177867,10.039616
3241945292623,-0.23896827,0.21568513,10.032659
3241965153408,-0.2343673,0.46948224,9.881488
3241985011201,-0.4483459,0.15721701,9.8763685
3242004869122,-0.71453655,-0.69278777,9.735011
3242024726915,-1.0365603,-0.6586555,9.591158
3242044584708,-0.9915625,-0.73468405,9.70462
3242064442501,-0.78731203,-0.4822,9.784004
3242084303664,-0.6081997,-0.17605577,10.145206
3242104161585,-0.5895961,-0.07201916,10.022458
3242124019506,-0.7106133,0.020599013,9.71821
3242143877299,-0.7555949,-0.2802472,9.885769
3242163735220,-0.6918083,-0.4653634,9.907003
3242183594501,-0.41145158,-0.5497327,9.856117
3242203452294,-0.3559022,-0.80863804,9.872024
3242223310215,-0.24816267,-0.87004405,9.774296
3242243168136,-0.1424058,-0.7532332,9.79096
3242263025929,0.1054211,-0.63198376,9.677259
3242282880478,0.23229931,-0.741321,9.654988
3242302738250,0.053458996,0.7288007,9.726131
3242322596043,0.018540265,0.26660413,9.731066
3242342453836,0.08755994,0.09163344,9.842231
3242362311629,0.09369743,0.10513375,9.805231
3242382165820,0.018587524,0.13849425,9.941061
3242402023485,-0.0041639525,0.27907166,9.916337
3242421881278,-0.08661164,0.3994304,9.78519
3242441739071,-0.18892163,0.4393444,9.720458
3242461596736,-0.46661907,0.35297135,9.64939
3242481449007,-0.8803512,0.17819594,9.72101
3242501306672,-0.8602631,-0.11199752,9.926196
3242521164337,-0.97707105,-0.09524634,9.652635
3242541022002,-0.46378312,-0.3866274,9.671457
3242560879667,0.08801225,-0.8626013,9.645594
3242580723550,0.5210395,-1.4138371,9.757674
3242600580959,0.63628703,-1.451608,9.719446
3242620438368,0.47989327,-0.9477517,9.703094
3242640295777,0.08274134,-0.2907359,9.936011
3242660153186,-0.27601415,0.23085669,10.032712
3242680005261,-0.42020798,0.14293323,10.126472
3242699862542,-0.34075943,-0.260711,9.763079
3242719719823,0.109693214,-0.17282778,9.528796
3242739577104,0.62271935,-0.53479487,9.556704
3242759434385,0.7294981,0.017297592,9.693541
3242779291949,0.56008977,0.038565613,9.879291
3242799149230,0.2640886,-0.32342106,10.052507
3242819006511,0.39533263,-0.83497137,10.430069
3242838863792,1.0730759,-1.2376182,10.767082
3242858720945,1.7751715,-1.5426937,10.65376
3242878575710,1.9707557,-1.6039147,10.069186
3242898432863,2.03093,-0.9282883,9.451442
3242918290016,0.86610967,-0.16346571,9.240563
3242938147297,-0.88679254,0.056353427,9.793489
3242958004450,-2.1766849,0.045217354,10.243524
3242977864077,-2.1288092,0.06991305,10.176629
3242997721230,-1.0020703,0.24856406,9.844887
3243017578511,-0.9467627,1.007746,10.063991
3243037435664,-0.97807616,1.5799716,10.565995
3243057292817,-0.70589286,1.1163064,10.6876335
3243077149354,-0.18030693,0.5059732,10.400717
3243097006507,0.41202378,0.34342447,9.995458
3243116863660,0.2532735,0.040196627,9.293292
3243136720813,-0.053655144,-0.14068408,8.852322
3243156577966,-0.26193205,-0.25520933,8.711912
3243176430359,-0.59063303,-0.68162733,9.239679
3243196287384,-1.4336789,-1.1222014,9.686941
3243216144409,-2.3621757,0.49237153,10.323611
3243236001306,-2.8876827,2.1530998,10.717454
3243255858310,0.004436618,3.4097497,10.959993
3243275715335,1.049825,2.8697767,10.134078
3243295581058,1.645839,1.7436798,9.378829
3243315438211,1.6748989,1.1113694,9.491681
3243335295364,2.2732477,0.49540812,9.502932
3243355152389,2.8511736,0.5039471,8.755516
3243375009542,2.740272,0.9362194,7.9122453
3243394865891,1.1733506,2.151555,7.9355507
3243414723044,-0.54659975,2.4018216,8.1224575
3243434580197,-1.1035019,1.7389398,7.6710377
3243454437350,-1.2463778,1.1806955,7.8264627
3243474294375,-0.4165778,0.9689448,8.402158
3243494151830,0.14875858,0.7992305,8.749358
3243514008983,0.08244755,0.5464007,9.100875
3243533866136,0.31520855,0.32143277,9.2780075
3243553723289,0.38389835,-0.25633356,9.4032
3243573580442,-0.5277001,-1.2346095,9.905381
3243593440753,-1.7360488,-1.8043113,11.0783415
3243613297906,-1.951894,-2.0646327,11.306381
3243633155059,-2.093273,-1.3433597,10.313666
3243653012340,-1.2395382,0.27148926,9.5045595
3243672869493,-0.39475057,0.9076546,9.309004
3243692731242,-0.5797249,0.59188557,10.853836
3243712588523,-0.20706385,2.120159,13.015755
3243732445911,-0.49029133,5.2661343,14.965383
3243752303192,0.7204468,6.1044893,14.212971
3243772160473,-2.0053213,0.6738035,10.195049
3243792028104,-5.5553975,-4.6479945,8.0841465
3243811885769,-0.31346446,0.46966222,6.740385
3243831743306,3.779531,2.9410954,6.59936
3243851600971,2.8894525,1.44544,7.885919
3243871458508,2.7049525,1.858952,9.272678
3243891307975,2.5926995,1.7504343,9.552674
3243911165512,2.6878633,1.5839903,9.881512
3243931023049,2.63381,1.221261,9.482045
3243950880458,2.8149035,1.0509703,9.282637
3243970737995,3.0499182,1.1417762,9.562604
3243990601218,2.9464402,1.6734227,9.670012
3244010458883,-0.81408536,1.2696513,10.19991
3244030316548,-1.0372314,0.90622807,9.781695
3244050174213,1.4877456,0.259804,8.651645
3244070031878,2.0522468,-0.3738533,9.153671
3244089891201,2.9997926,0.31624782,9.826481
3244109748866,3.0089972,1.0111865,9.736405
3244129606659,2.2311378,1.0140814,9.214439
3244149464324,1.3663504,1.0479068,9.378628
3244169321989,1.0675498,0.94306797,9.477726
3244189177020,1.9176977,1.1279202,9.2071
3244209034536,-0.5329579,-0.24286775,9.378516
3244228892073,-0.5954732,-0.41509613,9.39603
3244248749738,-0.7473735,-0.55342305,9.196644
3244268607275,-0.8643601,-0.9024587,9.329986
3244288466414,-1.0601687,-1.5023052,9.644215
3244308323951,-1.2626884,-1.8874924,9.803877
3244328181488,-1.368675,-1.8006407,10.23084
3244348039025,-1.5367368,-1.2112788,10.199107
3244367896690,-2.0934446,-0.6373089,9.925404
3244387750503,-2.2019188,-0.3522528,9.688504
3244407608040,-1.3932813,-0.33623528,9.560079
3244427465577,-0.5363679,-0.34142482,9.324029
3244447323114,0.09537502,-0.7587787,9.370176
3244467180523,0.3210041,-1.1042428,10.716061
3244487032288,-0.058796,-1.8874209,11.970319
3244506889697,0.11201675,-2.6174393,12.541381
3244526747106,-0.13856848,-2.4818738,12.879173
3244546604515,-0.99379367,-1.1032645,13.003432
3244566461924,-1.0812522,0.49428892,12.300839
3244586309531,-0.99703634,1.267179,10.514263
3244606166812,-2.5523407,1.3830137,8.181846
3244626023965,-3.005394,1.6541915,7.4071336
3244645881246,-2.057086,1.5118767,8.000299
3244665738399,-0.77716345,0.6157904,9.537674
3244685595073,3.5033214,0.6635061,10.3384495
3244705452354,4.19308,0.8824465,10.799652
3244725309507,3.7756338,1.1291543,10.299468
3244745166660,2.5638115,-0.09520074,9.473213
3244765023941,0.35005334,-0.6755194,9.424118
3244784881212,-1.1861804,-0.74154675,8.990324
3244804738365,-1.2219293,-0.80676633,8.844274
3244824595518,-0.44218957,-0.88495904,9.005438
3244844452671,0.51265067,-0.52670676,8.609423
3244864309824,1.1231645,-0.034354195,8.771198
3244884164219,1.3337697,0.392641,8.649192
3244904021372,1.3261483,0.42394337,8.524006
3244923878525,0.33713388,0.93333715,8.320051
3244943735678,-0.8872282,1.5240296,7.8010464
3244963592959,-1.2486516,0.9164642,8.092683
3244983445870,-0.9052112,0.15746158,8.764224
3245003302895,-1.0500706,-0.44898668,9.49608
3245023159920,-0.9219585,-1.0532669,9.660219
3245043016945,-0.35587242,-0.5093512,9.376681
3245062873970,0.20511913,0.18121079,9.341767
3245082727703,-0.27551383,0.30638558,10.0825405
3245102584600,-1.1284479,0.5439006,10.452243
3245122441497,-2.572896,0.66514635,10.071693
3245142298394,-4.084295,0.431489,10.501956
3245162155397,-4.1691666,-1.1606853,11.587032
3245182012288,-1.8521411,0.2382226,12.996464
3245201869185,0.37764227,1.6587567,12.979697
3245221726082,0.8265064,2.5044262,11.1589775
3245241582979,1.0758245,2.2262504,8.577325
3245261439876,0.6504048,1.604882,7.1724815
3245281300229,0.7466846,0.7730648,7.8161354
3245301157126,2.737666,0.35306352,9.319002
3245321014151,4.1855474,0.23602417,10.1811495
3245340871048,3.4147804,0.38979465,10.581077
3245360728073,1.6806989,0.34576944,10.223998
3245380584318,0.84961045,0.62081236,9.569255
3245400441343,-0.005077361,0.79357463,9.668128
3245420298240,-0.0073154466,-0.091725,9.627765
3245440155265,0.9821155,0.427133,9.535762
3245460012162,0.29847074,-1.0121936,9.703325
3245479869187,0.77354527,-1.1350625,9.891189
3245499725018,1.9000261,-0.34534097,9.6204195
3245519581915,1.9250184,0.20490791,9.546819
3245539438684,1.2248217,0.23687032,9.840735
3245559295581,0.9080655,0.012856648,10.045
3245579152478,0.84265643,-0.1931903,9.954948
3245599013947,1.0165243,-0.32961106,9.83174
3245618870844,1.2165545,-0.41575158,9.844627
3245638727846,0.093213536,-0.48484674,9.840012
3245658584743,0.21627703,-0.111847095,9.760507
3245678441768,0.5032998,0.42019364,9.831182
3245698305815,0.75491816,0.8586141,9.767704
3245718162968,0.46152124,0.7361003,9.683491
3245738019993,-0.047650672,0.42362854,9.720374
3245757877146,-0.34860435,0.1881559,9.772058
3245777734299,-0.6584498,-0.053492572,9.7678
3245797606744,-0.5223278,-0.080011286,9.67393
3245817464153,0.033823375,0.06000591,9.601245
3245837321690,0.5069623,0.23471394,9.777248
3245857179099,0.8112109,0.15341961,9.928483
3245877036508,0.90250516,0.053360146,9.998332
3245896895001,0.6042783,0.24350584,10.045251
3245916752538,0.19787154,0.7303139,9.75249
3245936610203,-0.22427696,0.75428283,9.441655
3245956467740,-0.5481229,0.44711447,9.373336
3245976325277,-0.5673342,0.34001815,9.485726
3245996190104,-0.35149267,0.47951493,9.631661
3246016047897,0.051802814,0.65517,9.709048
3246035905562,0.3881892,0.781429,9.796063
3246055763355,0.36761656,0.6015543,9.848517
3246075621020,0.15189552,0.21174365,9.94317
3246095476569,-0.0872917,0.065446705,9.998672
3246115334213,-0.17437153,0.1462249,9.93184
3246135191878,-0.09835455,0.58357906,9.782938
3246155049671,0.038452335,0.72984487,9.641987
3246174907336,0.04598219,0.52275604,9.57716
3246194765507,0.0077454923,0.30723596,9.638712
3246214623300,0.12245919,0.3653833,9.726071
3246234480965,0.27150667,0.48030785,9.776913
3246254338630,0.25008166,0.41436976,9.795618
3246274196295,0.096215405,0.2550281,9.804702
3246294059652,-0.02670398,0.24695387,9.751979
3246313917445,-0.08836553,0.3021732,9.74813
3246333775238,-0.020870518,0.3739947,9.764292
3246353633159,0.06852771,0.4018856,9.763533
3246373490952,0.12000807,0.30443478,9.767231
3246393344759,0.1535279,0.20041677,9.779647
3246413202552,0.14446557,0.13053297,9.764259
3246433060345,0.13513957,0.124057144,9.773068
3246452918266,0.1402414,0.20703894,9.773053
3246472776059,0.080830544,0.28147832,9.788322
3246492625710,0.0063777445,0.29047906,9.783838
3246512483375,-0.04841574,0.26377735,9.777827
3246532341040,-0.13402994,0.24235019,9.728736
3246552198705,-0.1799811,0.26528847,9.716486
3246572056370,-0.122836456,0.3222602,9.721191
3246591901974,0.15256888,0.29912478,9.742922
3246611759383,0.18976657,0.29512343,9.739545
3246631616792,0.19609031,0.30737525,9.721643
3246651474201,0.17929015,0.26292232,9.728544
3246671331610,0.19035296,0.20664744,9.779495
3246691183587,0.17261034,0.20777261,9.79675
3246711040868,0.14010894,0.25690094,9.781402
3246730898149,0.038690567,0.27999255,9.761376
3246750755430,-0.07573986,0.26603973,9.737037
3246770612711,-0.089961864,0.23717827,9.692712
3246790469786,-0.039627682,0.26107332,9.697368
3246810327067,-0.027218832,0.33253375,9.732395
3246830184348,-0.023660755,0.3469144,9.763043
3246850041629,-0.04603143,0.27034903,9.780604
3246869898782,-0.071116626,0.16667601,9.773207
3246889748431,-0.12404951,0.07949525,9.782638
3246909605584,-0.16602881,0.07425975,9.76807
3246929462609,-0.14531952,0.13296711,9.765258
3246949319762,-0.11650062,0.14562112,9.739879
3246969176915,-0.12375474,0.122968845,9.727578
3246989033940,-0.12494246,0.103833936,9.725278
3247008893421,-0.12097031,0.10951586,9.728328
3247028750446,-0.12178829,0.1459461,9.742397
3247048607471,-0.09172706,0.14213237,9.7536125
3247068464474,0.049535632,0.19513091,9.728357
3247088321627,0.0111868745,0.18831463,9.747595
3247108170596,-0.04440386,0.16095792,9.711767
3247128027493,-0.047939252,0.18251261,9.699834
3247147884390,0.018963931,0.256018,9.726259
3247167741287,0.046479296,0.24523902,9.753437
3247187598056,0.04843986,0.21235953,9.771337
3247207453115,0.024748445,0.1684576,9.788464
3247227309884,0.018380094,0.16545689,9.8051195
3247247166653,-0.002905141,0.18016142,9.812029
3247267023422,0.050643742,0.2302997,9.754058
3247286880191,0.07895306,0.2564864,9.732406
3247306744426,0.109616555,0.19500089,9.710321
3247326601323,0.15900634,0.16592497,9.732579
3247346458220,0.15270333,0.20446146,9.778095
3247366315117,0.11492649,0.22554602,9.781226
3247386172014,0.10340937,0.22251314,9.776276
3247406035683,0.047059156,0.17887801,9.7603
3247425892836,0.08013408,0.16551924,9.743676
3247445749861,0.1607436,0.2077088,9.74697
3247465607014,0.1485031,0.28244147,9.77022
3247485464039,0.16300121,0.36161044,9.822399
3247505318870,0.098077394,0.38076255,9.804125
3247525175895,0.0010985228,0.29179373,9.764446
3247545032771,0.20748042,0.46165216,9.723183
3247564889796,0.23055468,0.45643914,9.713772
3247584746821,0.24640489,0.56672007,9.748229
3247604608308,0.21258003,0.7330717,9.76941
3247624465461,0.27045366,0.7525199,9.730485
3247644322614,0.3148323,0.5832915,9.720315
3247664179767,0.22900873,0.46335384,9.695182
3247684036792,0.10428906,0.43874323,9.729107
3247703892335,-0.036430597,0.48548666,9.818366
3247723749488,-0.16419578,0.57255197,9.878655
3247743606513,-0.13602151,0.7642852,9.918933
3247763463538,-0.20504819,1.1240193,9.908211
3247783320691,-0.3366068,1.0788351,9.827673
3247803188144,-0.60509497,0.8021028,9.733494
3247823045425,-0.6111028,0.7930055,9.648839
3247842902706,-0.4962272,0.78611547,9.820316
3247862760115,-0.54800415,0.48165253,9.989387
3247882617396,-0.6012416,0.38594404,10.079478
3247902481199,-0.43936512,0.89412117,9.8273735
3247922338736,-0.66932154,0.34012687,9.256588
3247942196273,-1.3317405,-0.43844578,8.687909
3247962053810,-0.75272745,0.024498206,9.983861
3247981911347,-0.16768934,0.41773927,11.17717
3248001772718,-1.011941,1.4114606,10.764455
3248021630233,-0.5366651,1.9974581,9.511146
3248041487898,-1.1389426,1.8514196,8.974434
3248061345563,-0.5952148,1.112094,9.21706
3248081203228,-0.5355859,0.03348904,10.065822
3248101063245,-0.88944536,-1.3398945,10.554252
3248120921038,-0.9774703,-2.2873604,10.25912
3248140778703,-0.21341138,-2.2539983,9.365314
3248160636368,0.027972052,-1.9186739,8.474775
3248180494033,-0.21819082,-1.0901654,8.283631
3248200352838,-0.32547158,-0.23931572,8.532832
3248220210503,-0.22447374,-0.081048116,8.475559
3248240068296,-0.5448955,-0.112149656,8.416577
3248259925961,-1.0347826,0.20213313,8.639406
3248279783626,-1.4049978,0.3319033,9.216188
3248299641663,-1.3536907,0.3090726,9.979697
3248319499456,-0.83125585,0.049733568,10.861658
3248339357121,0.65863776,-0.8471685,10.524773
3248359214786,1.0425544,-0.99687135,9.835246
3248379072451,0.20947309,-0.30516,9.572639
3248398930366,-0.47232288,0.25029376,9.057269
3248418788159,-0.805523,1.2412096,9.560736
3248438645952,-0.5932442,0.6392442,11.543617
3248458503617,-1.0464324,0.75586903,12.747893
3248478361410,-1.7321131,0.5574114,10.975016
3248498208052,-1.7091188,1.7996427,8.756277
3248518065589,-0.75093716,2.3526583,8.27716
3248537923126,-0.50064117,2.4349234,8.855796
3248557780535,0.25627422,1.3353411,9.556853
3248577638072,0.8089069,0.20390211,9.804707
3248597491377,0.8762567,-0.28182942,9.652255
3248617348786,0.87054086,-0.16016823,9.570934
3248637206323,1.0440079,-0.1503673,9.56487
3248657063732,0.51618934,-0.40808415,9.908017
3248676921269,-0.50721717,-0.5682238,10.107937
3248696766378,-0.7714936,-0.4866026,9.987287
3248716623531,-0.195596,-0.31396627,10.032478
3248736480684,0.7754258,-0.16923572,9.98057
3248756337965,1.053256,-0.027570887,9.640996
3248776195118,0.59751976,-0.1621078,9.518168
3248796047077,-0.03486697,-0.5418208,9.754715
3248815904102,-0.18288268,-0.6704502,10.038502
3248835761127,0.4156417,-0.59566563,9.85488
3248855618152,1.1695224,-0.45379135,9.624713
3248875475177,0.881693,-0.6416172,9.5828905
3248895327582,0.18886648,-0.939415,9.736391
3248915184607,0.074888155,-1.0190892,9.727905
3248935041504,0.12735537,-0.85927385,9.718198
3248954898529,0.0053971726,-0.5679771,10.00435
3248974755403,-0.7433822,0.71870303,9.936335
3248994611714,-0.3898836,0.7197844,9.630337
3249014468611,-0.22216101,0.22494282,9.562214
3249034325636,-0.47140872,-0.32817855,9.510051
3249054182533,-0.61543024,-0.68974435,9.649936
3249074039430,-0.6445343,-0.9403557,9.766781
3249093896327,-0.89010906,-0.7278302,9.794432
3249113755510,-0.91429156,-0.32059544,9.860088
3249133612407,-0.7066206,-0.30205926,9.882499
3249153469304,-0.72380894,-0.25253105,10.050968
3249173326329,-0.96140444,-0.28620943,9.985384
3249193183226,-1.1968279,-0.45225567,9.791861
3249213039409,-1.3157604,-0.5244147,9.677717
3249232896306,-1.407413,-0.4154022,9.755761
3249252753075,-1.3189243,-0.5484328,9.658306
3249272609972,-1.2424746,-0.5378312,9.619135
3249292466869,-1.6213595,-0.079383165,9.633138
3249312326624,-1.9702159,0.5240218,9.748344
3249332183393,-1.9229858,0.815041,9.609281
3249352040290,-1.6692728,0.978159,9.359594
3249371897059,-1.3341498,1.0033861,9.8358135
3249391753956,-1.4949039,0.55716044,10.978564
3249411619161,-1.8500521,-0.24754617,11.729542
3249431476186,-1.3073908,-0.915807,11.003424
3249451333063,1.3705878,-0.9721872,9.835366
3249471190088,2.6290176,2.0597734,9.617418
3249491047113,3.9240396,2.743683,9.371325
3249510911482,2.8164709,1.123878,10.90329
3249530768507,2.030178,-1.8530984,11.700695
3249550625660,1.1005846,-4.1070724,11.619277
3249570482813,-0.563229,-3.0755892,12.919791
3249590339966,-1.2139782,-0.5629529,13.907776
3249610191865,-0.4074898,-1.9019032,11.311533
3249630049018,2.0544786,-2.3327096,8.43382
3249649906043,2.2115147,-0.58681446,6.8967586
3249669763068,0.83460325,0.9496142,6.723953
3249689620093,1.1630349,-0.0052527417,7.1233997
3249709484974,1.1241865,-1.2075515,6.620233
3249729342255,1.2140695,1.202196,6.5166383
3249749199408,1.9206014,3.020796,6.4148784
3249769056689,1.4120268,2.7493484,6.5510654
3249788913842,0.32376117,1.4653124,7.549664
3249808778985,0.18926632,1.0960175,9.874308
3249828636522,-0.09117076,2.7017405,10.776795
3249848493931,-3.6511698,3.752937,10.5615425
3249868351340,-6.8139277,-0.4658161,8.512146
3249888208877,-2.9037519,-7.2453732,8.952355
3249908064420,5.1849003,-6.3660064,16.091671
3249927921937,5.183498,2.2369661,16.00231
3249947779474,-0.39535078,0.5216543,8.564075
3249967637011,2.0556161,-0.07553974,6.582403
3249987494420,4.0530353,1.6230563,7.929168
3250007360578,4.419312,-0.6351495,9.28492
3250027218370,2.3158503,-2.5098152,10.086777
3250047076034,0.69464344,-2.5887904,10.83312
3250066933826,-1.5136715,-0.5201293,10.656969
3250086791490,-1.9292672,-1.0608377,10.354978
3250106641773,-0.9560571,-1.1787198,10.176597
3250126499437,0.1470591,1.2383679,9.7835045
3250146356973,0.45203575,0.69968194,9.197305
3250166214637,0.24154864,-1.015314,8.802568
3250186072173,0.29760703,-1.4543777,9.106238
3250205925669,0.42468107,-0.87880075,9.720111
3250225783205,0.3628055,-0.30540553,9.622865
3250245640741,0.3239642,0.31332046,9.613372
3250265498277,0.04018576,0.6424022,9.642969
3250285355813,-0.19051836,0.2927328,9.552081
3250305214038,-0.5031874,-0.051057603,9.934599
3250325071574,-0.38741207,-0.2130673,9.991019
3250344929110,-0.049757447,0.3004443,9.700278
3250364786646,-0.09298757,0.26865312,9.576167
3250384644182,-0.36713088,-0.2947698,9.334123
3250404501194,-0.8716556,-1.0820488,9.158299
3250424358730,-1.3347919,-1.2397139,9.374837
3250444216266,-1.4925331,-0.61228096,9.648006
3250464073674,-1.4575078,0.21026474,9.5753145
3250483931210,-1.0859501,0.24881214,9.789957
3250503782206,-0.81233686,-0.50809807,10.675075
3250523639486,-0.989472,-0.37444928,11.193146
3250543496767,-1.128785,-0.3357113,11.265826
3250563354048,-1.3184949,-0.3205444,10.980843
3250583211329,0.48854056,0.28593108,11.006864
3250603061664,2.5320919,2.6832402,10.8906
3250622918689,1.9511662,3.4394052,10.846043
3250642775842,-0.2750557,2.407975,10.160311
3250662632988,-0.03276852,-0.88749564,9.759776
3250682490141,-0.12150939,-1.3489406,8.970452
3250702347294,0.3602753,-1.0593547,9.028999
3250722204005,1.024876,-0.41654786,9.612757
3250742061158,0.7520021,-0.48424757,9.390147
3250761918311,0.2943132,-0.10976374,9.152492
3250781775464,0.41130063,0.36893988,10.243495
3250801632489,0.8811269,1.0142132,10.886607
3250821482376,1.028981,1.3208065,10.860965
3250841339272,-0.23976718,1.1459665,10.897256
3250861196296,-0.9515247,0.28262424,10.710269
3250881053192,-1.00391,-1.9360222,9.762747
3250921226896,-0.42504275,-2.9221087,9.282929
3250941084671,-0.40280306,-4.3198414,8.526821
3250960941568,0.25842404,-2.1999257,8.924184
3250980798593,1.0494255,0.88147056,9.109752
3251000655490,1.6349287,1.18303,9.381734
3251020512387,1.4726491,0.71136785,9.104244
3251040373956,0.59968656,0.9369065,8.617381
3251060230981,-0.8028247,0.20063034,9.344084
3251080088006,-0.077477835,-0.5289188,8.958885
3251099945031,1.6985754,0.22131321,8.164373
3251119802056,1.8845139,1.2039783,7.7397466
3251139660827,1.5723524,1.499829,7.852975
3251159517852,1.3416872,1.397538,8.61176
3251179375005,0.8066022,1.1975268,9.377912
3251199232158,0.12020783,1.0525243,9.642812
3251219089311,-0.86110884,1.5775691,9.874345
3251238940888,-1.46228,2.35685,9.779525
3251258797785,-2.0865753,2.7756474,10.072058
3251278654810,-1.5369091,2.4179494,13.485619
3251298511707,0.26700437,-0.5553792,16.647875
3251318368604,0.34422007,-2.4302871,12.127886
3251338224863,-0.7943249,-0.90138113,5.9887114
3251358081888,2.4234529,-0.81597733,5.6638565
3251377938785,3.9602578,-1.2620106,8.124123
3251397795659,2.4962747,-0.21994865,10.174302
3251417652684,1.4117899,-2.7014258,10.438475
3251437507345,0.482225,-2.9096274,9.95387
3251457364242,0.12433314,-1.9117627,10.40453
3251477221139,-0.2664717,-0.5051709,10.797844
3251497078164,-0.65878314,-0.2175354,10.586032
3251516935061,-0.42812982,-0.1811998,10.617906
3251536791552,9.407804E-5,-0.16129093,10.425105
3251556648321,-0.11837529,-0.36285,9.9378395
3251576505218,-0.42998958,-0.5692353,9.626056
3251596362115,-0.19944791,-0.8440169,9.40566
3251616218884,0.10606241,-1.1525043,9.236189
3251636075877,0.7779062,-1.1841371,9.113463
3251655932774,1.028277,-1.4333655,9.029805
3251675789671,0.8563141,-1.5535358,9.21085
3251695646568,0.5579035,-1.5782202,9.309412
3251715503465,-0.066976815,-2.0257754,9.2959
3251735365316,-0.48593196,-2.2992592,9.413217
3251755222341,-0.64365375,-1.9425443,9.686857
3251775079238,-0.2905242,-1.4798464,9.744709
3251794936263,-0.13168758,-1.8552241,9.46034
3251814793160,-0.27116477,-1.9902734,9.310235
3251834652507,-0.33485907,-1.5968457,9.601428
3251854509404,-0.37348166,-1.2717754,9.985282
3251874366406,-0.6081219,-1.3323184,10.18227
3251894223431,-0.9664799,-1.8888983,9.945518
3251914080328,-1.4380012,-1.9995065,9.626943
3251933942615,-1.4109354,-1.811144,9.584377
3251953799768,-1.1155521,-1.8056077,9.450904
3251973656921,-0.68590856,-2.0144875,9.440805
3251993514074,-0.50405866,-2.3619387,9.4375
3252013371227,-0.54053813,-2.4746919,9.366791
3252033239198,-0.47970858,-2.2225018,9.262136
3252053096607,-0.13633968,-1.9808692,9.250669
3252072954016,0.23848715,-1.878083,9.481363
3252092811425,0.18457377,-2.1249819,9.939546
3252112668834,-0.4579191,-2.92172,10.650434
3252132524611,-1.2259349,-3.2417333,10.971244
3252152381892,-1.8060703,-3.3247464,10.665025
3252172239301,-1.2263751,-2.7032692,10.433275
3252192096710,0.06361656,-1.7311479,10.298409
3252211954119,0.6074135,-0.5483791,10.148363
3252231816948,0.26211643,0.57451314,10.290296
3252251674485,-0.62228703,0.30762565,10.389474
3252271531894,-1.4390291,-1.0668463,10.100331
3252291389431,-1.0339224,-1.943253,9.46198
3252311246840,0.4803637,-1.1087741,9.967422
3252331102893,0.89515865,-0.30788308,10.226134
3252350960281,0.38540894,-0.55143833,10.001207
3252370817818,0.27439243,-1.1009097,10.371351
3252390675355,0.4061732,-1.2434577,10.134147
3252410532764,0.16912927,-0.7705436,10.501108
3252430385429,-0.25322193,-0.14322138,11.325054
3252450242838,0.23954658,0.42737916,11.284012
3252470100119,1.2623875,1.4823232,10.333464
3252489957528,0.8887684,1.3377467,10.594834
3252509814937,-0.92052454,-0.53219783,10.060347
3252529673292,-1.8283256,-3.5813603,8.458491
3252549530701,-1.5413084,-3.4120784,8.188449
3252569388110,-0.99399763,-2.4224217,8.336249
3252589245519,-0.99134684,-1.0571649,7.8210225
3252609102928,0.58629495,0.27029175,7.7758727
3252628941765,2.0130925,0.86004895,7.677186
3252648798790,1.7680278,1.2297591,7.6052504
3252668655943,1.2036169,1.2498792,7.80302
3252688513096,0.62654555,0.64655864,7.752661
3252708370121,0.16677849,0.15978788,7.9801455
3252728234052,-0.1926568,-0.0283512,9.187728
3252748091205,0.41749093,0.20842546,11.790394
3252767948486,3.1263697,3.467303,13.357334
3252787805767,2.6625268,9.588451,11.942926
3252807662920,-0.48518315,5.6245804,10.561806
3252827518056,-0.39109257,-2.7314825,10.897496
3252847375209,0.30341402,-7.0440326,10.242652
3252867232362,0.9981103,-3.8305092,8.524234
3252887089515,0.8720641,-0.68047535,8.691863
3252906946668,0.45877287,1.4412674,10.226195
3252926805923,1.4394435,-1.0329617,11.189148
3252946663076,1.5154755,-1.7850845,9.918027
3252966520229,1.4726765,-1.3856599,9.350729
3252986377510,0.8385944,-1.3324441,9.315234
3253006234663,0.3991805,-0.7943058,9.311867
3253026091816,-0.84570247,-0.9534974,9.554108
3253045947549,-1.4254711,-1.153931,9.792846
3253065804702,-0.2900163,-0.4698699,10.064487
3253085661727,0.41860938,0.46971333,10.550922
3253105518880,0.5449876,0.47407898,10.764473
3253125376033,0.47043535,-0.016932337,10.227104
3253145230546,0.29601395,-0.695559,9.592959
3253165087571,0.729545,-0.2550681,9.222422
3253184944596,0.34215826,-0.58481765,9.164453
3253204801621,-0.53864366,-1.1401526,9.361057
3253224658646,-0.8254107,-1.2777727,9.551441
3253244515781,-0.9302387,-2.1809595,9.575641
3253264372806,-0.8636493,-2.6142957,9.560591
3253284229703,-0.09189847,-2.0505207,9.744902
3253304086706,0.37339625,-1.2008858,9.818715
3253323943603,0.68554455,-0.4657163,9.776845
3253343798390,0.6180203,-0.8240915,9.634548
3253363655287,0.52987486,-1.2058342,9.470876
3253383512312,0.29266778,-1.3680576,9.457354
3253403369209,0.0072838953,-1.4881629,9.488001
3253423226106,-0.45630378,-1.584004,9.598015
3253443089013,-0.6503995,-1.4119537,9.832492
3253462946038,-0.3653078,-1.1223187,9.898822
3253482803063,-0.009702711,-1.2115891,9.811962
3253502660088,0.15030488,-1.4622056,9.6074295
3253522517241,0.1864772,-1.494911,9.508204
3253542382512,0.20034301,-1.5459172,9.459891
3253562239665,0.43337843,-1.5668589,9.406645
3253582096818,0.5264474,-1.4986295,9.385307
3253601953971,0.19072315,-1.4273295,9.315667
3253621811252,-0.37253588,-1.4411085,9.292869
3253641673007,-0.5838906,-1.588515,9.425232
3253661530416,-0.7023616,-1.8077418,9.541941
3253681387697,-0.68102753,-1.9241287,9.7851515
3253701245106,-0.70574194,-1.9552761,9.962439
3253721102387,-0.9018438,-1.754734,10.020938
3253740962734,-0.86091095,-1.7563854,10.178326
3253760820143,-0.87585884,-1.8807118,10.405378
3253780677531,-1.0668445,-2.1420212,10.411305
3253800534940,-0.9057274,-2.2915485,10.465218
3253820392349,-0.45894006,-2.2749166,10.03995
3253840251788,-0.024135515,-2.9088242,9.26405
3253860109325,1.1582466,-2.5670276,9.146255
3253879966862,1.6834693,-1.6738857,9.43615
3253899824399,1.6535927,-1.5882943,9.63973
3253919681936,1.6858275,-1.6821303,10.151243
3253939540027,1.4791555,-2.437244,10.474058
3253959397692,1.4186231,-2.5206995,10.243463
3253979255229,1.5276021,-2.0579722,10.098357
3253999112766,1.2940564,-2.162191,9.966115
3254018970431,1.3281833,-1.6338967,9.613599
3254038827712,1.4080492,-1.154116,9.281258
3254058685249,1.2992396,-1.1446342,9.165221
3254078542914,1.1728619,-1.3434917,9.201286
3254098400451,1.172156,-1.284085,9.399448
3254118258116,1.5857396,-0.6444318,9.472807
3254138118023,2.1990252,-0.18989663,9.246241
3254157975688,2.2802002,0.06898645,9.123503
3254177833481,2.3456802,0.41560555,9.301013
3254197691146,2.2183657,0.653129,9.664336
3254217548811,2.1977212,0.2923414,9.720407
3254237397620,1.9718596,-0.30033636,9.534025
3254257255007,1.6255763,0.41481563,9.170334
3254277112416,1.531595,1.0718513,9.2992
3254296969697,1.0299358,0.7411767,9.772651
3254316827106,0.42622536,0.9054255,10.174914
3254336682705,0.032858558,0.8744525,10.048892
3254356540114,0.9202865,-0.42477664,9.436977
3254376397523,1.8784189,-1.0420653,8.987605
3254396254804,1.6809354,-1.1102544,8.551517
3254416112213,1.5192752,-0.35412347,8.2448015
3254435970634,1.911664,0.106381856,8.433537
3254455828043,1.6256107,-0.030396517,8.684023
3254475685452,1.4639965,0.1210677,9.636272
3254495542861,1.4230508,0.65125674,11.274172
3254515400270,0.77696115,1.4445573,10.948161
3254535258971,0.82208276,1.4736137,9.741385
3254555116380,1.9615998,0.0611817,8.730191
3254574973789,2.0960553,-1.021525,8.7611265
3254594831198,2.602191,-1.313594,9.670524
3254614688607,2.2290802,-0.9062098,10.220775
3254634534998,1.202598,-1.3078914,10.095339
3254654392151,-0.38881868,-1.0471171,9.773027
3254674249432,-0.7732779,-1.0676432,10.029736
3254694106585,0.090697855,-1.5344977,9.869785
3254713963866,0.9676629,-1.2033215,9.310941
3254733812795,1.8374188,-0.21743375,9.3592415
3254753669820,2.5120273,-0.58034056,9.400882
3254773526845,2.7629411,-0.9119527,9.139237
3254793383870,2.3994455,-1.2438525,9.490149
3254813240895,1.299071,-2.3491035,9.575288
3254833096700,0.34075862,-2.5240247,9.43031
3254852953725,0.35350186,-1.7302117,9.355291
3254872810750,1.0305799,-1.0958027,9.612746
3254892667647,1.2518178,-1.1799376,9.694422
3254912524672,1.3967453,-1.3396933,9.77835
3254932374395,1.4333482,-1.8078352,9.781702
3254952231164,1.3149285,-2.2354496,9.69576
3254972087933,1.4383739,-2.0665596,9.753773
3254991944702,1.6646746,-1.8868865,9.698369
3255011801471,1.9384943,-1.6918608,9.789637
3255031663664,1.9603003,-1.4626399,9.718217
3255051520561,1.4677634,-1.2981027,9.528886
3255071377330,0.50182486,-1.2625806,9.195048
3255091234227,-0.003173353,-1.2097213,9.922754
3255111091124,0.45721847,-1.0970972,10.298695
3255130940005,0.34546018,-1.1233394,9.440798
3255150796774,0.012045335,-1.5002853,9.37216
3255170653415,0.069332525,-1.2780112,9.54645
3255190510184,0.606729,-0.9733411,9.500014
3255210366932,-0.05246007,0.0685534,9.609118
3255230223701,-0.31366837,0.3994395,9.749838
3255250088022,-0.40236905,0.08199374,9.828452
3255269944919,-0.22171593,-0.26589385,9.786926
3255289801688,0.13746966,-0.51929677,9.779013
3255309658585,0.3971416,-0.5082434,9.7651615
3255329515354,0.60522944,-0.06516864,9.751024
3255349375835,0.7153283,0.08403571,9.658116
3255369232732,0.7423601,-0.1116897,9.63143
3255389089629,0.7176642,-0.37370268,9.718034
3255408946526,0.6124624,-0.46145898,9.770396
3255428803551,0.43831158,-0.41530558,9.854543
3255448658448,0.33019766,-0.14631651,9.842974
3255468515345,0.32703096,-0.009266552,9.813465
3255488372242,0.34164277,-0.066627644,9.761259
3255508229011,0.3719279,-0.07374047,9.70009
3255528085908,0.40141767,-0.06008711,9.742455
3255547945999,0.3351653,-0.0054538213,9.773538
3255567802896,0.25559175,0.07186741,9.715865
3255587659793,0.23705637,0.079101615,9.726571
3255607516690,0.23254174,0.022169413,9.740617
3255627373587,0.23262528,0.111877315,9.734258
3255647236994,0.2629479,0.23916899,9.742534
3255667094019,0.30814987,0.17441657,9.694704
3255686951021,0.32471204,-0.023982964,9.704889
3255706808046,0.31375235,0.0409927,9.74807
3255726665071,0.22988036,0.025412066,9.745313
3255746528222,0.19449915,0.010724925,9.708351
3255766385375,0.24886005,0.015456521,9.717287
3255786242528,0.2904472,0.029136946,9.745913
3255806099681,0.28050393,0.020107996,9.754053
3255825956834,0.26572812,0.008342721,9.760303
3255845820051,0.24735294,0.0089908475,9.785084
3255865677332,0.21151951,0.046319157,9.78624
3255885534741,0.124215156,0.100631446,9.782119
3255905392022,0.09018822,0.06067653,9.78432
3255925249431,0.06681649,0.03822913,9.740033
3255945108942,0.06948513,0.047987107,9.716063
3255964966223,0.14265227,0.09833479,9.723168
3255984823632,0.19135733,0.1457747,9.760588
3256004681041,0.15846573,0.11120208,9.758166
3256024538450,0.105494715,0.0031819446,9.743473
3256044405769,0.08722884,-0.09818805,9.72147
3256064263434,0.11130777,-0.07401509,9.722027
3256084121099,0.12140598,0.020329446,9.732601
3256103978764,0.14995538,0.05417395,9.7380705
3256123836429,0.14557509,0.004909347,9.76898
3256143697604,0.1457368,-0.02282629,9.781399
3256163555378,0.14889094,-0.03463614,9.774068
3256183413171,0.11703823,-0.010746143,9.741969
3256203270964,0.10747784,0.028120779,9.756079
3256223128757,0.07382356,0.06054423,9.734621
3256242981350,0.06350241,0.056748886,9.7116585
3256262839015,0.053814583,-8.2434574E-4,9.75026
3256282696680,0.055464827,0.0065618902,9.7505455
3256302554345,0.11284338,0.06687174,9.707043
3256322412010,0.13555059,0.09344401,9.732164
3256342265627,0.17867653,0.055728167,9.715266
3256362123292,0.2193724,0.023209577,9.718585
3256381980829,0.19950943,-0.01195544,9.738572
3256401838494,0.18860166,-0.01231432,9.730545
3256421696031,0.18187799,-0.0010473751,9.759184
3256441561224,0.14967822,-0.02821228,9.7841425
3256461419017,0.116243064,-0.046171106,9.758924
3256481276810,0.13596572,-0.079333015,9.7193165
3256501134603,0.17276922,-0.07606728,9.723467
3256520992268,0.154173,-0.014427831,9.743122
3256540850115,0.09734956,0.010181561,9.756351
3256560707908,0.070859775,-0.0032990403,9.715779
3256580565701,0.110700704,-0.007778964,9.701859
3256600423366,0.18209733,-0.041435663,9.697813
3256620281159,0.2480607,-0.07438389,9.706833
3256640136933,0.30399027,0.023971394,9.717323
3256659994726,0.26029924,0.0077891224,9.755006
3256679852519,0.22499825,-0.0048272423,9.755087
3256699710312,0.26004344,-0.009402821,9.727235
3256719568105,0.29544842,-0.024460025,9.710824
3256739417542,0.2882502,-0.041207608,9.701222
3256759275079,0.26788783,-0.028577872,9.7344885
3256779132488,0.2106458,-0.048643928,9.776559
3256798990025,0.21307041,-0.019833133,9.653984
3256818847562,0.33684823,0.057004537,9.63626
3256838705099,0.3026014,0.023489334,9.817187
3256858552576,0.18850599,0.04519004,9.78601
3256878409857,0.061526716,0.055880614,9.790269
3256898267266,0.106564514,-0.07911465,9.808566
3256918124675,0.23572654,-0.16324072,9.72644
3256937982084,0.36820713,-0.11398732,9.70072
3256957832173,0.33736005,-0.12246303,9.809728
3256977689454,0.21802802,-0.09757765,9.762583
3256997546607,0.13525598,-0.0732448,9.699745
3257017403888,0.16878383,-0.11283361,9.718574
3257037261041,0.2491533,-0.11102761,9.688625
3257057117346,0.33051786,-0.13606715,9.664133
3257076974499,0.3581258,-0.10886225,9.717262
3257096831652,0.3110387,-0.06964196,9.751662
3257116688783,0.24997501,8.824002E-4,9.755972
3257136545936,0.17126682,-0.051928047,9.746759
3257156394561,0.15815017,-0.10779306,9.733877
3257176251458,0.18060684,-0.17545527,9.767997
3257196108483,0.1804597,-0.1556442,9.795779
3257215965380,0.14261757,-0.06735117,9.755539
3257235822277,0.089123845,-0.02787643,9.737226
3257255680704,0.054977585,-0.05508739,9.73415
3257275537729,0.108587176,-0.10776779,9.698293
3257295394626,0.17380536,-0.15849008,9.721386
3257315251651,0.17453846,-0.12050542,9.766976
3257335108548,0.11034695,0.041586496,9.810236
3257354962879,0.026651083,0.27373272,9.716934
3257374819776,0.001968782,0.2313717,9.701796
3257394676673,-0.06900334,0.015318069,9.799526
3257414533570,0.117442794,-0.21698205,9.756807
3257434390467,0.3022042,-0.2691663,9.687226
3257454244670,0.1877276,-0.38426363,9.656377
3257474101439,0.1339845,-0.052440174,9.665377
3257493958208,0.1574103,0.31455025,9.692652
3257513814977,0.14896081,0.12804711,9.728145
3257533671874,0.12796596,0.05058048,9.773774
3257553531831,0.07339298,0.037996683,9.774818
3257573388600,0.10157431,-0.033747967,9.734871
3257593245346,0.23239091,0.049506474,9.774347
3257613102243,0.23822576,-0.11083781,9.798404
3257632959012,0.19003844,-0.19360481,9.749618
3257652819481,0.16424112,-0.034593225,9.706975
3257672676378,0.15575658,0.003923232,9.731844
3257692533275,0.17941535,0.0015267082,9.739937
3257712390172,0.21530193,-0.016411068,9.750208
3257732247197,0.18435141,-0.07966434,9.733358
3257752108628,0.18567683,-0.045122087,9.724829
3257771965653,0.21182042,-0.06511545,9.748797
3257791822678,0.24685706,-0.10532277,9.76559
3257811679575,0.2863792,-0.096709244,9.744744
3257831536600,0.26541767,-0.058856543,9.676893
3257851390803,0.15758377,-0.010488751,9.655608
3257871247700,0.15901051,0.011278146,9.697576
3257891104725,0.20827737,-0.008155171,9.759012
3257910961622,0.22837444,-0.07162538,9.770063
3257930818519,0.20935616,-0.0953043,9.723672
3257950674502,0.20555161,-0.050307035,9.692125
3257970531271,0.1993712,-0.044032276,9.734732
3257990388168,0.2245234,-0.030691922,9.765093
3258010245065,0.20902838,-0.078596644,9.765726
3258030101962,0.20478924,-0.103751145,9.733811
3258049966911,0.23430046,-0.058022793,9.757477
3258069824042,0.1904406,-0.0024589365,9.749158
3258089681067,0.20208341,-0.0030699873,9.744804
3258109538220,0.15568766,0.04566296,9.712698
3258129395245,0.097071104,0.07506733,9.694105
3258149254128,0.09917209,0.093904234,9.7089405
3258169111409,0.14052506,0.07234443,9.7184725
3258188968562,0.17652695,0.027082229,9.749964
3258208825715,0.15470804,0.0118674785,9.753039
3258228682996,0.094607405,0.016898567,9.733898
3258248550193,0.07901794,0.0020502359,9.745679
3258268407602,0.13474244,-0.019860866,9.75285
3258288265011,0.14219597,-0.04430876,9.731412
3258308122420,0.14483824,0.04682161,9.753361
3258327979829,0.10572014,0.02481813,9.749332
3258347841434,0.09706643,0.048094135,9.700515
3258367698971,0.10691198,0.07933076,9.729054
3258387556508,0.0672181,0.06426519,9.773909
3258407414173,0.073586576,0.02920455,9.766873
3258427271710,0.0866652,0.024496367,9.7524395
3258447131809,0.124902815,0.04295813,9.686081
3258466989346,0.14422712,0.012344107,9.7183485
3258486846883,0.13372391,-0.028180346,9.769742
3258506704548,0.10551471,-0.07611772,9.780086
3258526562085,0.09009544,-0.004663643,9.763074
3258546418376,0.10610643,-0.006272931,9.735454
3258566275913,0.10651285,0.03581627,9.721874
3258586133450,0.159379,0.09959624,9.690502
3258605990987,0.18927908,0.058160275,9.740385
3258625848524,0.14885001,0.0039334013,9.767526
3258645700551,0.08667532,-0.020849735,9.767419
3258665557960,0.084747545,0.017751474,9.720146
3258685415497,0.11271592,0.0049548363,9.727364
3258705273034,0.13447176,7.948933E-4,9.735821
3258725130443,0.1360453,0.045007,9.731816
3258744981634,0.14769249,0.024035089,9.751225
3258764838915,0.14067885,-0.024679875,9.7778635
3258784696324,0.13910584,-0.065074876,9.755257
3258804553605,0.1321355,-0.007294928,9.697156
3258824410886,0.14964518,0.050538454,9.71515
3258844260347,0.1593528,0.032190748,9.771363
3258864117500,0.17138007,-0.003430908,9.746639
3258883974781,0.123961926,-0.040510062,9.70252
3258903831934,0.10688049,-0.008719185,9.691562
3258923689087,0.13095732,-0.037760712,9.718435
3258943546368,0.14297312,-0.105542205,9.751176
3258963403819,0.17716485,-0.10320806,9.767462
3258983260972,0.2102256,-0.018699937,9.742294
3259003118125,0.18578869,0.077074975,9.692876
3259022975256,0.17929088,0.09971996,9.683016
3259042832537,0.2621371,0.13388449,9.655817
3259062689678,0.39521146,0.16125864,9.656665
3259082546831,0.4413831,0.1195228,9.771867
3259102403984,0.38097376,-0.08896801,9.849207
3259122261137,0.29486096,-0.21568774,9.818742
3259142118290,0.21408741,-0.17955798,9.774578
3259161973961,0.1730531,-0.043279324,9.731352
3259181831114,0.10420742,0.08523066,9.690035
3259201688267,0.054939587,0.14579624,9.750593
3259221545292,0.063733324,0.23456392,9.8072605
3259241402445,0.11823086,0.22956645,9.817665
3259261260414,0.13245405,0.08344383,9.772771
3259281117567,0.14695244,0.04731578,9.725788
3259300974720,0.16861068,0.13917196,9.727035
3259320831873,0.20556849,0.174063,9.7073345
3259340688898,0.23097242,0.14845063,9.72681
3259360547763,0.22495674,0.02904853,9.790279
3259380404916,0.12201437,-0.09557554,9.796596
3259400262069,0.036116447,-0.1267988,9.761254
3259420119222,-0.021855114,-0.105288595,9.749411
3259439976375,-0.07169494,-0.04901412,9.754122
3259459828134,-0.142981,-0.061817966,9.787267
3259479685159,-0.24455385,-0.05837032,9.820909
3259499542164,-0.27468747,0.16479619,9.80213
3259519399189,-0.25193313,0.15694198,9.730119
3259539256214,-0.1316659,0.1212825,9.735848
3259559119303,0.012681955,0.11557922,9.752928
3259578976456,0.15067461,0.11635251,9.778525
3259598833481,0.19110684,0.14932454,9.801805
3259618690634,0.23168479,0.18099181,9.795878
3259638546623,0.34718317,0.33716145,9.737039
3259658403776,0.32412174,0.23031844,9.72834
3259678260801,0.25726068,-0.12657796,9.715471
3259698117954,0.28833932,-0.234835,9.709858
3259717974979,0.3776042,-0.103694625,9.761598
3259737832004,0.38028443,-0.14923222,9.699224
3259757687169,0.3239203,-0.24127845,9.686754
3259777544194,0.36221966,-0.07160572,9.711576
3259797401091,0.31941625,-0.063816845,9.750491
3259817258116,0.27329862,-0.11824352,9.713018
3259837116677,0.34661058,-0.030025791,9.66427
3259856973830,0.38997832,-0.108620085,9.657392
3259876830855,0.31761485,-0.1730081,9.648319
3259896688008,0.2575467,-0.14208797,9.681009
3259916545033,0.2318525,-0.1684844,9.764747
3259936402058,0.26296136,-0.18692032,9.797936
3259956265983,0.22575924,-0.20169355,9.743026
3259976123115,0.28432754,-0.27478036,9.767584
3259995980396,0.37354413,-0.1757458,9.730906
3260015837677,0.310221,-0.16232352,9.6981945
3260035694830,0.23457734,-0.12795055,9.65111
3260055556115,0.2298916,-0.09455653,9.647929
3260075413524,0.20210898,-0.07845768,9.6992
3260095270933,0.18011418,-0.15823504,9.698346
3260115128214,0.24509852,-0.22622642,9.7147455
3260134990853,0.3149012,-0.2446758,9.768096
3260154848390,0.30950168,-0.20616303,9.808906
3260174705927,0.25613236,-0.08805611,9.78217
3260194563336,0.24433275,-0.03720947,9.749069
3260214420873,0.25144458,-0.05667154,9.718198
3260234278410,0.1999322,-0.019806052,9.730285
3260254140347,0.15179533,0.0028537805,9.692834
3260273998012,0.097857445,0.040767148,9.676202
3260293855549,0.015252264,0.023965014,9.726108
3260313713214,-0.020489328,-0.009644476,9.73609
3260333570751,-0.052211665,-0.016908003,9.7606735
3260353431024,-0.05756682,0.06356007,9.729708
3260373288689,-0.010490737,0.13267209,9.711475
3260393146354,0.09739475,0.12480228,9.736831
3260413004019,0.19315046,0.08587928,9.724527
3260432861684,0.20854077,0.13871542,9.665035
3260452719328,0.09549468,-0.13649538,9.687014
3260472570631,0.06797147,-0.11845773,9.80624
3260492428168,0.069377325,-0.03492851,9.735666
3260512285705,0.14891163,-0.018916078,9.710037
3260532143114,0.24165349,-0.07902143,9.779895
3260551998601,0.20749015,-0.04666619,9.799059
3260571856138,-0.10000838,0.018903468,9.757074
3260591713547,-0.09104031,0.15175106,9.690648
3260611571084,0.12002363,0.0044128667,9.790961
3260631428493,0.30220282,-0.119039215,9.78299
3260651276546,0.25399205,-0.071394175,9.737231
3260671133827,0.15383074,0.06488417,9.733567
3260690991108,0.16901869,0.12719136,9.771283
3260710848517,0.19597082,0.07534956,9.800598
3260730705798,0.19580936,0.029218968,9.800373
3260750563207,0.114358164,0.064902835,9.7831955
3260770417080,0.013840025,0.13443772,9.824235
3260790274233,-0.026984168,0.090355635,9.815708
3260810131514,-0.094754964,0.0012658945,9.774667
3260829988795,-0.11773554,-0.09019177,9.753419
3260849835110,-0.11229991,-0.03782455,9.745934
3260869692135,-0.08586382,0.034456007,9.770399
3260889549160,-0.053169314,0.02178165,9.74532
3260909406185,-0.07174853,0.0608203,9.709147
3260929263189,-0.19860424,-0.033249993,9.714029
3260949120214,-0.16637714,-0.073575236,9.685046
3260968976459,-0.11269247,-0.09651197,9.705204
3260988833484,-0.04658915,-0.12750143,9.72069
3261008690509,0.03066894,-0.14269535,9.704237
3261028547534,0.058977976,-0.108792275,9.707544
3261048404431,0.09659542,-0.070087455,9.692947
3261068261822,0.14226228,-0.030282587,9.703979
3261088118719,0.21453714,-0.1350074,9.742625
3261107975616,0.29691324,-0.17246583,9.709406
3261127832641,0.33661035,-0.13850977,9.725697
3261147692464,0.35802174,-0.061124843,9.749896
3261167549489,0.37265924,-0.02368706,9.781966
3261187406514,0.30635074,-0.03450345,9.804826
3261207263539,0.18265878,-0.043554198,9.855033
3261227120564,0.0843836,-0.14189138,9.876245
3261246977589,0.0720715,-0.1880857,9.835984
3261266834852,0.06292801,-0.09190129,9.77116
3261286691877,0.033893436,0.07417128,9.742935
3261306548774,-0.0021558485,0.16284373,9.707924
3261326405799,-0.037317332,0.071781486,9.716163
3261346262824,-0.07033497,-0.08647451,9.7219095
3261366115985,-0.045041762,-0.09233183,9.705936
3261385972754,0.042827327,-0.02290193,9.730194
3261405829628,-5.9827806E-5,0.12176697,9.768168
3261425686525,0.009103697,0.05975527,9.770527
3261445541722,0.060267925,-0.09479011,9.740156
3261465398491,0.15729874,-0.15469496,9.728912
3261485255260,0.20821346,-0.11560298,9.722283
3261505112157,0.21853252,-0.023267359,9.726495
3261524968926,0.24880661,-0.031639267,9.748705
3261544825695,0.29587826,-0.098339446,9.799122
3261564689466,0.29860607,-0.11417141,9.788145
3261584546363,0.31600395,-0.028410584,9.725736
3261604403260,0.3227414,0.07148741,9.687319
3261624260285,0.26618162,0.03233034,9.68741
3261644117182,0.24754374,-0.06741334,9.708017
3261663975445,0.26921996,-0.12624404,9.716213
3261683832342,0.2319623,-0.08911674,9.720816
3261703689239,0.22909777,-0.059585065,9.742309
3261723546264,0.26560676,-0.014124543,9.762107
3261743403161,0.30679253,-0.013600777,9.742324
3261763260058,0.32487282,-0.08119421,9.733523
3261783125185,0.29256824,-0.121796235,9.752179
3261802982338,0.281715,-0.074404106,9.783028
3261822839363,0.22559978,-0.05156011,9.760174
3261842696516,0.2108506,-0.07415286,9.719593
3261862551291,0.26518434,-0.045321792,9.692557
3261882408293,0.22999586,-0.07250978,9.710669
3261902265446,0.25633138,-0.07645209,9.726624
3261922122599,0.23231672,-0.10492136,9.727591
3261941979752,0.23540996,-0.10664388,9.753697
3261961841071,0.26635233,-0.08883108,9.741538
3261981698352,0.28684673,-0.07966675,9.737299
3262001555633,0.25244462,-0.08647795,9.79168
3262021412914,0.16368522,-0.09129466,9.794628
3262041270195,0.10765609,-0.117990576,9.770503
3262061127476,0.075545795,-0.104782596,9.753427
3262080989553,0.08390378,-0.09649779,9.748149
3262100846962,0.12679805,-0.09591301,9.721352
3262120704371,0.13783042,-0.054194458,9.722798
3262140561780,0.13343136,-0.031288385,9.765918
3262160420195,0.14665273,-0.021129189,9.740853
3262180277604,0.14360514,-0.06346018,9.723919
3262200135141,0.1310662,-0.06564308,9.739762
3262219992550,0.13479537,-0.008506352,9.752759
3262239850087,0.1370005,0.027464941,9.757287
3262259704990,0.09735254,0.005364726,9.753276
3262279562399,0.06737878,-0.03194642,9.737447
3262299419808,0.08026654,-0.04059053,9.737767
3262319277089,0.117680036,-0.046867672,9.764339
3262339134498,0.17486349,-0.028391957,9.770867
3262358991886,0.14163224,-0.017724218,9.76996
3262378849593,0.15838511,-0.031922396,9.755017
3262398707002,0.19371016,-0.054561086,9.747036
3262418564411,0.18524545,-0.07271877,9.785507
3262438421820,0.19018565,-0.051203668,9.762157
3262458263061,0.13663962,-0.057954106,9.753454
3262478120086,0.10396843,-0.05778438,9.742765
3262497977111,0.12993175,-0.08821308,9.730539
3262517834136,0.17376946,-0.06270122,9.734333
3262537691161,0.16894506,-0.0081599895,9.740824
3262557548186,0.112103514,-0.019997897,9.763583
3262577408769,0.11316542,-0.040180057,9.776657
3262597265922,0.114823535,-0.057587206,9.753596
3262617122947,0.13018432,-0.053675532,9.7206545
3262636980100,0.15077855,-0.0353241,9.726689
3262656837125,0.17116986,-0.038007,9.755554
3262676686702,0.16747515,-0.0352577,9.746497
3262696543727,0.17724235,-0.063072495,9.743569
3262716400624,0.2039588,-0.056283157,9.750565
3262736257521,0.19149977,-0.036848046,9.765346
3262756110304,0.16605061,-0.03757376,9.775507
3262775967073,0.1743714,-0.04950371,9.752027
3262795823970,0.20383391,-0.03210968,9.749721
3262815680739,0.20207617,-0.041709263,9.746891
3262835537613,0.18679285,-0.0139192855,9.750029
3262855394510,0.20763165,-0.020353124,9.759329
3262875245939,0.22621122,-0.0278029,9.747082
3262895102708,0.21492806,-0.051947862,9.737158
3262914959349,0.19264261,-0.025617838,9.751032
3262934816118,0.17447495,-0.0092433095,9.773463
3262954672887,0.14016946,-0.04098142,9.746342
3262974529626,0.15874547,-0.075133234,9.737221
3262994386267,0.18067789,-0.06386974,9.769265
3263014243036,0.17776877,-0.03704831,9.76165
3263034099677,0.15096135,-0.039451964,9.735555
3263053956738,0.12865646,-0.06346328,9.780025
3263073813379,0.1401061,-0.041701466,9.789779
3263093670020,0.12007584,-0.03038907,9.746886
3263113526661,0.090530194,-0.07015538,9.735619
3263133383302,0.12009593,-0.068550706,9.742026
3263153239943,0.17530358,-0.042526506,9.735012
3263173099632,0.14750935,-0.03902871,9.726313
3263192956401,0.15219022,-0.060747728,9.731639
3263212813042,0.14997073,-0.060252495,9.756074
3263232669811,0.15319283,-0.053678468,9.768206
3263252526452,0.17805022,-0.04559716,9.780394
3263272389831,0.15261795,-0.03351803,9.755068
3263292246728,0.15596306,-0.057540245,9.72417
3263312103476,0.14702205,-0.06826523,9.735515
3263331960373,0.1344088,-0.06681191,9.732217
3263351817142,0.14604001,-0.04966521,9.743989
3263371673911,0.16703725,-0.04201926,9.7661915
3263391527132,0.16716154,-0.025552917,9.738186
3263411383901,0.14534481,-0.025210455,9.738291
3263431240798,0.12406646,-0.062027704,9.753008
3263451097567,0.09743822,-0.08396046,9.754741
3263470952648,0.09890797,-0.074204475,9.755158
3263490809417,0.10062892,-0.04727174,9.751748
3263510666058,0.12039616,-0.045763027,9.75682
3263530522827,0.13954541,-0.06576003,9.758255
3263550379468,0.13274662,-0.07795084,9.751058
3263570241021,0.12808263,-0.056644026,9.750456
3263590097790,0.13307168,-0.03898317,9.746115
3263609954559,0.13690461,-0.06585957,9.756137
3263629811328,0.11201804,-0.07817886,9.760662
3263649668097,0.122611545,-0.06578638,9.736043
3263669524994,0.14312692,-0.049622055,9.739494
3263689384171,0.13779116,-0.036935803,9.791582
3263709241068,0.13892078,-0.011953729,9.780877
3263729097837,0.13979675,-0.04858335,9.754427
3263748954734,0.10809986,-0.08665144,9.738868
3263768822493,0.11394078,-0.08074044,9.731309
3263788679496,0.1288313,-0.024478514,9.751331
3263808536649,0.15440367,0.041539084,9.750287
3263828393674,0.15341583,-0.0036401912,9.742718
3263848250827,0.17539366,-0.04866324,9.747137
3263868094070,0.1543626,-0.032139946,9.738405
3263887950967,0.11524765,-0.045054045,9.727376
3263907807864,0.1253479,-0.07902546,9.738618
3263927664761,0.14557481,-0.076449044,9.748641
3263947521658,0.14776884,-0.059919134,9.754272
3263967378555,0.14353012,-0.06045313,9.759529
3263987245924,0.15418541,-0.05449307,9.749084
3264007103077,0.15792169,-0.04202195,9.744637
3264026960230,0.16583824,-0.03364187,9.732229
3264046817383,0.17207003,-0.0118030775,9.732925
3264066676578,0.14348024,-0.0146746505,9.757591
3264086533603,0.14067273,-0.07576108,9.7709465
3264106390756,0.13152885,-0.100577675,9.741412
3264126247909,0.17579572,-0.05821307,9.746491
3264146104934,0.19067831,-0.029908698,9.763548
3264165962087,0.16285437,-0.027911995,9.752229
3264185825206,0.13394213,-0.06870727,9.733502
3264205682615,0.15105228,-0.081289075,9.752566
3264225539896,0.16315591,-0.03507435,9.751744
3264245397177,0.17512468,-0.018225374,9.75874
3264265254437,0.16401145,-0.06277511,9.751919
3264285116808,0.13987832,-0.07104266,9.74681
3264304974089,0.14449424,-0.057623357,9.730235
3264324831498,0.1386483,-0.054197684,9.745571
3264344688907,0.16285358,-0.019094639,9.745087
3264364548596,0.12789421,-0.033348702,9.748035
3264384406005,0.10967823,-0.028930139,9.738234
3264404263414,0.12974955,-0.04362379,9.759267
3264424120823,0.14603892,-0.05387892,9.747194
3264443978360,0.16914709,-0.060372684,9.756332
3264463835769,0.16285257,-0.029818194,9.761322
3264483670242,0.1454342,-0.03046395,9.755947
3264503527267,0.1531365,-0.033441335,9.735609
3264523384164,0.13221447,-0.03198119,9.766958
3264543241189,0.12147146,-0.07181286,9.777744
3264563098086,0.13804267,-0.041506212,9.770559
3264582945091,0.1316603,-0.022439234,9.767608
3264602801860,0.13871944,-0.038085733,9.756212
3264622658629,0.14607249,-0.063127615,9.741792
3264642515398,0.15686516,-0.047892515,9.739138
3264662368321,0.17076468,-0.019069247,9.751463
3264682225090,0.18063323,-0.046341483,9.73663
3264702081731,0.16279827,-0.050554346,9.747978
3264721938372,0.15061556,-0.08726726,9.747047
3264741795118,0.13522515,-0.069211826,9.755558
3264761651759,0.14190029,-0.081330605,9.763727
3264781515094,0.14462379,-0.11483578,9.763758
3264801371863,0.16475429,-0.11850216,9.768552
3264821228632,0.16307065,-0.0718827,9.788534
3264841085529,0.14057955,-0.060034227,9.767611
3264860942298,0.11413681,-0.069572076,9.738547
3264880796539,0.12889358,-0.112871036,9.753542
3264900653308,0.19078022,-0.11176417,9.768517
3264920510077,0.20794114,-0.04447029,9.753911
3264940366846,0.16584076,-0.05818332,9.733557
3264960223615,0.16653064,-0.07608892,9.749267
3264980080384,0.17575423,-0.054612417,9.761657
3264999930603,0.16873874,-0.05828608,9.73806
3265019787116,0.14086626,-0.07236484,9.737843
3265039643757,0.15696153,-0.07072005,9.731342
3265059500270,0.17373756,-0.037490495,9.7557
3265079347153,0.15913516,-0.055961747,9.763404
3265099203538,0.13741225,-0.046078615,9.77124
3265119059923,0.10550666,-0.025913712,9.759111
3265138916308,0.07535943,-0.029575396,9.745308
3265158772565,0.045896135,-0.07322275,9.753084
3265178633930,0.056090813,-0.039344694,9.761309
3265198490443,0.032620884,-0.026192615,9.755058
3265218346807,0.0018129229,-0.035375208,9.751638
3265238203320,0.05065644,-0.058340438,9.759268
3265258059705,0.1671602,-0.058512583,9.763232
3265277916218,0.21070695,-0.04219951,9.754592
3265297775321,0.19528492,-0.03829138,9.749305
3265317631834,0.19087525,-0.047271438,9.768547
3265337488347,0.17605695,-0.059581403,9.754934
3265357344732,0.14879327,-0.085539035,9.749092
3265377210013,0.18849649,-0.036857367,9.754975
3265397066654,0.19086216,-0.026010444,9.740906
3265416923423,0.17637832,-0.045313545,9.724404
3265436780064,0.13579516,-0.059475437,9.740093
3265456636705,0.13355783,-0.064304404,9.737625
3265476491896,0.14694214,-0.076976284,9.761906
3265496348281,0.13539693,-0.056268316,9.762068
3265516204794,0.11720434,-0.047815416,9.757373
3265536061307,0.120778166,-0.070958935,9.748285
3265555917820,0.13764653,-0.0695922,9.748913
3265575774333,0.13407269,-0.04644874,9.758
3265595632986,0.118264616,-0.055932324,9.7374325
3265615489627,0.12618473,-0.07698977,9.771451
3265635346140,0.1250352,-0.033244852,9.798459
3265655202653,0.113630615,-0.024671894,9.7664585
3265675071218,0.058434453,-0.06104676,9.738921
3265694928094,0.09034321,-0.044105627,9.712031
3265714784863,0.16418982,-0.018296119,9.727019
3265734641760,0.16084109,-0.018834218,9.7635765
3265754498529,0.11762159,-0.06067181,9.746607
3265774355426,0.13433236,-0.07617101,9.751047
3265794225533,0.13960084,-0.045205284,9.764381
3265814082686,0.14692456,-0.04903449,9.760916
3265833939839,0.13743915,-0.056085747,9.778459
3265853796992,0.13637318,-0.055517,9.768955
3265873654145,0.13238339,-0.057158582,9.752404
3265893517546,0.12801288,-0.039100673,9.729833
3265913374955,0.13905157,-0.037371363,9.721456
3265933232364,0.1454775,-0.02876607,9.745392
3265953089773,0.1520245,-0.029934393,9.737345
3265972958062,0.13737729,-0.022275921,9.744275
3265992815855,0.13164458,-0.015525121,9.7429085
3266012673648,0.15337181,-0.024636349,9.732682
3266032531441,0.16420592,-0.056574646,9.756111
3266052389234,0.16073456,-0.06450991,9.760856
3266072247027,0.14119177,-0.04228375,9.759549
3266092092684,0.14727458,-0.036464643,9.754386
3266111950221,0.1421516,-0.057799093,9.7754135
3266131807630,0.15334219,-0.0673837,9.756683
3266151665167,0.16504316,-0.048757818,9.749244
3266171522553,0.13314971,-0.028959235,9.739951
3266191379872,0.11409543,-0.061699793,9.735265
3266211237281,0.11639128,-0.067470506,9.751557
3266231094690,0.11721442,-0.064134955,9.739595
3266250952227,0.09622219,-0.060375184,9.727691
3266270811586,0.13464797,-0.081092276,9.79697
3266290669123,0.14862844,-0.07577856,9.773998
3266310526532,0.13631053,-0.04424691,9.755567
3266330384069,0.081991896,-0.0768621,9.737938
3266350241478,0.08652468,-0.10042123,9.735996
3266370099015,0.15093987,-0.08756297,9.73922
3266389962416,0.15017493,-0.07357682,9.744986
3266409820209,0.12997292,-0.08533796,9.748948
3266429677874,0.16490464,-0.07623557,9.767317
3266449535539,0.18097277,-0.059226155,9.752066
3266469393204,0.15927362,-0.06565049,9.746863
3266489240015,0.12857556,-0.075531796,9.744872
3266509097424,0.13940445,-0.0866395,9.745398
3266528954961,0.13453084,-0.068939716,9.761508
3266548812370,0.11062833,-0.04402312,9.787431
3266568669907,0.14633238,-0.028515777,9.750573
3266588527444,0.12678735,-0.03232757,9.745288
3266608370303,0.11159243,-0.043766834,9.751123
3266628227584,0.12619708,-0.09085219,9.753864
3266648084715,0.12714158,-0.0659098,9.752928
3266667941996,0.14093904,-0.041675054,9.765004
3266687785601,0.14490213,-0.05453139,9.746853
3266707642498,0.14340417,-0.06818248,9.767885
3266727499267,0.14420119,-0.07393485,9.748118
3266747356164,0.14015633,-0.061765533,9.742092
3266767212933,0.1421709,-0.03626602,9.757967
3266787069872,0.14041261,-0.041374646,9.760253
3266806926769,0.12634964,-0.0586123,9.751063
3266826783538,0.12397159,-0.0298726,9.75073
3266846640307,0.11780889,0.0024940115,9.763116
3266866497204,0.13512671,-0.007226376,9.782312
3266886353973,0.12757264,-0.010576068,9.753964
3266906206164,0.13936308,-0.017142477,9.723271
3266926062933,0.16300985,-0.049463116,9.762067
3266945919574,0.1936884,-0.02402382,9.774762
3266965776215,0.16819592,-0.0142832855,9.746816
3266985638330,0.08915416,-0.024833875,9.745248
3267005494971,0.09408718,-0.06945641,9.734637
3267025351740,0.1296942,-0.07494581,9.747247
3267045208509,0.13584337,-0.05099126,9.755323
3267065065278,0.13065822,-0.05569255,9.748357
3267084923565,0.10075501,-0.055739783,9.785469
3267104780334,0.09012435,-0.056600135,9.75279
3267124637210,0.11062547,-0.04463211,9.759574
3267144493979,0.107623994,-0.037720986,9.760341
3267164350748,0.09854424,-0.030527867,9.749735
3267184207517,0.05527887,-0.036562867,9.746987
3267204061628,0.04032777,-0.023946114,9.754283
3267223918141,0.04780332,-0.03025446,9.750634
3267243774782,0.0685655,-0.0430058,9.752336
3267263631423,0.07804848,-0.04209522,9.751325
3267283497200,0.08538905,-0.032483615,9.760753
3267303354097,0.083420716,-0.048778716,9.750305
3267323210866,0.07997943,-0.07258779,9.741971
3267343067763,0.07923552,-0.04574207,9.736476
3267362924532,0.1295568,-0.017084934,9.735006
3267382781301,0.16578417,-0.02236373,9.752333
3267402640842,0.17308857,-0.03536857,9.741045
3267422497739,0.16941635,-0.036413677,9.751052
3267442354636,0.15016589,-0.025224544,9.739425
3267462211533,0.13383801,-0.026965655,9.74357
3267482068558,0.1359188,-0.054548506,9.7609415
3267501934391,0.112150855,-0.05153588,9.790364
3267521791416,0.104003705,-0.07735494,9.804168
3267541648441,0.097253844,-0.10920054,9.802951
3267561505594,0.08553594,-0.10208759,9.790222
3267581357799,0.11203792,-0.111864,9.757656
3267601214802,0.1657334,-0.09886766,9.765808
3267621071827,0.1494851,-0.08267199,9.787921
3267640928852,0.17819537,-0.07239235,9.74909
3267660785877,0.16639589,-0.06760856,9.733802
3267680642902,0.12761803,-0.042413983,9.734845
3267700505345,0.1253607,-0.022387175,9.755613
3267720362498,0.13563636,-0.06851992,9.739625
3267740219651,0.124878585,-0.080101244,9.718412
3267760076676,0.11582259,-0.058706637,9.744856
3267779933829,0.12669751,-0.02309814,9.767493
3267799801636,0.10977478,-0.042683523,9.74891
3267819659045,0.09456422,-0.08952765,9.74299
3267839516454,0.110474154,-0.0806973,9.741728
3267859373735,0.11144083,-0.051102296,9.733732
3267879231144,0.10343582,-0.06339102,9.760455
3267899088553,0.11630995,-0.06498544,9.766155
3267918947412,0.13907506,-0.06884655,9.748876
3267938804949,0.16217749,-0.054817136,9.751944
3267958662486,0.13931882,-0.03811042,9.757931
3267978519895,0.09050495,-0.050472762,9.765099
3267998384132,0.10831009,-0.07351604,9.7737875
3268018241925,0.113682434,-0.08240354,9.770237
3268038099590,0.083852656,-0.052198015,9.746429
3268057957383,0.11398805,-0.059233125,9.74986
3268077815027,0.13472082,-0.07201772,9.751671
3268097666642,0.13521889,-0.06757213,9.756758
3268117524307,0.12333075,-0.079626195,9.75718
3268137381972,0.14826727,-0.08094526,9.742359
3268157239509,0.15139207,-0.07186597,9.749906
3268177097174,0.12154359,-0.068905324,9.74122
3268196954839,0.08821696,-0.078765266,9.74408
3268216807450,0.109390415,-0.07362563,9.739771
3268236664859,0.13544406,-0.051014476,9.760307
3268256522396,0.1241423,-0.047547672,9.744853
3268276379796,0.12708302,-0.032627262,9.727647
3268296231548,0.11573611,-0.0625202,9.760447
3268316088829,0.103938356,-0.05474272,9.786374
3268335946108,0.10181483,-0.04448716,9.748608
3268355803516,0.08822656,-0.072399214,9.743143
3268375660797,0.095127694,-0.07455114,9.739849
3268395515298,0.12547678,-0.05631574,9.735385
3268415372578,0.13460872,-0.060326304,9.748566
3268435229859,0.12341061,-0.046600748,9.757933
3268455087010,0.115964875,-0.0386096,9.778444
3268474944290,0.10899602,-0.060304057,9.765448
3268494801571,0.088999234,-0.06273617,9.757777
3268514649677,0.0866525,-0.030046199,9.752791
3268534506701,0.11409621,-0.029187556,9.764153
3268554363726,0.12182362,-0.047764692,9.75972
3268574220749,0.10455909,-0.04455209,9.756884
3268594065394,0.1208819,-0.034314204,9.74098
3268613922291,0.13181809,-0.012214763,9.741194
3268633779058,0.10517371,-0.023733525,9.764937
3268653635954,0.07944608,-0.044171307,9.758867
3268673492723,0.07980732,-0.07268494,9.754557
3268693349490,0.08945581,-0.029643603,9.732131
3268713206173,0.12265929,-0.020872436,9.743958
3268733062942,0.12039215,-0.02744519,9.7726555
3268752919709,0.10693416,-0.038678635,9.7609005
3268772776477,0.08657385,-0.06008554,9.739511
3268792633246,0.109061986,-0.054314375,9.744883
3268812486406,0.12567791,-0.05881126,9.747591
3268850121758,0.10699272,-0.05581288,9.752114
3268869978399,0.09914649,-0.07318589,9.729949
3268889835040,0.11948313,-0.062541254,9.735886
3268909693243,0.12550281,-0.036479473,9.737137
3268929550012,0.13144428,-0.02763594,9.744406
3268949406653,0.10909541,-0.040909585,9.743311
3268969263294,0.093704805,-0.04043188,9.711121
3268989120063,0.09617648,-0.06684811,9.745183
3269008976704,0.097449444,-0.084128074,9.787261
3269028834403,0.1167906,-0.07120451,9.759674
3269048691044,0.08871168,-0.07037243,9.767409
3269068547685,0.080787286,-0.10496357,9.751263
3269088404326,0.11613322,-0.10864538,9.745
3269108260967,0.1157063,-0.11979329,9.768382
3269128120728,0.12666658,-0.12948988,9.761749
3269147977497,0.13339745,-0.098993696,9.768072
3269167834266,0.15791498,-0.10876688,9.75282
3269187691035,0.14929838,-0.08433657,9.753025
3269207546598,0.122659266,-0.092810616,9.755121
3269227403111,0.119555846,-0.09220372,9.74824
3269247259752,0.11745328,-0.10710713,9.757043
3269267116393,0.103854254,-0.07896792,9.777327
3269286972906,0.108198285,-0.05666165,9.763998
3269306829547,0.14487496,-0.085267924,9.7341
3269326695018,0.16237344,-0.084073655,9.739652
3269346551787,0.12357523,-0.073714614,9.7563925
3269366408556,0.10929467,-0.07312882,9.757883
3269386265325,0.100870706,-0.08920546,9.752765
3269406122094,0.11287355,-0.08236282,9.749621
3269425977061,0.122508444,-0.080366336,9.748786
3269445833958,0.14899133,-0.10632891,9.758726
3269465690727,0.12544893,-0.06358529,9.747273
3269485547624,0.10985504,-0.05625002,9.756619
3269505404393,0.12097829,-0.083334796,9.758384
3269525261162,0.10391352,-0.065093555,9.749351
3269545117485,0.10078583,-0.05459915,9.73835
3269564974254,0.11635018,-0.038815465,9.742725
3269584831023,0.10733621,-0.048651893,9.752591
3269604687792,0.09699012,-0.055082902,9.748355
3269624546715,0.08963296,-0.06450776,9.750841
3269644403612,0.1144226,-0.07605055,9.761981
3269664260381,0.13043283,-0.045775197,9.764934
3269684117278,0.1445383,-0.024029206,9.752989
3269703974175,0.10788447,-0.026829429,9.749268
3269723829196,0.07947942,-0.051333502,9.740744
3269743686093,0.10962605,-0.06102405,9.756302
3269763542990,0.12506911,-0.055914983,9.74062
3269783399759,0.15172023,-0.052384663,9.740581
3269803256633,0.14982922,-0.044338938,9.765481
3269823113402,0.13717581,-0.020222679,9.773314
3269842978035,0.1420975,-0.05932493,9.743475
3269862835060,0.14290562,-0.094440445,9.765018
3269882692085,0.17452717,-0.08967523,9.742845
3269902549238,0.17450973,-0.07150019,9.758625
3269922407627,0.15914491,-0.059391007,9.768289
3269942264780,0.14091077,-0.055132285,9.753549
3269962121933,0.1441099,-0.056696042,9.738632
3269981978958,0.15977654,-0.03358156,9.741107
3270001836111,0.1534135,-0.0066921664,9.738846
3270021694958,0.12512974,-0.020521624,9.750381
3270041552111,0.08461415,-0.04596763,9.764741
3270061409264,0.102768585,-0.028851366,9.747228
3270081266417,0.09710462,-0.052695945,9.748513
3270101123698,0.08955487,-0.021613847,9.756326
3270120980851,0.0764003,-5.020173E-4,9.737448
3270140834030,0.07978806,-0.007822298,9.772782
3270160691055,0.08490383,-0.005800183,9.77482
3270180548208,0.07235133,0.0041277693,9.743015
3270200405361,0.086432576,0.03576133,9.726952
3270220258722,0.11546244,0.017675031,9.688929
3270240115619,0.1402454,-0.002155478,9.680172
3270259972516,0.13484672,0.024054958,9.687418
3270279829518,0.20194748,0.030869251,9.681098
3270299686415,0.3337098,0.030721039,9.696681
3270319543312,0.3057021,-0.019628273,9.679032
3270339412105,0.2081475,-0.038744297,9.675497
3270359269258,0.17619468,-0.055614278,9.699255
3270379126539,0.20969802,-0.010913038,9.725595
3270398983692,0.2811321,0.044670302,9.741625
3270418840845,0.2848498,0.08804797,9.737106
3270438699564,0.20978974,0.08299257,9.758839
3270458556717,0.18893738,0.010332331,9.818514
3270478413998,0.2048465,-0.005316173,9.861637
3270498271151,0.15837596,0.06404346,9.827864
3270518120160,0.0949241,0.15563114,9.761199
3270537977185,0.04416478,0.07097259,9.769957
3270557834210,0.10437441,-0.012507522,9.825461
3270577691235,0.2718678,0.022873163,9.823063
3270597548260,0.35141206,0.12436531,9.829483
3270617405285,0.38631216,0.22641616,9.823577
3270637258202,0.39953664,0.25282803,9.778267
3270657115227,0.36321288,0.24061346,9.735226
3270676972124,0.27671033,0.24559435,9.758838
3270696829149,0.21890241,0.3152467,9.801049
3270716686174,0.25474268,0.3663939,9.801066
3270736539573,0.28349516,0.36330852,9.75449
3270756396449,0.23961334,0.35236934,9.661624
3270776253346,0.19372723,0.3084959,9.631772
3270796110243,0.21096179,0.2811543,9.669098
3270815972614,0.19969569,0.23026557,9.719702
3270835829639,0.16042213,0.24925166,9.751587
3270855686664,0.08127143,0.33700097,9.790017
3270875543689,-0.03696306,0.30007926,9.780068
3270895400714,-0.102673955,0.22210258,9.7353115
3270915257739,-0.11062122,0.15880573,9.753316
3270935117684,0.0014428607,0.121997885,9.756214
3270954974837,0.104884945,0.06273941,9.777689
3270974831990,0.18250161,0.12699647,9.803365
3270994689143,0.21140644,0.25321013,9.799793
3271014546296,0.15286702,0.29356515,9.77724
3271034397437,0.09819761,0.3262602,9.794775
3271054254462,0.07043243,0.29726002,9.81724
3271074111359,-0.0017896079,0.24154295,9.839894
3271093968384,-0.106221795,0.2898489,9.767056
3271113825409,-0.22593404,0.31565785,9.718295
3271133682306,-0.2774303,0.2750455,9.679592
3271153541353,-0.26694548,0.15375166,9.689173
3271173398378,-0.2571962,0.09802306,9.689031
3271193255403,-0.14626338,0.17414458,9.729068
3271213112300,-0.085920215,0.27673167,9.805088
3271232967041,-0.14292264,0.32834262,9.792836
3271252823938,-0.12248778,0.40198535,9.682593
3271272680835,-0.25745443,0.3568165,9.7003
3271292537860,-0.34730566,0.21698792,9.77183
3271312394757,-0.2996218,0.0772789,9.706333
3271332251758,-0.2202475,0.06764718,9.685526
3271352108655,-0.17437491,0.15505765,9.675048
3271371965552,-0.11406944,0.25095695,9.707154
3271391822449,-0.101275705,0.30097124,9.740802
3271411679474,-0.08261338,0.26926732,9.770432
3271431536371,-0.06333837,0.1999168,9.751456
3271451394970,-0.026325077,0.110071756,9.702671
3271471251867,-0.0265419,0.100354,9.704412
3271491108892,-0.076173745,0.17796509,9.72947
3271510965789,-0.10768609,0.24893038,9.76911
3271530821820,-0.11839303,0.25351354,9.780176
3271550678717,-0.20015033,0.22020493,9.725757
3271570535742,-0.24620475,0.20695087,9.705348
3271590392639,-0.24530478,0.26574084,9.760138
3271610249536,-0.28099418,0.32237384,9.7653885
3271630105525,-0.37223408,0.2961434,9.755878
3271649962422,-0.40060422,0.23528914,9.7157955
3271669819319,-0.30233467,0.16397703,9.669359
3271689676216,-0.1882756,0.14797314,9.683193
3271709533090,-0.071963176,0.19454047,9.694027
3271729389987,-0.07006368,0.33652565,9.725695
3271749247560,-0.23900223,0.38379464,9.751035
3271769104457,-0.45737073,0.36007378,9.723227
3271788961354,-0.5580356,0.273165,9.693443
3271808818251,-0.500594,0.22775815,9.684372
3271828678556,-0.4818036,0.21501645,9.753959
3271848535581,-0.51075536,0.250321,9.785964
3271868392478,-0.5327487,0.2993769,9.786872
3271888249503,-0.4832434,0.28443474,9.759063
3271908106400,-0.34998086,0.19014956,9.779838
3271927963297,-0.23504914,0.13967313,9.769401
3271947824312,-0.27398062,0.20441332,9.763494
3271967681465,-0.36185834,0.27945554,9.746393
3271987538490,-0.44063213,0.2563844,9.716536
3272007395643,-0.4385054,0.14117593,9.712919
3272027252796,-0.37703767,0.06243369,9.732433
3272047119641,-0.3287177,0.07320322,9.752434
3272066977050,-0.31625682,0.14970596,9.749393
3272086834331,-0.29249892,0.15527327,9.720835
3272106691740,-0.21822974,0.057044685,9.662843
3272126542603,-0.18476973,-0.011934821,9.664176
3272146399884,-0.20412692,-0.045276504,9.745814
3272166257037,-0.25146887,0.019962545,9.774582
3272186114297,-0.30753785,0.07249428,9.747821
3272205971450,-0.37755492,0.09912354,9.759239
3272225828731,-0.4218002,0.09535575,9.775526
3272245687530,-0.46429852,0.0441619,9.781008
3272265544683,-0.516553,0.04040923,9.766733
3272285401964,-0.5146808,0.029019566,9.719875
3272305259117,-0.4305099,0.004361352,9.704749
3272325116398,-0.35151258,-0.014674246,9.753298
3272344965591,-0.27476877,0.023943119,9.803778
3272364822616,-0.26637828,0.037776805,9.87873
3272384679641,-0.3171685,0.074942656,9.862402
3272404536666,-0.5257769,0.089254744,9.797705
3272424399951,-0.67526954,0.04039651,9.700779
3272444257104,-0.6426557,-0.060267393,9.637186
3272464114257,-0.50487244,-0.13305907,9.692824
3272483971410,-0.40256703,-0.12626868,9.769813
3272503828691,-0.44682428,-0.0048684236,9.782973
3272523685844,-0.5177572,0.06277698,9.792587
3272543540797,-0.54687864,0.047069773,9.796833
3272563397950,-0.5814125,-0.019114362,9.769062
3272583255103,-0.6927777,-0.09315248,9.770244
3272603112256,-0.78294533,-0.12596254,9.750502
3272622969409,-0.8279517,-0.07579665,9.715209
3272642817172,-0.8578399,-0.08445085,9.686249
3272662674046,-0.87234545,-0.12338945,9.6318445
3272682530943,-0.83756125,-0.04524467,9.588042
3272702387968,-0.8154748,-0.03898801,9.65865
3272722240511,-0.8422444,-0.07026713,9.714642
3272742097408,-0.85023475,-0.12702033,9.706572
3272761954305,-0.7839356,-0.19702719,9.699674
3272781811202,-0.60523015,-0.25808784,9.657875
3272801668099,-0.5212912,-0.3305581,9.5669565
3272821524996,-0.5168435,-0.33951426,9.589999
3272841372519,-0.54937273,-0.39368093,9.669072
3272861229288,-0.5633084,-0.42452726,9.70931
3272881085929,-0.5852049,-0.4751336,9.727225
3272900942570,-0.5999503,-0.5524956,9.7087145
3272920799339,-0.5919697,-0.6071801,9.621944
3272940659618,-0.58787084,-0.6100659,9.66235
3272960516259,-0.6439221,-0.53651404,9.789131
