UPTIMENANO,Ax,Ay,Az
351635467803506,-0.4668251,0.07268846,9.546158
351635487659756,-0.08613625,0.056228556,9.990404
351635507516397,0.25616297,-0.14429562,10.877142
351635527373036,0.55294573,-1.0918156,11.010518
351635547229548,0.10271732,-0.11456285,9.439029
351635567086189,0.56359154,0.52255476,8.815489
351635586939987,0.3950072,0.40311202,9.368061
351635606796627,2.0330362,-0.30436885,9.808311
351635626653140,2.5713854,0.3040011,10.234708
351635646509779,1.6247269,0.35712758,8.854436
351635666366291,0.8308577,-0.9494907,10.055484
351635686222804,0.9089152,-0.9277776,10.870242
351635706040092,1.2919816,-0.740195,9.916051
351635725895836,0.14721708,-0.20197569,9.720581
351635745751581,-1.8657045,0.91030604,9.962674
351635765607324,-1.87313,2.1614325,8.930814
351635785473607,1.5279714,0.55594236,8.992297
351635805329480,0.39489806,-1.0383747,11.36472
351635825185479,-0.5003032,-1.4630784,11.557168
351635845041351,-0.2902069,-1.6087071,10.79404
351635864897352,-0.2587892,-0.796149,10.0976
351635884761293,0.40204605,0.9422787,9.254511
351635904617293,1.676726,0.8007647,9.826607
351635924473166,1.5819105,-0.3297303,10.112183
351635944329165,-0.78990906,0.15237963,9.547621
351635964185165,-1.0149659,-0.85769475,10.10174
351635984041166,0.10334471,-1.9997772,11.689672
351636003917182,0.64434767,0.7503662,9.213975
351636023773566,-0.8940993,1.5500025,8.128521
351636043629823,-1.0662941,0.5948992,9.095281
351636063486206,0.03408881,-0.7962137,10.108508
351636083353138,-0.6497499,-1.247385,10.842444
351636103209651,-1.7502068,-1.3058597,11.438187
351636123066290,-1.1372964,-1.5528692,12.389587
351636142922930,-0.81135607,-1.5362875,13.067785
351636162779571,-0.6123031,-1.7107713,11.801434
351636182646251,-0.72607195,-1.3983002,11.30385
351636202503147,0.1921016,-1.6041037,11.393023
351636222359916,3.4686692,0.14150964,11.916143
351636242216811,2.5577538,0.056664422,9.881489
351636262073579,-1.1244028,1.1851528,5.6023626
351636281930348,0.6888078,0.5707112,6.0244093
351636301790303,4.8984804,3.6885388,7.850312
351636321647327,8.113809,3.1814148,9.529574
351636341504224,3.3489957,-4.9972167,8.478154
351636361361247,0.56564665,-6.696741,9.718154
351636381222745,0.7579801,-2.8148115,10.039513
351636401079770,1.0251101,1.1339159,7.6922374
351636420936921,3.6637638,1.8157464,4.305498
351636440794073,5.7877584,-0.55430365,-2.1247644
351636460651226,7.138795,-2.3013067,-7.1695704
351636480508249,-3.4708624,-5.1402225,-1.4712919
351636500367961,-10.178933,-0.9551999,4.641505
351636520225114,-12.526978,2.2366405,11.913776
351636540082265,-1.7647961,-8.907975,25.3543
351636559939417,0.2973506,-3.699677,27.77121
351636579796570,2.3381133,-0.6167534,27.198158
351636599656007,1.5749412,0.82490444,13.9552765
351636619513159,4.778409,-0.7342622,8.484977
351636639370440,6.836692,-1.845728,6.107179
351636659227591,2.7682958,-2.4761045,12.090203
351636679097153,-6.891229,-4.0832725,11.097504
351636698954562,1.156141,-1.9845697,16.066723
351636718812097,0.70304847,-0.39812195,16.16411
351636738669633,-3.8109245,1.0087695,2.751623
351636758527170,4.0600586,6.988068,-3.1287906
351636778384705,6.1391206,1.3920513,0.92446566
351636798242119,3.1031663,-1.3347479,6.9503794
351636818099656,3.1091485,0.72151375,11.030505
351636837957191,0.44627586,-0.80370414,9.367589
351636857814855,-0.71604264,-0.010596204,9.674684
351636877672392,4.2587094,-0.077073224,7.6228857
351636897527440,2.2761898,-2.6077766,9.536825
351636917387773,0.08199567,-2.7038827,11.042635
351636937245438,3.593409,-3.7315083,10.98398
351636957102973,2.7236104,-0.64297986,11.692207
351636976964739,1.6926571,0.7682628,12.672085
351636996822532,4.906234,-1.5580779,13.930772
351637016680195,4.1160808,-3.4870903,18.061684
351637036537987,-0.9049146,-2.678202,20.621857
351637056395780,-2.1484118,-4.118761,19.828327
351637076253571,-3.397852,-6.3797145,16.82459
351637096105414,-7.6248093,-1.3169122,14.863456
351637115963207,-4.649039,1.9486518,12.798078
351637135820870,-4.128867,0.73676085,10.058744
351637155678534,-2.7576306,-1.2050138,8.339786
351637175536327,-3.005712,-4.782873,6.9825144
351637195395813,-3.2191405,-4.7599325,7.294195
351637215253605,-1.9909998,-1.5494728,6.3881226
351637235111398,-1.9943404,0.39607003,5.657102
351637254969189,-2.5090358,1.5259637,5.5754137
351637274804442,-3.1575668,-0.5458216,7.1002398
351637294661339,-3.2477224,-1.5714773,11.371834
351637314518362,-2.1355765,-4.1928406,9.916675
351637334375386,-4.2371397,-5.709036,9.805018
351637354232411,0.6414934,-5.403865,14.780815
351637374089306,-0.21572669,-1.8208237,11.456516
351637393948902,-1.071618,0.29079756,13.090236
351637413805927,1.9419385,2.3183153,12.655215
351637433662950,1.0398598,1.645726,10.843986
351637453519974,3.0146244,-3.4987655,11.606563
351637473376999,1.6305823,1.4898446,11.19561
351637493235643,3.5505934,4.32094,12.803137
351637513092667,9.238228,3.9379249,14.433517
351637532949692,4.59398,2.9023278,10.147012
351637552806715,0.3956407,1.6340299,6.3981533
351637572663739,-0.9746008,-1.1172754,5.788725
351637592520764,1.5197574,-2.4274342,10.852719
351637612374069,-2.0608892,-1.4360428,4.6370397
351637632231093,-3.82054,1.6254952,7.4278903
351637652088118,1.1012988,-0.798651,7.9582844
351637671945141,-2.0859578,-2.8261547,3.3524184
351637691809217,-6.4303703,-0.9949523,8.641174
351637711666370,-0.50205505,-0.72018236,10.257429
351637731523521,1.5197787,0.65056777,12.607911
351637751380801,0.44047278,0.900338,11.844121
351637771237954,3.443574,2.3592112,11.0789995
351637791097049,4.684185,2.5283132,11.632655
351637810954329,3.983296,1.8145773,11.372209
351637830811482,3.1808696,1.032428,9.378174
351637850668761,1.2537717,-0.3950945,10.642599
351637870526041,0.66241795,-0.6432125,10.968156
351637890383322,1.4486552,-0.21522416,11.689807
351637910239754,0.17412741,-0.2317888,13.130373
351637930097034,-0.109410875,-0.21888986,12.896871
351637949954187,1.2747952,-0.5201603,12.091169
351637969811338,0.53512406,-0.6745046,10.921321
351637989660483,-0.02262604,-0.108990215,10.795042
351638009517508,-2.0187304,-0.3911283,9.380849
351638029374531,7.7071834,1.0616904,15.498775
351638049231555,-1.0914135,-1.7112638,13.524856
351638069088580,-2.4376032,-1.1754068,14.387388
351638088943748,0.466223,-0.8510542,11.224538
351638108800772,0.8512285,-0.030329142,4.6389155
351638128657669,-2.2941701,1.4548212,4.713713
351638148514692,-2.9213133,-1.3812418,5.911426
351638168371588,-0.16517174,-1.1906078,8.019715
351638188228613,3.5094328,2.0532682,7.0718436
351638208092915,3.2843401,-1.4813932,9.062876
351638227949939,0.4546181,-0.51675594,9.601049
351638247806964,0.6411603,0.012755017,8.6747875
351638267664115,0.072129115,0.5113447,8.234295
351638287523498,2.1237388,-1.1829301,14.01162
351638307380651,-0.7257241,1.458504,24.755844
351638327237930,-4.6221304,-1.3966206,14.256081
351638347095082,-1.7508736,-1.4859141,10.75867
351638366952363,-3.3247352,-1.5710088,12.059045
351638386809514,-0.72009325,0.716379,12.789116
351638406648368,1.661906,6.2849154,8.799852
351638426505265,0.18983659,6.1187716,0.34874967
351638446362160,-0.466505,-1.4073305,3.8686378
351638466218928,-2.9569654,-3.228333,12.74497
351638486075825,-5.7805343,-1.4724368,15.191481
351638505934104,-4.1554837,-0.035492167,7.512982
351638525791000,0.27598104,-2.3579748,2.0815458
351638545647769,3.5557587,-5.3003697,3.5241468
351638565504664,5.871547,-8.807802,13.808032
351638585359969,0.35063997,-3.6862135,15.513131
351638605216866,0.5550818,0.13107319,10.731387
351638625073633,1.7301748,0.5138126,10.221047
351638644930529,4.1795745,2.7822497,12.15816
351638664787298,6.2856975,5.281914,12.864822
351638684644193,1.4863381,3.710176,10.521155
351638704498011,-1.3023145,2.8875768,9.197523
351638724354652,-0.67173016,2.044362,10.099394
351638744211419,-0.5218026,-0.38059914,10.249279
351638764068059,-0.74774706,-1.4723479,10.08723
351638783924828,-0.78771424,-1.1863228,9.865005
351638803789068,-0.7225838,-0.7010461,9.728886
351638823645836,-0.6081571,-0.958742,9.763667
351638843502733,-0.27564225,-1.4921447,9.685973
351638863359628,-0.40116677,-0.9364489,9.61433
351638883216335,-0.7105955,-0.18273525,9.705608
351638903073232,-0.7381275,0.2702962,9.517711
351638922929999,-0.58552474,0.13993157,9.026022
351638942789281,-0.17923965,-0.4209776,9.574397
351638962646178,-5.4033933E-4,-0.58723575,10.250043
351638982502945,0.055680614,-0.30843267,10.226039
351639002355288,0.16971508,0.046357192,10.049751
351639022212057,0.26168296,0.06145381,9.969537
351639042068824,0.2489355,-8.90998E-4,9.885386
351639061925592,0.105513535,0.1895031,9.796895
351639081782361,0.057578895,0.35968962,9.930312
351639101637654,0.2658246,0.51767385,9.976612
351639121494294,0.18471064,0.27634925,9.6005945
351639141351063,-0.018484477,-0.2764469,9.53433
351639161207830,-0.3049109,-0.60317945,9.57077
351639181064598,-0.36231956,-0.6438376,9.592361
351639200921367,-0.22651811,-0.49202743,9.925063
351639220773133,-0.16034864,-0.21795589,10.472406
351639240629773,-0.55412376,-0.0027326723,9.821254
351639260486286,-0.9340296,0.010937907,9.496528
351639280342797,-0.8837621,0.24167126,9.773977
351639300205709,-0.4863641,0.21367024,9.852987
351639320062478,-0.07257383,-0.022199532,9.896442
351639339919245,0.2319567,-0.22328338,9.8704815
351639359775885,0.21740247,-0.3793787,9.803846
351639379632654,-0.02420779,-0.45317936,9.732209
351639399493963,-0.2917101,-0.28665978,9.737573
351639419350860,-0.40765083,-0.11114203,9.867876
351639439207629,-0.25588217,0.07290391,9.84525
351639459064526,-0.0817108,0.07601965,9.748979
351639478921295,-0.11506511,-0.040381506,9.685523
351639498778192,-0.18203814,-0.18424062,9.691916
351639518639179,-0.17662704,-0.250907,9.689418
351639538496204,-0.091108166,-0.07238333,9.73498
351639558353101,-0.077647,0.08561197,9.754376
351639578210126,-0.2633675,-0.0022107053,9.746339
351639598067151,-0.3608587,-0.0051433654,9.799437
351639617924048,-0.30074418,-0.001074075,9.853212
351639637780945,-0.22229375,-0.08737532,9.834872
351639657637842,-0.18941543,-0.18692026,9.853118
351639677494739,-0.19072418,-0.053379286,9.912211
351639697354780,-0.2106382,0.12963401,9.850649
351639717211677,-0.24165091,0.09588241,9.827709
351639737068702,-0.25506103,-0.015794812,9.766348
351639756925599,-0.25329712,-0.08183067,9.7506
351639776782605,-0.1931051,-0.043809775,9.785078
351639796639630,-0.15618707,-0.02893184,9.756159
351639816499847,-0.26594883,-0.010628482,9.726216
351639836356871,-0.4348744,0.041643385,9.749479
351639856214024,-0.47042334,0.047507375,9.775128
351639876071175,-0.34431022,0.02516064,9.767565
351639895936926,-0.23909649,-0.06972798,9.849473
351639915794207,-0.23594026,-0.19986008,9.78039
351639935651614,-0.16689514,-0.15384534,9.82554
351639955508894,-0.15811756,-0.0069357557,9.809807
351639975366303,-0.14263022,-0.013771046,9.878014
351639995213430,-0.07252066,-0.060696572,9.920327
351640015070455,-0.07983628,-0.0419927,9.851258
351640034927480,-0.1472942,-0.017573757,9.715612
351640054784630,-0.1388778,-0.08217173,9.660934
351640074641654,-0.10781359,-0.100447185,9.694439
351640094498679,-0.064250834,-0.15259054,9.817453
351640114355714,-0.15980764,-0.19880275,9.751631
351640134212738,-0.30448547,-0.22842775,9.703336
351640154069891,-0.36043727,-0.23440045,9.674996
351640173926914,-0.3045991,-0.28600338,9.705824
351640193787022,-0.21875602,-0.28718564,9.681811
351640213644047,-0.12000449,-0.27586254,9.824441
351640233501198,-0.20021242,-0.31744403,9.868088
351640253358350,-0.3149074,-0.2754728,9.8796625
351640273215503,-0.28352156,-0.11193788,9.877348
351640293072526,-0.18074605,-0.010989616,9.770813
351640312923906,-0.10117999,-0.17109144,9.792195
351640332780931,-0.12049237,-0.29976612,9.812162
351640352637954,-0.13280709,-0.2019974,9.824898
351640372494850,-0.09618285,-0.115943454,9.793161
351640392351875,-0.05100053,-0.12773784,9.744792
351640412215798,-0.052689105,-0.16813841,9.784116
351640432072950,-0.15550396,-0.15526503,9.774086
351640451930231,-0.20023721,-0.20081694,9.759834
351640471787382,-0.21024711,-0.19490531,9.758294
351640491640718,-0.1393094,-0.18461505,9.790727
351640511497871,-0.10028343,-0.1477363,9.837623
351640531355022,-0.14824885,-0.06788176,9.811056
351640551212175,-0.17768855,-0.047778983,9.786114
351640571069328,-0.16393,-9.380755E-4,9.797968
351640590926609,-0.1674007,0.008080745,9.821523
351640610786842,-0.16288848,-0.04672519,9.804451
351640630643995,-0.16579805,-0.112674035,9.808087
351640650501274,-0.24779642,-0.057862733,9.781147
351640670358426,-0.30026823,-0.039747786,9.756288
351640690215579,-0.30264637,-0.01724958,9.732245
351640710078438,-0.30178377,-0.0072341724,9.757511
351640729935718,-0.2650837,-0.10167772,9.737075
351640749792999,-0.27240518,-0.1229164,9.707449
351640769650278,-0.2819964,-0.11241889,9.692612
351640789502291,-0.26678312,-0.075815216,9.733387
351640809359444,-0.27567416,-0.0027685151,9.781645
351640829216595,-0.25410676,-4.963697E-4,9.803338
351640849073747,-0.16941926,-0.007595189,9.867744
351640868930900,-0.12255211,-0.020534143,9.849682
351640888783661,-0.1574696,0.00651013,9.877194
351640908639052,-0.1885462,0.057257835,9.869014
351640928496205,-0.16346757,0.027889013,9.784372
351640948353230,-0.16843802,0.00856253,9.741556
351640968210383,-0.19951998,0.017552374,9.684705
351640988067536,-0.172939,-0.018649075,9.709749
351641007915817,-0.20417812,0.009287939,9.691094
351641027772713,-0.2707812,-0.017287511,9.651556
351641047629738,-0.28345117,-0.030811606,9.690259
351641067486633,-0.21418022,0.033147518,9.782808
351641087343657,-0.14580452,0.028798876,9.857071
351641107200554,-0.16399238,0.048970126,9.855558
351641127007560,-0.20880206,0.0030385766,9.853112
351641146863560,-0.25627542,0.010971148,9.899956
351641166719561,-0.2943093,-0.006098976,9.886618
351641186575560,-0.2831434,-0.058120772,9.835562
351641206438631,-0.25483325,-0.078249976,9.912015
351641226294760,-0.31434855,-0.07816985,9.883828
351641246150761,-0.36144444,-0.16258195,9.845052
351641266006890,-0.29165453,0.0023025626,9.720137
351641285862891,-0.27683562,0.03550072,9.668182
351641305721316,-0.29819387,-0.16329806,9.731031
351641325577445,-0.22657935,-0.14811772,9.664111
351641345433446,-0.14572528,-0.092805736,9.69624
351641365289575,-0.15361077,0.011921713,9.718073
351641385145704,-0.19503583,-0.012113054,9.728548
351641405001705,-0.2626234,-0.028291205,9.821153
351641424861314,-0.24521135,0.019795386,9.928608
351641444717315,-0.19057666,0.029140344,9.974452
351641464573444,-0.13819152,-0.011436646,10.015137
351641484429445,-0.04291357,0.046009175,9.882497
351641504290352,-0.04400226,0.057556488,9.535604
351641524146609,-0.17832276,-0.009910041,9.519873
351641544002738,-0.2968038,-0.023960961,9.6674385
351641563858995,-0.39792797,-0.20555833,9.725374
351641583715124,-0.27166685,-0.13149521,9.738605
351641603576061,-0.08551105,0.09579784,9.852919
351641623432190,-0.13400157,-0.0149071,9.740086
351641643288447,-0.24945883,-0.08929711,10.003203
351641663144704,-0.1465291,0.13585542,9.9855385
351641683000812,-0.08056677,0.007837249,9.814722
351641702857069,-0.19610214,-0.058855217,9.810936
351641722724528,-0.2771564,-0.096730925,9.84569
351641742580913,-0.25386077,-0.16725406,9.801376
351641762437298,-0.21137545,-0.14103845,9.777847
351641782293679,-0.18698858,-0.19142994,9.715272
351641802158768,-0.26084024,-0.24066587,9.707018
351641822015409,-0.2919539,-0.1321276,9.79914
351641841872048,-0.1449841,-0.07110341,9.800073
351641861728560,-0.101325616,-0.11551912,9.823423
351641881585201,-0.119465396,-0.07527944,9.794549
351641901441712,-0.12175272,-0.0735587,9.729104
351641921288746,-0.093474165,-0.048242632,9.793292
351641941145131,-0.038657907,-0.03608411,9.884786
351641961001386,-0.007218169,-0.09276428,9.8146715
351641980857770,0.054458875,-0.10634073,9.817561
351642000714155,0.03766478,-0.023833977,9.830912
351642020576204,-0.023025772,-0.009822296,9.906862
351642040432717,-0.17082545,0.03353347,9.834533
351642060289230,-0.25974855,0.0060464875,9.780405
351642080145743,-0.2912664,-0.028679894,9.7182
351642099993701,-0.3072575,-4.6701246E-4,9.675657
351642119849958,-0.33056426,-0.025004473,9.701154
351642139706341,-0.4201655,-0.026143134,9.694424
351642159562597,-0.4773125,-0.038843066,9.655198
351642179418982,-0.48346892,-0.048897214,9.706217
351642199275237,-0.3720317,-0.06435723,9.738144
351642219146609,-0.28148913,-0.097379215,9.800163
351642239003378,-0.24842978,-0.06800843,9.845357
351642258860017,-0.2639278,0.019160217,9.825809
351642278716785,-0.27823403,0.025423262,9.817536
351642298573426,-0.28281787,0.009346192,9.834852
351642318440951,-0.24622378,-0.06334619,9.804716
351642338297975,-0.24069875,-0.060299926,9.753428
351642358155000,-0.1699585,0.033634566,9.744362
351642378012025,-0.099300735,0.033238467,9.7525215
351642397879486,-0.075097784,-0.007565106,9.734983
351642417736895,-0.07557149,-0.0232518,9.76363
351642437594176,-0.04401623,-0.020125719,9.819528
351642457451585,-0.039557986,-0.0070168492,9.8363905
351642477308866,-0.058362983,0.00208126,9.828847
351642497166275,-0.12561615,0.057924382,9.840293
351642517027856,-0.20113476,0.022008404,9.832392
351642536885521,-0.2093505,-0.008702518,9.868302
351642556743058,-0.23191956,-0.018259522,9.8544855
351642576600595,-0.22240332,-0.068891756,9.77806
351642596458132,-0.24365585,-0.032285873,9.72767
351642616320071,-0.30546868,0.026713796,9.730122
351642636177736,-0.31463206,0.039501056,9.734168
351642656035529,-0.26037058,0.036361605,9.73655
351642675893194,-0.18552357,-0.040479593,9.736359
351642695750987,-0.13261688,-0.09898503,9.768872
351642715608652,-0.1525497,-0.09056119,9.800589
351642735446905,-0.18519081,-0.059499048,9.800037
351642755303910,-0.26631957,0.008841681,9.797273
351642775160935,-0.27270427,0.04970996,9.803927
351642795017830,-0.2305899,-0.04012795,9.809445
351642814879164,-0.22196418,-0.08674043,9.818076
351642834736317,-0.22905451,-0.02891457,9.77623
351642854593468,-0.21178634,-0.010511284,9.764128
351642874450492,-0.18378548,0.010140069,9.757924
351642894307645,-0.15768622,-0.0062120045,9.740713
351642914159903,-0.17170174,-0.022934644,9.745168
351642934016927,-0.21415384,-0.022405049,9.780726
351642953873952,-0.22173831,-0.02408622,9.799042
351642973729987,-0.1960393,-0.06096591,9.816801
351642993587012,-0.17951763,-0.025112208,9.842852
351643013444037,-0.17795032,0.006322578,9.844173
351643033297256,-0.18999514,0.014106864,9.838237
351643053154152,-0.1925886,0.03189395,9.828254
351643073011177,-0.1912507,-0.02999818,9.809262
351643092868072,-0.21452396,-0.106609434,9.765574
351643112726078,-0.2223319,-0.09422622,9.703258
351643132583103,-0.18020935,-0.08443854,9.690819
351643152439998,-0.17983145,0.008609277,9.715509
351643172297022,-0.20668595,0.06396611,9.734868
351643192153919,-0.20690641,0.023780137,9.774906
351643212012632,-0.18117169,-0.03583584,9.792127
351643231869657,-0.18376204,-0.10244892,9.816465
351643251726682,-0.25140116,-0.052236654,9.845589
351643271583707,-0.26567632,0.0740569,9.852705
351643291440732,-0.2220201,0.07518302,9.839692
351643311297757,-0.19291562,-0.027761618,9.842911
351643331153316,-0.18171158,-0.09205656,9.825564
351643351010469,-0.1991659,-0.048408717,9.78974
351643370867494,-0.21653935,0.017850064,9.775978
351643390724647,-0.21105817,-0.0070777116,9.757828
351643410580010,-0.20458558,-0.032539424,9.735021
351643430437035,-0.18150656,-0.055157635,9.747456
351643450294188,-0.19301511,-0.04963669,9.771478
351643470151341,-0.2177042,-0.005582708,9.778418
351643490008366,-0.24967168,0.017312244,9.771451
351643509865519,-0.2482901,0.036410097,9.826226
351643529712058,-0.21453899,-0.0014150845,9.859927
351643549568955,-0.18665299,-0.010908184,9.810278
351643569425724,-0.19313176,0.008978475,9.831259
351643589282621,-0.22509922,0.031873535,9.824291
351643609139390,-0.22858754,-0.015388317,9.789546
351643628990667,-0.21393198,0.0014555146,9.753773
351643648847436,-0.21429133,-0.0077619166,9.747361
351643668704077,-0.22256713,-0.033961955,9.736285
351643688560825,-0.19135444,-0.009009435,9.722818
351643708415728,-0.18749575,-0.023651902,9.720391
351643728272241,-0.17007203,-0.045309156,9.74876
351643748128754,-0.1994198,-0.045119565,9.767132
351643767985264,-0.20199779,-0.1260449,9.771562
351643787841777,-0.20902212,-0.04467594,9.803972
351643807698288,-0.17154121,-0.015311128,9.852619
351643827549296,-0.15717001,-0.10678882,9.836356
351643847405681,-0.15952286,-0.06559996,9.826118
351643867262064,-0.14840719,-0.05499384,9.828196
351643887118576,-0.16768594,-0.051292963,9.830768
351643906974961,-0.21896404,-0.066892825,9.839124
351643926831626,-0.20897941,-0.05891613,9.808575
351643946688010,-0.19088425,-0.08223799,9.828544
351643966544395,-0.1723531,-0.098861605,9.774565
351643986400778,-0.19004515,-0.07545484,9.7513275
351644006258156,-0.19696571,-0.021621235,9.767199
351644026114541,-0.16108811,-0.091862686,9.761111
351644045970924,-0.11947223,-0.10023762,9.761068
351644065827436,-0.09725606,-0.07448684,9.765263
351644085683821,-0.10657993,-0.10069784,9.783671
351644105540204,-0.13495699,-0.044615727,9.80635
351644125356049,-0.13019939,0.005621736,9.865098
351644145211666,-0.15528436,-0.013605843,9.975369
351644165067281,-0.16410908,-0.07252504,9.925294
351644184922897,-0.1544373,-0.1346333,9.6973
351644204778514,-0.23460375,-0.07948519,9.698839
351644224649317,-0.28335193,-0.014686098,9.769633
351644244505190,-0.26951355,-0.033699244,9.748672
351644264360935,-0.17053145,-0.06368192,9.758023
351644284216808,-0.06931131,-0.12681296,9.803024
351644304082415,-0.08673037,-0.1825798,9.812281
351644323938544,-0.23726645,-0.017104164,9.810187
351644343794545,-0.266981,0.009449678,9.787829
351644363650674,-0.23597156,-0.07969313,9.8141775
351644383506675,-0.15615748,-0.1120217,9.794394
351644403362676,-0.08240494,-0.15400964,9.800442
351644423236609,-0.0473203,-0.13669613,9.813372
351644443093122,-0.066135705,-0.089536585,9.803053
351644462949507,-0.15038942,-0.010930694,9.76671
351644482805892,-0.15476166,-0.016095318,9.763308
351644502662277,-0.16159807,-0.12078084,9.780959
351644522525282,-0.19948731,-0.14897205,9.816819
351644542381795,-0.2303769,-0.12327302,9.836057
351644562238308,-0.27561536,-0.039673176,9.789195
351644582094821,-0.25710624,0.012915315,9.79011
351644601951334,-0.20253466,-0.049295954,9.804301
351644621807847,-0.21943778,-0.08015888,9.788572
351644641663866,-0.22099128,-0.087692365,9.751416
351644661520379,-0.16652991,-0.111110024,9.757438
351644681376764,-0.12638673,-0.13424356,9.779746
351644701233253,-0.08529585,-0.05203838,9.794288
351644721098860,-0.118962206,-0.040480755,9.747103
351644740955501,-0.15139061,-0.12186916,9.722343
351644760812270,-0.14733331,-0.13632853,9.747881
351644780668907,-0.1442141,-0.12296206,9.773328
351644800525676,-0.13371743,-0.11344697,9.792934
351644820385613,-0.13851248,-0.12351681,9.781745
351644840242381,-0.14943826,-0.113264516,9.759437
351644860099278,-0.16405505,-0.0719967,9.788559
351644879956045,-0.12820712,-0.04874749,9.851173
351644899812941,-0.13469097,-0.07390079,9.871629
351644919669710,-0.15710025,-0.085500605,9.8148
351644939522541,-0.1415473,-0.07846855,9.781394
351644959376593,-0.04220435,-0.11417864,9.791688
351644979233362,-0.009316312,-0.14814411,9.753494
351644999090131,-0.0576364,-0.1305689,9.708872
351645018947174,-0.12335203,-0.08313421,9.725445
351645038803943,-0.14955245,-0.09440304,9.780488
351645058660838,-0.114081465,-0.16651416,9.7854595
351645078517606,-0.11696999,-0.14192998,9.789138
351645098374375,-0.16091822,-0.15943915,9.798047
351645118225605,-0.1725741,-0.2092626,9.800433
351645138082373,-0.21973705,-0.16669077,9.814155
351645157939014,-0.20932949,-0.13043356,9.838689
351645177795781,-0.12253596,-0.14844353,9.851802
351645197652421,-0.13232002,-0.15503961,9.832768
351645217509190,-0.12365264,-0.12709714,9.81472
351645237372194,-0.074066326,-0.07204781,9.806146
351645257229091,-0.07472426,-0.12059085,9.778409
351645277085988,-0.1140838,-0.09376642,9.772309
351645296942757,-0.07888098,-0.07719707,9.753437
351645316803466,-0.06530835,-0.084165536,9.736772
351645336660491,-0.13941933,-0.06528941,9.749751
351645356517516,-0.16178674,-0.10883265,9.783471
351645376374541,-0.15390438,-0.10289287,9.768133
351645396231566,-0.13018647,-0.07372222,9.776284
351645416088591,-0.11290293,-0.08543144,9.838969
351645435937400,-0.20055224,-0.11086497,9.870463
351645455794297,-0.20636187,-0.12559535,9.859158
351645475651194,-0.1933818,-0.09666899,9.8452425
351645495508091,-0.16268997,-0.06589441,9.798513
351645515364988,-0.14559677,-0.11659363,9.794395
351645535220031,-0.17414296,-0.15829863,9.792372
351645555076928,-0.16043225,-0.14314964,9.768635
351645574933825,-0.10856874,-0.13124126,9.741188
351645594790722,-0.14549536,-0.09692507,9.750457
351645614646455,-0.19010901,-0.06299468,9.708884
351645634503352,-0.16558248,-0.062647864,9.72424
351645654360249,-0.106468186,-0.104731984,9.768986
351645674217146,-0.10782267,-0.13059536,9.768372
351645694074043,-0.16808228,-0.08090596,9.770109
351645713931046,-0.2271565,-0.072048254,9.809608
351645733769591,-0.24634641,-0.1127568,9.851085
351645753625848,-0.21775068,-0.103796296,9.85762
351645773481977,-0.17166123,-0.07771789,9.865955
351645793338230,-0.13826782,-0.12267284,9.866539
351645813194359,-0.16659638,-0.11821052,9.806443
351645833054541,-0.1582357,-0.124279775,9.767704
351645852910797,-0.11234181,-0.14455776,9.728509
351645872767054,-0.10637831,-0.15048136,9.695177
351645892623309,-0.11440855,-0.109715104,9.715769
351645912482552,-0.11952434,-0.099712655,9.738927
351645932338809,-0.10411888,-0.1305532,9.720875
351645952195064,-0.10712818,-0.13633846,9.760352
351645972051448,-0.098024175,-0.10697442,9.775502
351645991907705,-0.1377653,-0.10691869,9.791689
351646011763962,-0.20457038,-0.07210106,9.819269
351646031620189,-0.16350228,-0.06820034,9.877214
351646051476574,-0.16201381,-0.1547161,9.844662
351646071332954,-0.18648249,-0.16737783,9.829719
351646091189338,-0.15215705,-0.1468503,9.847673
351646111045723,-0.12846962,-0.19347979,9.861458
351646130908401,-0.19301064,-0.122424886,9.847336
351646150764913,-0.1674372,-0.14934757,9.815143
351646170621426,-0.08895438,-0.18548894,9.840088
351646190477937,-0.11244871,-0.14423575,9.810498
351646210340028,-0.1432162,-0.15678047,9.746119
351646230196669,-0.18748628,-0.23390542,9.735052
351646250053308,-0.092848666,-0.20168114,9.744449
351646269909949,0.032565124,-0.17091246,9.707741
351646289766590,0.02455444,-0.13015679,9.693124
351646309623231,-0.015201877,-0.12833449,9.739618
351646329477816,-0.05041827,-0.19490501,9.738518
351646349334457,-0.15562585,-0.16719484,9.750609
351646369191098,-0.09484775,-0.12848501,9.75381
351646389047739,-0.03336841,-0.14850268,9.805189
351646408904508,-0.06222866,-0.14239459,9.822344
351646428760971,-0.10278373,-0.11086411,9.781002
351646448617612,-0.1083762,-0.12620093,9.793105
351646468474381,-0.087546594,-0.13062856,9.811337
351646488331022,-0.105820715,-0.089358725,9.843811
351646508187663,-0.105118826,-0.08626034,9.873652
351646528044304,-0.07509704,-0.15218055,9.840962
351646547900147,-0.10262893,-0.16433203,9.81
351646567756788,-0.051526897,-0.14855587,9.779673
351646587613429,-0.04074658,-0.102947064,9.808322
351646607470070,-0.119577184,-0.10680998,9.8125
351646627325863,-0.17446324,-0.1324269,9.77743
351646647182504,-0.15065223,-0.17221056,9.743709
351646667039145,-0.077303596,-0.2178087,9.748256
351646686895658,-0.016495755,-0.2447161,9.779222
351646706752299,-0.07535012,-0.1895578,9.790642
351646726613459,-0.15220556,-0.106533855,9.796137
351646746470100,-0.16241498,-0.096044846,9.816968
351646766326741,-0.12040078,-0.12612489,9.825444
351646786183379,-0.081033625,-0.14228567,9.805647
351646806040147,-0.10248696,-0.17342506,9.803933
351646825896788,-0.12722574,-0.15246463,9.842158
351646845751990,-0.13973187,-0.118265696,9.872289
351646865608758,-0.12906823,-0.10176043,9.81149
351646885465399,-0.09596661,-0.13944209,9.712903
351646905322166,-0.06798491,-0.13705914,9.78247
351646925178053,-0.060112864,-0.18848051,9.792975
351646945034822,-0.13293035,-0.16963613,9.742526
351646964885372,-0.19013588,-0.067349315,9.693232
351646984742141,-0.12446394,-0.12323159,9.758106
351647004598782,-0.12934937,-0.15456325,9.784959
351647024440737,-0.14919111,-0.12007962,9.782493
351647044297119,-0.14228274,-0.13302135,9.8273945
351647064153504,-0.15542808,-0.1338063,9.822164
351647084009887,-0.14011753,-0.109758146,9.772408
351647103866271,-0.092597805,-0.07958558,9.76676
351647123722656,-0.06528591,-0.11129106,9.795471
351647143571646,-0.078123696,-0.13662483,9.779197
351647163427902,-0.14422992,-0.08994966,9.7822075
351647183284159,-0.10427828,-0.0879147,9.795547
351647203140286,-0.08813806,-0.109113194,9.776742
351647222993428,-0.13371336,-0.091987096,9.817033
351647242849557,-0.16356768,-0.10034073,9.832453
351647262705684,-0.18475628,-0.06142201,9.815371
351647282561684,-0.16888873,-0.04547411,9.785229
351647302417813,-0.09387199,-0.08915498,9.803827
351647322273940,-0.11143732,-0.12727426,9.798031
351647342126544,-0.115244724,-0.15778312,9.761114
351647361982545,-0.15206972,-0.12545909,9.755036
351647381838672,-0.17957032,-0.100179605,9.793101
351647401694673,-0.16062865,-0.093228556,9.812116
351647421550674,-0.12579052,-0.093970485,9.797291
351647441407385,-0.10436481,-0.09555239,9.794324
351647461263385,-0.0779062,-0.10998013,9.784573
351647481119386,-0.15829499,-0.110686906,9.792262
351647500975385,-0.20563874,-0.117802024,9.784671
351647520832568,-0.16775,-0.12626812,9.777382
351647540688569,-0.118159205,-0.12540697,9.77055
351647560544568,-0.088344514,-0.13817431,9.782923
351647580400696,-0.155613,-0.11398571,9.797377
351647600256697,-0.16108908,-0.1106691,9.806292
351647620112696,-0.14458495,-0.12332767,9.801158
351647639970366,-0.10235813,-0.12938026,9.791557
351647659826367,-0.07256614,-0.11334708,9.779241
351647679682238,-0.069468416,-0.11955955,9.778982
351647699538238,-0.058295876,-0.14568399,9.781112
351647719394239,-0.054391414,-0.13165425,9.780718
351647739258442,-0.09293041,-0.12500036,9.77013
351647759114571,-0.097796455,-0.1181586,9.764931
351647778970828,-0.14696181,-0.091617875,9.799538
351647798826957,-0.13050921,-0.123172216,9.802194
351647818682922,-0.080879755,-0.15119542,9.777338
351647838539179,-0.0947463,-0.12759554,9.791585
351647858395430,-0.07360591,-0.13232072,9.8075075
351647878251558,-0.06582166,-0.13709019,9.793981
351647898107815,-0.09022956,-0.120597094,9.771169
351647917963942,-0.05536651,-0.15258002,9.819205
351647937825032,-0.051419802,-0.14954364,9.813294
351647957681289,-0.097367294,-0.123760685,9.799318
351647977537544,-0.1164752,-0.112945,9.833761
351647997393800,-0.06616579,-0.122354284,9.841037
351648017250057,-0.06910598,-0.0961984,9.786358
351648037104563,-0.04310868,-0.07310099,9.774338
351648056960819,-0.063572794,-0.13552725,9.777649
351648076817076,-0.11596442,-0.142784,9.768917
351648096673203,-0.13787204,-0.10871096,9.75869
351648116536689,-0.13061284,-0.08072131,9.780269
351648136393074,-0.13708194,-0.066041745,9.81381
351648156249457,-0.17019662,-0.040325925,9.798884
351648176105841,-0.14025415,-0.091692396,9.780521
351648195962226,-0.1039102,-0.12732257,9.797858
351648215818609,-0.118942864,-0.022102872,9.806738
351648235680718,-0.08738225,0.016976,9.814722
351648255537231,-0.105483934,-0.036474522,9.8052
351648275393744,-0.14992522,-0.0665445,9.786795
351648295250257,-0.13800867,-0.092457846,9.797553
351648315106770,-0.116381854,-0.093450025,9.809597
351648334967433,-0.15772049,-0.028832192,9.7838955
351648354824201,-0.17166795,-9.004598E-4,9.794828
351648374680970,-0.17297977,-0.026070768,9.805061
351648394537609,-0.16147307,-0.016319765,9.808836
351648414394377,-0.14691404,-0.048547428,9.781531
351648434251018,-0.14925785,-0.032011174,9.73853
351648454105579,-0.14191073,-0.04263615,9.738245
351648473962347,-0.1175772,-0.07593115,9.742602
351648493818988,-0.11581209,-0.04121932,9.775389
351648513675755,-0.13568515,-0.036645193,9.807631
351648533532933,-0.16433464,-0.026546337,9.789084
351648553389702,-0.19048782,-0.008229836,9.851136
351648573246469,-0.15151882,-0.045033965,9.874301
351648593103238,-0.13260509,-0.06037255,9.822844
351648612960135,-0.15562391,0.058198106,9.810474
351648632811184,-0.18786398,-0.021789964,9.803963
351648652667825,-0.19403519,-0.09746449,9.763387
351648672524338,-0.12782553,-0.09391431,9.754895
351648692380979,-0.07475293,-0.102030724,9.803241
351648712237620,-0.15826832,-0.020702133,9.814962
351648732094261,-0.22085819,0.054348975,9.814286
351648751954460,-0.17838734,0.028609164,9.799068
351648771811100,-0.14642818,-0.05505735,9.789605
351648791667869,-0.14148523,-0.044504676,9.779635
351648811524508,-0.15594165,0.009152182,9.802701
351648831382424,-0.16642398,0.024994671,9.806339
351648851239065,-0.17570257,0.019641101,9.795364
351648871095704,-0.17402595,-0.018823605,9.807084
351648890952472,-0.15630327,-0.022151435,9.803184
351648910809113,-0.14422515,-0.029696735,9.794021
351648930658004,-0.1327653,-0.00477121,9.798151
351648950514516,-0.13735107,0.015950307,9.834216
351648970371029,-0.13804974,-0.014207418,9.810464
351648990225576,-0.12602244,-0.037091386,9.751721
351649010082089,-0.12586485,-0.003583703,9.777766
351649029938474,-0.11866356,-0.036063697,9.770177
351649049786673,-0.14492492,-0.016506229,9.748477
351649069643058,-0.13983828,0.07013139,9.782343
351649089499315,-0.13876878,-0.038712155,9.771502
351649109355694,-0.1487619,-0.017306108,9.723321
351649129198601,-0.104330875,0.010004152,9.777339
351649149054602,-0.12024811,-0.019464742,9.820875
351649168910601,-0.17599975,0.024921738,9.765906
351649188766729,-0.14378946,0.023033591,9.765088
351649208622730,-0.111461766,-0.05993275,9.8362875
351649228470598,-0.119402476,-0.049416795,9.837856
351649248326470,-0.19558463,0.012788105,9.842405
351649268182343,-0.2107945,0.047613077,9.832459
351649288038214,-0.1747131,-0.045128442,9.804157
351649307894086,-0.13065073,-0.08174506,9.808939
351649327749831,-0.121126026,-0.077117234,9.788836
351649347608482,-0.10893793,-0.14357682,9.752649
351649367464355,-0.13494205,-0.1170345,9.759548
351649387320228,-0.102339685,-0.08897132,9.7977495
351649407176229,-0.06722142,-0.09655688,9.816296
351649427033466,-0.0324343,-0.09362843,9.796468
351649446889211,-0.0692047,-0.09774698,9.810904
351649466745084,-0.11710053,-0.10363374,9.842591
351649486600957,-0.13591349,-0.083361216,9.825885
351649506456830,-0.16179794,-0.06644994,9.829547
351649526312703,-0.13178936,-0.12199038,9.806297
351649546173000,-0.085393675,-0.14309618,9.808784
351649566029001,-0.08254706,-0.10716456,9.797677
351649585885002,-0.06588483,-0.11305967,9.73433
351649605740875,-0.14012629,-0.06889047,9.71359
351649625596876,-0.10508122,-0.06247124,9.757797
351649645453059,-0.006003296,-0.1373472,9.785755
351649665309060,-0.06569208,-0.098253444,9.789509
351649685164933,-0.07679521,-0.0926795,9.7902355
351649705020806,-0.12404374,-0.11931487,9.825199
351649724880817,-0.19638695,-0.080292806,9.87299
351649744736818,-0.09767158,-0.105655365,9.799715
351649764592802,-0.046515852,-0.091045044,9.735113
351649784448802,-0.06943633,-0.07754299,9.758295
351649804304803,-0.07754498,-0.16024546,9.791321
351649824160802,-0.14385045,-0.15441158,9.787899
351649844016261,-0.109659694,-0.11072186,9.780955
351649863872262,-0.03736866,-0.11902572,9.816309
351649883728261,-0.11250729,-0.09763958,9.810988
351649903584261,-0.18965909,-0.058050014,9.794207
351649923440262,-0.14974007,-0.092044406,9.775238
351649943298443,-0.12787771,-0.111056164,9.782896
351649963154571,-0.09561501,-0.0865107,9.798739
351649983010572,-0.057251718,-0.0841038,9.782248
351650002866571,-0.055983637,-0.10071484,9.780418
351650022725862,-0.07105925,-0.13417506,9.821541
351650042581863,-0.09045733,-0.13720965,9.805158
351650062437990,-0.14140803,-0.05295879,9.824968
351650082294118,-0.14651415,-0.051970515,9.833943
351650102150247,-0.15192695,-0.084385045,9.80377
351650122006246,-0.12524311,-0.10390803,9.766642
351650141863746,-0.06238041,-0.13642326,9.770221
351650161719875,-0.07960097,-0.118213,9.748207
351650181576002,-0.10617052,-0.057786174,9.728732
351650201432130,-0.09469061,-0.062098198,9.772719
351650221288259,-0.09972149,-0.09415904,9.789552
351650241150890,-0.08293358,-0.11032061,9.799477
351650261007146,-0.094607204,-0.093965955,9.803966
351650280863403,-0.15953662,-0.060863405,9.8038225
351650300719658,-0.18634774,-0.038962305,9.816402
351650320575511,-0.14480995,-0.07803795,9.83076
351650340431768,-0.07986972,-0.11419863,9.761892
351650360288151,-0.017474946,-0.101634145,9.745501
351650380144535,-0.05510357,-0.07195189,9.792455
351650400000792,-0.14125131,-0.051074672,9.806869
351650419857177,-0.20093459,-0.03274467,9.777787
351650439717846,-0.13378808,-0.080578186,9.809839
351650459574359,-0.07165152,-0.13335502,9.838209
351650479430872,-0.13060938,-0.067568116,9.803626
351650499287385,-0.20068747,0.002497774,9.781543
351650519143898,-0.19683254,0.005367269,9.784908
351650539000831,-0.102880836,-0.10596339,9.790961
351650558857472,-0.07236372,-0.12799607,9.769672
351650578713985,-0.043298062,-0.10413998,9.779104
351650598570498,-0.07370286,-0.096439935,9.785211
351650618427011,-0.15783525,-0.046858057,9.80352
351650638283652,-0.12621427,-0.030606832,9.83526
351650658139457,-0.09372454,-0.07589486,9.850297
351650677995970,-0.11406632,-0.07674949,9.821484
351650697852483,-0.1371968,-0.093966395,9.801295
351650717708996,-0.10848212,-0.10878847,9.811723
351650737567423,-0.10327763,-0.10824846,9.771202
351650757423936,-0.10446335,-0.08606038,9.757049
351650777280432,-0.09658634,-0.07841446,9.768781
351650797136944,-0.11708913,-0.08503437,9.757191
351650816993457,-0.14641787,-0.05421732,9.7692795
351650836847769,-0.12465057,-0.041875515,9.789284
351650856704153,-0.08957808,-0.08756809,9.785595
351650876560538,-0.10795283,-0.07526677,9.7575865
351650896416921,-0.1390865,-0.059680577,9.793958
351650916273433,-0.13032599,-0.051466234,9.832858
351650936129818,-0.12331768,-0.050899215,9.800074
351650955980667,-0.12273787,-0.034698296,9.805937
351650975836924,-0.11298252,-0.07099189,9.802749
351650995693181,-0.14943638,-0.12225189,9.821341
351651015549566,-0.1686344,-0.088961296,9.829822
351651035404775,-0.14996015,-0.059006806,9.819442
351651055261032,-0.10610482,-0.09578851,9.796615
351651075117289,-0.089211196,-0.076384276,9.785743
351651094971636,-0.09255572,-0.06179942,9.803272
351651114827893,-0.11440111,-0.04252666,9.788498
351651134684881,-0.14217944,0.022383772,9.764639
351651154541265,-0.0902524,-0.006832411,9.778611
351651174397522,-0.049227394,-0.053319287,9.787839
351651194253905,-0.056619592,-0.07964825,9.779968
351651214110289,-0.13593371,-0.057428822,9.812028
351651233966546,-0.21173644,-0.029514108,9.805075
351651253818797,-0.23534855,-0.0039573926,9.780841
351651273675053,-0.2293419,-0.03173647,9.755959
351651293531310,-0.19234394,-0.11677997,9.780089
351651313387565,-0.1525744,-0.10542088,9.798877
351651333239473,-0.17263539,-0.10097145,9.793678
351651353095730,-0.18377617,-0.08515863,9.782001
351651372951859,-0.16937578,-0.032675575,9.799543
351651392807988,-0.1497736,-0.044278808,9.808357
351651412664245,-0.17918505,-0.04817577,9.7918415
351651432507062,-0.21683346,-0.06578831,9.750858
351651452362935,-0.23219661,-0.119144075,9.777263
351651472218808,-0.26969773,-0.11834192,9.827883
351651492074681,-0.26651138,-0.110244066,9.765072
351651511930554,-0.17868535,-0.0865699,9.738882
351651531786427,-0.11577323,-0.044493303,9.818364
351651551641604,-0.0439261,-0.055294625,9.804452
351651571497477,-0.06411334,0.019302046,9.778342
351651591353350,-0.09122773,0.08282819,9.811641
351651611209095,-0.07210134,-0.014763501,9.8488865
351651631065546,-0.104756035,-0.044352602,9.833096
351651650921419,-0.06630018,-0.008814911,9.80867
351651670777292,-0.00167391,-0.08549673,9.856855
351651690633037,-0.02261499,-0.10909476,9.868459
351651710488910,-0.1264561,-0.071602695,9.783003
351651730344783,-0.18106155,-0.035648104,9.752631
351651750202252,-0.17022987,-0.06256789,9.749072
351651770057997,-0.10607332,-0.1135117,9.773612
351651789913868,-0.08392994,-0.10809007,9.742547
351651809769740,-0.09635878,-0.11847646,9.704613
351651829625485,-0.105380654,-0.13171518,9.731416
351651849490115,-0.11124866,-0.12631428,9.743485
351651869346243,-0.12083396,-0.07407536,9.775027
351651889202244,-0.15237454,-0.0038612687,9.7991085
351651909058243,-0.16275042,-0.04355315,9.8210335
351651928913433,-0.14672877,-0.1126205,9.84628
351651948769434,-0.08696006,-0.0782368,9.851705
351651968625305,-0.04311152,-0.023999184,9.861647
351651988481305,-0.081742235,-0.039102107,9.835479
351652008337306,-0.16696385,-0.076495,9.816757
351652028193177,-0.173586,-0.072407305,9.767528
351652048048630,-0.084434584,-0.09361733,9.759565
351652067904631,-0.06542662,-0.10696352,9.795005
351652087760502,-0.0694323,-0.110957295,9.825334
351652107616374,-0.091430716,-0.13248368,9.78779
351652127472375,-0.09578932,-0.09666308,9.820976
351652147335076,-0.04265792,-0.077648744,9.83014
351652167191076,-0.05432959,-0.09273085,9.819623
351652187047077,-0.12416878,-0.03603107,9.841735
351652206903204,-0.094255306,-0.06614441,9.832649
351652226765551,-0.059773445,-0.113213085,9.872681
351652246621808,-0.09697389,-0.09083924,9.828684
351652266477935,-0.08925333,-0.1087928,9.744111
351652286334063,-0.085600734,-0.083014764,9.751571
351652306190192,-0.066571,-0.033262167,9.768564
351652326046447,-0.049468745,-0.09742668,9.766645
351652345910710,-0.103976324,-0.07938029,9.782493
351652365767095,-0.11571317,-0.05026473,9.813461
351652385623478,-0.10856728,-0.10028072,9.836736
351652405479990,-0.11693169,-0.071977966,9.856557
351652425336375,-0.07479249,-0.048455622,9.823114
351652445197348,-0.049572606,-0.086336486,9.778183
351652465053860,-0.09038221,-0.027164556,9.772043
351652484910501,-0.09369062,-0.0068298723,9.772209
351652504767012,-0.06900909,-0.03401354,9.798464
351652524618692,-0.070599526,-0.048617013,9.797449
351652544475205,-0.050328314,-0.06988115,9.818401
351652564331716,-0.033397272,-0.076373726,9.801154
351652584188228,-0.0034186116,-0.058090366,9.751778
351652604044741,0.003158426,-0.014148826,9.777331
351652623901124,0.019579453,-0.026819462,9.80653
351652643754546,0.0053101913,-0.07833476,9.805212
351652663611059,-0.04552023,-0.023505595,9.828244
351652683467442,-0.04245311,-0.03735986,9.837549
351652703323954,-0.078512765,-0.08326544,9.861659
351652723180339,-0.1675837,-0.07466888,9.866456
351652743043043,-0.16922426,-0.051111184,9.8874235
351652762899683,-0.15015475,-0.019091094,9.817342
351652782756324,-0.1381002,-0.012906657,9.758922
351652802612835,-0.1040515,-0.02712822,9.775368
351652822469475,-0.09386622,-0.11184504,9.735763
351652842326116,-0.12554884,-0.14073172,9.704947
351652862179738,-0.14634216,-0.09760621,9.723694
351652882036378,-0.14141859,-0.09536054,9.764069
351652901892891,-0.18267252,-0.0795661,9.79259
351652921749530,-0.20970781,-0.034028463,9.792266
351652941601721,-0.222717,-0.012986886,9.795888
351652961458234,-0.21556441,-0.042816788,9.800652
351652981314745,-0.19404909,-0.07049053,9.789419
351653001171257,-0.14705053,-0.06779378,9.807533
351653021027770,-0.07689399,-0.06647434,9.803647
351653040868423,-0.0880449,-0.0649185,9.810942
351653060724551,-0.12404176,-0.06970779,9.810048
351653080580680,-0.14047253,-0.044810247,9.771143
351653100436807,-0.088552,-0.025721328,9.76481
351653120292935,-0.022457706,-0.04788221,9.792785
351653140149064,-0.021822242,-0.08564585,9.819915
351653160000867,-0.08371347,-0.051558115,9.813963
351653179856867,-0.09094613,-0.04213246,9.776378
351653199712868,-0.073906235,-0.08159217,9.755508
351653219568867,-0.07871129,-0.07130818,9.768159
351653239423363,-0.060671546,-0.12786183,9.779026
351653259279236,-0.088410944,-0.12194631,9.797695
351653279135107,-0.11562482,-0.07581162,9.806718
351653298991107,-0.08460707,-0.09175721,9.82598
351653318846980,-0.05288087,-0.11081771,9.83726
351653338701149,-0.02643384,-0.09805872,9.856563
351653358557021,-0.0061708847,-0.10294797,9.893107
351653378412894,-0.03286333,-0.070378065,9.851497
351653398268765,-0.07413919,-0.057260998,9.830813
351653418124509,-0.09514944,-0.029813783,9.871174
351653437980382,-0.042227887,-0.04634107,9.828793
351653457839404,-0.023273623,-0.044521514,9.774455
351653477695276,-0.011436243,-0.04449058,9.749995
351653497551277,-0.030488273,-0.07567515,9.769627
351653517407148,-0.0893309,-0.0735069,9.76879
351653537258351,-0.1289026,-0.014956529,9.776767
351653557114224,-0.09739491,-0.021984335,9.803793
351653576969967,-0.13344328,-0.018846672,9.79779
351653596825711,-0.1419745,-0.026266776,9.809788
351653616681584,-0.117079146,-0.04908058,9.838046
351653636534450,-0.09681007,-0.07629972,9.832639
351653656390066,-0.11383381,-0.025283378,9.832244
351653676245811,-0.095508836,0.009919246,9.885065
351653696101554,-0.09842364,0.051461916,9.857793
351653715957170,-0.09013691,-0.005014631,9.833228
351653735812915,-0.061066892,0.021006493,9.814733
351653755675997,-0.023592308,0.009241993,9.792352
351653775531741,-0.06769794,0.051574495,9.747886
351653795387614,-0.10045404,0.04331834,9.730941
351653815243485,-0.081377886,-0.06366201,9.718713
351653835100862,-0.07466425,-0.114214465,9.706931
351653854956735,-0.11944164,-0.053990938,9.730902
351653874812606,-0.13250409,-0.045589805,9.767685
351653894668478,-0.14146781,-0.010203837,9.827402
351653914524351,-0.17338149,0.029370178,9.825849
351653934380350,-0.17607732,0.036788512,9.866044
351653954244085,-0.18930042,0.073663056,9.88077
351653974100214,-0.15954034,0.0058775204,9.826441
351653993956213,-0.13053599,-0.048276193,9.826663
351654013812341,-0.09913198,-0.03388459,9.812668
351654033668342,-0.098350205,-0.036012713,9.800667
351654053526913,-0.14505275,0.037165027,9.777727
351654073383041,-0.14751294,0.050791357,9.785574
351654093239170,-0.113453925,0.005130677,9.766072
351654113095297,-0.08983639,-0.08617226,9.706819
351654132952534,-0.058028165,-0.11033841,9.702202
351654152808663,-0.0912702,-0.062207915,9.716672
351654172664918,-0.16902417,-0.028052012,9.753295
351654192521046,-0.18758875,0.046525303,9.779002
351654212377175,-0.1567665,0.033085518,9.796255
351654232233302,-0.1246974,-0.012959088,9.828342
351654252086541,-0.09207997,0.016018514,9.858148
351654271942542,-0.12723482,0.0659264,9.859501
351654291798669,-0.17545879,0.09534925,9.862071
351654311654797,-0.17000425,0.050156474,9.827285
351654331510798,-0.102270484,-0.028538698,9.780932
351654351371808,-0.037100386,-0.050151035,9.780978
351654371227936,-0.0022871762,-0.09321662,9.761169
351654391084193,-0.044386495,-0.06965034,9.731047
351654410940448,-0.08419364,0.05296562,9.734106
351654430797497,-0.07804046,0.047210522,9.741053
351654450653754,-0.09559466,-0.004140575,9.772239
351654470510137,-0.122641616,-0.0067021777,9.771869
351654490366393,-0.12403414,-0.0061476324,9.800962
351654510222650,-0.12292055,0.013212832,9.827248
351654530079033,-0.1300363,0.005535429,9.816111
351654549932851,-0.1144279,0.009235289,9.853855
351654569789108,-0.10842191,0.011417224,9.88208
351654589645363,-0.12586133,-0.015997836,9.832879
351654609501747,-0.14634253,0.010464272,9.824971
351654629358004,-0.11651157,-0.005528529,9.822269
351654649214673,-0.09109808,-0.063293874,9.787716
351654669070801,-0.0831055,-0.062259182,9.811267
351654688927058,-0.10053624,-0.042305905,9.809373
351654708783313,-0.13481773,-0.038176633,9.786192
351654728640281,-0.119874194,-0.010703094,9.794174
351654748496538,-0.08320952,-0.03397952,9.785478
351654768352793,-0.09309343,-0.007198172,9.800334
351654788209049,-0.09584113,-0.013675061,9.790027
351654808065306,-0.09828492,-0.037091076,9.809391
351654827921561,-0.11038376,-0.02224007,9.828887
351654847773698,-0.10112643,-0.039883465,9.797045
351654867629827,-0.09923244,-0.0054739555,9.809248
351654887486082,-0.11424508,0.002546862,9.823116
351654907342210,-0.13169242,-0.020738054,9.819689
351654927198467,-0.14635113,7.287422E-4,9.838271
351654947048473,-0.11664533,-0.057182588,9.8384075
351654966904473,-0.09129216,-0.075235374,9.746124
351654986760602,-0.09587408,0.032567415,9.724392
351655006616601,-0.08766863,0.0087679885,9.763061
351655026472729,-0.096587025,-0.054939028,9.763853
351655046328730,-0.14360613,-0.021290112,9.787464
351655066174678,-0.07888973,-0.05647284,9.823997
351655086030550,-0.078032784,-0.06177845,9.8218565
351655105886423,-0.14470422,0.021913974,9.852803
351655125742294,-0.14653917,0.043849118,9.837848
351655145590390,-0.09177065,-0.039882604,9.767792
351655165446007,-0.07785637,-0.0036951662,9.745978
351655185299034,-0.056940313,-0.047484994,9.736143
351655205154650,-0.08952505,-0.082749315,9.73596
351655225010267,-0.07839265,0.0040496355,9.752718
351655244857207,0.008773921,0.011125356,9.828246
351655264712695,0.007117128,-0.017833496,9.860234
351655284568184,-0.07476422,0.015510565,9.809635
351655304423543,-0.11964365,0.051384922,9.789589
351655324279031,-0.080049135,0.019716479,9.850317
351655344134392,-0.08151568,-0.08225111,9.796977
351655363990787,-0.11883191,-0.06973248,9.773274
351655383846147,-0.11710374,-0.01421859,9.821857
351655403701636,-0.07581042,-0.09034482,9.800244
351655423557123,-0.085493796,-0.019964991,9.796795
351655443412471,-0.086845145,-0.0015783594,9.830512
351655463267832,-0.13515058,-0.057662148,9.859928
351655483123191,-0.20434114,0.014239773,9.81193
351655502978679,-0.17432667,0.03593832,9.803274
351655522834040,-0.13225771,-0.015849823,9.811876
351655542691244,-0.12934704,-0.034697548,9.788658
351655562546732,-0.124823846,0.0059665157,9.748676
351655582402093,-0.07867339,-0.0051627145,9.749436
351655602257580,-0.0704387,-0.008346842,9.763018
351655622112940,-0.1174497,0.03377468,9.787786
351655641968429,-0.097878076,0.029771995,9.777505
351655661828213,-0.04997179,-0.018218761,9.774202
351655681683701,-0.06406953,-0.010298082,9.820042
351655701539190,-0.08697199,-0.015596839,9.854306
351655721394677,-0.11725749,0.0071655945,9.837409
351655741254645,-0.11141222,0.055583943,9.778829
351655761110262,-0.09628275,0.02643632,9.809778
351655780965877,-0.063303344,-0.038838245,9.829854
351655800821493,-0.044652544,-0.03387797,9.791799
351655820676982,-0.009286191,-0.01188634,9.787234
351655840531762,-0.033427633,0.0020402311,9.800783
351655860387378,-0.089008644,0.01242032,9.78835
351655880242867,-0.11790256,-0.00398186,9.784524
351655900098482,-0.08475479,-0.029469172,9.801611
351655919953970,-0.05273302,-0.051324457,9.784403
351655939809459,-0.068471566,-0.037067957,9.7807045
351655959673705,-0.08218472,0.0021951345,9.808219
351655979529449,-0.10081253,-0.034302596,9.819373
351655999385194,-0.100837514,-0.021237828,9.801897
351656019240809,-0.08888057,-0.016737966,9.807239
351656039101533,-0.09796609,-0.07047355,9.868383
351656058957406,-0.11755295,0.0050099543,9.851146
351656078813149,-0.09112625,0.07161718,9.814094
351656098669021,-0.04742492,0.015428767,9.801242
351656118524766,-0.049287766,-0.035846673,9.794041
351656138380637,-0.07924794,-0.01736038,9.822977
351656158229536,-0.09740919,-0.0108582955,9.776253
351656178085153,-0.08103589,0.02521137,9.752853
351656197940896,-0.077960245,0.00977808,9.771657
351656217796512,-0.10307639,-0.02111206,9.795573
351656237652257,-0.105396144,0.033083837,9.766044
351656257514211,-0.084973335,0.044843692,9.783411
351656277370083,-0.1344333,0.02165248,9.819523
351656297225956,-0.14829239,0.040644772,9.797751
351656317081827,-0.07731105,0.021052403,9.815777
351656336948079,-0.066968806,0.010336767,9.84022
351656356804336,-0.095415875,0.047848273,9.835666
351656376660463,-0.09055286,0.10143041,9.8475
351656396516591,-0.04732575,0.038722683,9.854447
351656416372848,-0.06301646,-0.012088202,9.816731
351656436228977,-0.065075345,0.030445186,9.761809
351656456096052,-0.059775226,0.040912792,9.756453
351656475952437,-0.07166282,0.030685393,9.772896
351656495808822,-0.054216266,0.018528035,9.706429
351656515665202,-0.04728299,0.0038662483,9.741394
351656535521715,-0.09941219,0.02740674,9.780795
351656555377270,-0.16381332,0.054045945,9.78984
351656575233654,-0.14598866,0.10939539,9.820065
351656595090167,-0.10218512,0.052082956,9.842386
351656614946550,-0.07592693,0.054227084,9.82676
351656634798187,-0.08996363,0.124063075,9.835154
351656654654572,-0.107444145,0.057543308,9.862283
351656674510827,-0.1034039,0.030289194,9.794468
351656694367211,-0.07119678,-0.025810717,9.735654
351656714223596,-0.03516616,-0.023679977,9.822763
351656734079851,-0.06813148,-0.016565392,9.8077545
351656753936442,-0.06582088,0.050704103,9.753807
351656773792699,-0.034653753,0.14159983,9.781041
351656793649082,-0.09443374,-0.0102495905,9.797214
351656813505466,-0.14843439,0.003601764,9.776117
351656833361723,-0.09060991,0.09104747,9.796012
351656853215125,-0.09813993,0.02051762,9.790623
351656873071381,-0.13123786,0.063478634,9.799365
351656892927638,-0.11822766,0.12674016,9.819375
351656912783895,-0.12396835,0.012911389,9.820921
351656932640152,-0.09740587,0.003388295,9.826878
351656952496409,-0.07436234,0.028585183,9.830849
351656972348180,-0.06932143,0.011488232,9.826297
351656992204309,-0.021087205,0.059637975,9.788334
351657012060566,-0.0030434814,-0.0036017078,9.788771
351657031916695,-0.018509762,-0.017895484,9.829109
351657051750994,-0.051773604,0.017246924,9.777474
351657071606739,-0.077874675,0.06524138,9.767409
351657091462482,-0.0870907,0.10393981,9.768996
351657111318226,-0.109904975,0.05386278,9.755649
351657131173971,-0.1113631,-0.002246774,9.766299
351657151023326,-0.08346196,0.0057318136,9.778129
351657170878942,-0.07559242,-0.012067151,9.771542
351657190734559,-0.10016206,0.05917244,9.771554
351657210587157,-0.09687876,0.08758916,9.808683
351657230442773,-0.12422949,0.015949273,9.858023
351657250298390,-0.11326561,0.021740807,9.837391
351657270146380,-0.102900505,0.04527951,9.812549
351657290001740,-0.112604015,0.020130035,9.823321
351657309857229,-0.11755983,-3.1355236E-4,9.807461
351657329712588,-0.10109653,0.043854177,9.762365
351657349574299,-0.0963933,0.0394875,9.773552
351657369429916,-0.10914578,0.02991811,9.794663
351657389285405,-0.10141363,0.038027,9.758173
351657409140894,-0.08226128,0.042994518,9.773082
351657428996383,-0.07402658,0.007979893,9.747238
351657448854242,-0.06541576,0.0133074755,9.765182
351657468709731,-0.07098918,0.07901367,9.819318
351657488565220,-0.10355922,0.08318556,9.847456
351657508420709,-0.10279105,0.0820753,9.825678
351657528276198,-0.072718605,0.05948307,9.853439
351657548131687,-0.07173751,-0.003527965,9.864325
351657567988316,-0.058489703,0.060016107,9.821517
351657587843805,-0.04510987,0.08836594,9.849517
351657607699422,-0.07461532,0.04509418,9.859901
351657627554911,-0.07078126,0.046669208,9.7917385
351657647412860,-0.027005745,-0.026700845,9.767259
351657667268477,-0.008640394,-0.054642,9.781446
351657687123966,-0.06363484,-0.0033485899,9.7676735
351657706979583,-0.060909506,0.09457448,9.750398
351657726835200,-0.03381602,0.06316306,9.818013
351657746690689,-0.07858569,0.018297719,9.870083
351657766535767,-0.0828183,0.055172816,9.852281
351657786391000,-0.059707783,0.077630766,9.877736
351657806246231,-0.060606144,0.027581116,9.849993
351657826101591,-0.082995094,0.057904474,9.776066
351657845956824,-0.038244005,0.059951592,9.717149
351657865813372,-0.062339313,-0.015285931,9.693853
351657885668604,-0.082357444,0.011063293,9.728401
351657905523837,-0.055768948,0.051016748,9.815399
351657925379068,-0.08942965,0.0030105428,9.809152
351657945243358,-0.07772428,0.063739024,9.780888
351657965098847,-0.06320776,0.11882779,9.839318
351657984954206,-0.10732961,0.07330744,9.842468
351658004809695,-0.113458134,0.073492005,9.777739
351658024665056,-0.07441363,0.03859518,9.793969
351658044520545,-0.065916866,-0.0073412713,9.833798
351658064382134,-0.06437098,0.018382141,9.766642
351658084237751,-0.026110174,0.059421558,9.752237
351658104093368,-0.061962694,0.01086812,9.777914
351658123948979,-0.0858874,0.025950165,9.801418
351658143804596,-0.06876535,0.097729765,9.842947
351658163664234,-0.0878563,0.10072336,9.849615
351658183519978,-0.09952152,0.033854954,9.800891
351658203375723,-0.049345683,0.07774062,9.798121
351658223231466,-0.03765091,0.03778835,9.830059
351658243088551,-0.061584372,0.008788026,9.824914
351658262944296,-0.061063018,0.08754247,9.777392
351658282800167,-0.05992041,0.09335333,9.791279
351658302655911,-0.061060756,0.013303947,9.779771
351658322511656,-0.034424033,0.036118656,9.7616005
351658342367527,-0.029358046,0.04627204,9.797486
351658362234078,-0.037849553,0.039562657,9.799597
351658382090079,-0.06524411,0.057648372,9.790276
351658401946080,-0.04444428,0.06587631,9.828803
351658421802209,-0.07965964,0.025435159,9.851986
351658441658210,-0.036186032,0.05249873,9.832114
351658461527527,-0.020423712,0.06518013,9.812857
351658481383912,-0.04173701,0.065758415,9.826771
351658501240297,-0.06766504,0.04673042,9.798976
351658521096682,-0.071114905,0.024956835,9.787177
351658540960563,-0.061289962,0.0062319245,9.801354
351658560817204,-0.07593267,0.019659666,9.772595
351658580673845,-0.04243839,0.08889855,9.776501
351658600530486,-0.06140338,0.07471441,9.80287
351658620387127,-0.080894195,0.03934053,9.776134
351658640243768,-0.06302764,0.03047152,9.758108
351658660097989,-0.061589923,0.0022573941,9.806832
351658679954502,-0.07630224,0.0034873835,9.806919
351658699811015,-0.069892086,0.096314736,9.77619
351658719667400,-0.030943934,0.11007542,9.838576
351658739523913,-0.04221435,0.029775092,9.85928
351658759358586,-0.026841652,0.008243224,9.796323
351658779214696,-0.0066700527,0.010896745,9.778967
351658799070697,-0.06529434,0.0077434992,9.8026905
351658818926824,-0.08978605,0.089571804,9.798432
351658838782824,-0.057915594,0.15448572,9.76793
351658858638953,-0.059032213,0.067163944,9.769581
351658878492796,-0.09360238,-0.00312983,9.783574
351658898348668,-0.09283324,0.028384648,9.776082
351658918204669,-0.059770696,0.061403625,9.814129
351658938060668,-0.052374214,0.10927989,9.831341
351658957913365,-0.08063538,0.11260967,9.812565
351658977769366,-0.03720398,0.12355808,9.813784
351658997625239,-0.059398744,0.011561923,9.808201
351659017481240,-0.087000445,0.010651998,9.797479
351659037337241,-0.06328361,0.076963685,9.806231
351659057185660,-0.06525783,0.118330255,9.806196
351659077041527,-0.08259996,0.09833832,9.770681
351659096897400,-0.053859953,0.07450278,9.807859
351659116753143,-0.07748574,0.044791963,9.824696
351659136609015,-0.08976008,0.061421674,9.793212
351659156464888,-0.02243617,0.10145125,9.799764
351659176321943,-0.047310863,0.065300696,9.84465
351659196176530,-0.072708316,0.04965129,9.831941
351659216032403,-0.043404568,0.056651216,9.792824
351659235888274,-0.03754548,0.008051854,9.797013
351659255739404,-0.04363584,0.007868669,9.808506
351659275595149,-0.034611806,0.04717757,9.754027
351659295451020,-0.04025256,0.059990525,9.746335
351659315306764,-0.04751833,0.065502346,9.729856
351659335162509,-0.09364844,0.014658678,9.761571
351659355019448,-0.08549632,0.04027933,9.85641
351659374875192,-0.07236874,0.02957984,9.83073
351659394730937,-0.046972763,0.08715601,9.824558
351659414586552,-0.021295115,0.16092585,9.865594
351659434442296,-0.10049834,0.04371375,9.8132
351659454298041,-0.0646657,0.05751052,9.774215
351659474159850,0.0073869964,0.008952924,9.777497
351659494015594,-0.07757241,-0.035164356,9.7972975
351659513871339,-0.07600913,0.100750215,9.752997
351659533727082,-0.05477346,0.07918088,9.742948
351659553586508,-0.0237227,0.02980736,9.799704
351659573442381,-0.021993592,0.039947074,9.815509
351659593298252,-0.036632832,0.09619749,9.8130665
351659613153997,-0.023571465,0.11235501,9.8296175
351659633009870,-0.055531025,-0.007789703,9.784972
351659652865743,-0.049586855,0.042395074,9.790208
351659672716056,-0.01604809,0.047644574,9.789461
351659692571801,-0.06524604,-0.018959973,9.7387295
351659712427546,-0.010930067,0.09041811,9.751631
351659732283285,-0.011078811,0.051682245,9.782256
351659752138902,-0.056115538,0.0066691083,9.758048
351659771996376,-0.0126819685,0.08347346,9.6914625
351659791851992,-0.032752182,0.039151274,9.678093
351659811707737,-0.081410415,0.022498423,9.693029
351659831563480,-0.055276252,0.024694866,9.637723
351659851417243,-0.017334988,0.027315235,9.638002
351659871272860,-0.0011046423,0.07502217,9.694236
351659891128603,-0.045612182,0.054417554,9.666318
351659910984219,-0.058937497,0.0563069,9.634848
351659930839836,-0.021544036,0.058044113,9.681824
351659950695451,-0.025097078,0.016247077,9.67834
351659970558461,-0.04711803,0.071281806,9.612512
351659990414334,-0.0072293603,0.09674238,9.582638
351660010270077,-0.0056500863,0.010558244,9.58912
351660030125949,-0.016941793,-0.018534223,9.552798
351660049981694,0.057575416,0.042763457,9.5421095
351660069842198,0.10931515,0.02918782,9.596116
351660089698198,0.078540854,-0.02818791,9.59835
351660109554199,0.066481344,0.047760904,9.606663
351660129410070,0.0060141087,0.13505815,9.595276
351660149269814,-0.1278413,0.10680375,9.556048
351660169125943,-0.1813569,0.10304327,9.504499
351660188982070,-0.2107451,0.1733452,9.544148
351660208838199,-0.17999245,0.16648865,9.532432
351660228694328,-0.21002702,0.12800626,9.493256
351660248550457,-0.17660607,0.1393731,9.530262
351660268410292,-0.12510957,0.17954716,9.481336
351660288266677,-0.13112658,0.09587235,9.433731
351660308123062,-0.12819637,0.08482607,9.467957
351660327979319,-0.13584113,0.007601326,9.485251
351660347835704,-0.13627927,-0.056794897,9.464506
351660367682099,-0.08906571,-0.037223868,9.325335
351660387538100,-0.06788042,0.0031751317,9.250082
351660407394101,-0.08387236,0.089489885,9.299084
351660427250230,-0.09669864,0.08333627,9.305737
351660447106231,-0.123121135,0.011758678,9.299814
351660466962232,-0.066002995,0.04464935,9.390341
351660486824859,-0.056303278,0.050400164,9.479015
351660506680988,-0.12986532,0.04856136,9.469133
351660526537245,-0.09404868,0.113356724,9.352403
351660546393374,-0.0985996,-0.011203056,9.265501
351660566244861,-0.13446559,-0.11369049,9.263651
351660586100990,-0.14631732,-0.05414784,9.214835
351660605956991,-0.1166256,-0.0034611626,9.254292
351660625813120,-0.0636677,-0.06903425,9.268148
351660645669249,-0.053667292,-0.11789834,9.238785
351660665527446,-0.049687486,-0.028348923,9.277048
351660685383575,0.0034317456,0.059237864,9.34121
351660705239576,0.031199371,0.0522335,9.291486
351660725095577,0.0555315,0.08738231,9.196184
351660744951706,0.052649885,0.1336813,9.257845
351660764807707,0.04137173,0.14483386,9.335458
351660784649781,0.09776148,0.112364285,9.204267
351660804505653,0.11642538,0.09275705,9.141228
351660824361398,0.100898534,0.053709242,9.236222
351660844217141,0.027430004,0.02078624,9.298101
351660864066747,0.029698476,0.08436736,9.260631
351660883922364,0.11239798,0.14311899,9.185276
351660903777979,0.06442377,0.09971679,9.205721
351660923633595,-0.028645016,0.093532436,9.295959
351660943489212,-0.008322893,0.2166367,9.247996
351660963346218,1.9298676E-4,0.1688051,9.176536
351660983201834,-0.004608587,0.13326879,9.196827
351661003057451,-0.023686433,0.08201956,9.288266
351661022913194,-0.03559942,0.059424344,9.322754
351661042768810,-0.020742653,0.0760165,9.226374
351661062624427,-0.015098915,0.076506175,9.174929
351661082483114,-0.051128745,0.098202206,9.232614
351661102338858,-0.10308129,0.08349641,9.251011
351661122194603,-0.080559805,0.075248696,9.202239
351661142050346,-0.023420185,0.036555167,9.137369
351661161902446,-0.03862708,-0.0041953214,9.153282
351661181758191,-0.0458479,0.007985642,9.221488
351661201613806,-0.028868094,0.061419383,9.289124
351661221467131,-0.0029930375,0.032446716,9.252814
351661241322876,0.028571451,-0.0031606082,9.205257
351661261164157,0.018549513,-0.034840923,9.202304
351661281019518,-0.028765619,0.006290777,9.228515
351661300874879,-0.006221128,0.07675658,9.262364
351661320730240,-0.00458417,0.097096585,9.240622
351661340585473,-0.030467775,0.08408186,9.196158
351661360440834,-0.027568784,0.13682427,9.18187
351661380301431,-0.039623573,0.13358158,9.226474
351661400156792,-0.085106365,0.102245145,9.20033
351661420012281,0.0028022048,0.061909344,9.204566
351661439867642,0.06272975,0.01594232,9.2903385
351661459725009,0.050251592,0.031738143,9.217641
351661479580370,0.061111674,0.06605725,9.138965
351661499435859,0.009814785,0.069193095,9.205577
351661519291220,-0.18690541,0.15417813,9.237293
351661539146709,-0.26742598,0.17134218,9.240956
351661559002070,0.15803021,0.1932553,9.201411
351661578859527,0.27925143,0.13971543,9.16045
351661598715016,0.027290475,0.06196989,9.21016
351661618570505,-0.029361095,0.07504425,9.22525
351661638425866,0.048105575,0.012499914,9.229294
351661658281355,0.1553651,-0.1993514,9.228606
351661678137448,0.16419224,-0.20378976,9.261791
351661697992915,0.028056324,-0.14147477,9.236836
351661717848404,0.017358268,0.01976047,9.1977825
351661737703893,0.09630602,0.16702333,9.218072
351661757513278,0.024769377,0.092087045,9.16447
351661777367871,-0.37678242,0.1388593,8.999329
351661797222464,-0.46043926,0.5152727,9.123665
351661817077051,0.18174654,0.5188505,9.19114
351661836931516,-0.32888702,0.4289389,9.281351
351661856786107,-0.06823714,0.2128102,9.231385
351661876647064,-0.27781188,0.022984518,9.198696
351661896501785,0.6577943,-0.080268964,9.507409
351661916356376,-0.09967103,-0.24212414,9.227612
351661936210968,-0.3143109,0.17727923,8.842518
351661956065561,-0.15524651,0.4329303,9.388016
351661975931291,0.41605574,0.1006272,9.52718
351661995786011,0.69591254,-0.6859451,9.502642
351662015640732,-0.53544587,-1.0407047,9.024792
351662035495579,-0.92821324,-0.7760483,8.672542
351662055364076,-0.41029966,0.13666914,9.51344
351662075219053,0.42881164,0.4510068,9.472334
351662095074158,0.19027013,0.41084582,9.266923
351662114929135,-0.12824218,0.47844508,9.174221
351662134784240,-0.50928825,0.35596466,8.9828415
351662154639217,-0.48042682,0.040915336,9.154402
351662174512199,-0.22169107,0.2114665,9.0385275
351662194367560,0.3894225,0.43327588,9.106022
351662214222919,0.56215394,0.4155699,9.240848
351662234078407,-0.20926142,0.39175645,9.073418
351662253933768,0.10207483,0.43781263,10.23265
351662273796155,0.6347778,0.040054806,9.434425
351662293651899,0.2131865,-0.35194692,9.102875
351662313507516,0.25326234,-0.09342759,9.563286
351662333363131,-0.2282333,0.30526868,9.049077
351662353227329,-0.48547557,0.6117737,9.164584
351662373083074,-0.26014107,0.46296394,9.259922
351662392938817,-0.055072647,0.010109866,9.289668
351662412794434,-0.0450068,0.14099653,9.716794
351662432650179,-3.1037288,-1.7141968,8.445176
351662452505924,-0.5574261,-2.3137045,10.189737
351662472369933,1.4821682,0.95861787,9.282769
351662492225934,0.26267555,1.1537392,8.737216
351662512081807,1.0777795,-0.25964117,10.39349
351662531937680,1.21833,0.10501652,10.4078665
351662551793681,-1.2573719,0.3557129,9.241319
351662571661592,-4.178595,-1.4465065,8.407453
351662591517849,-2.1479118,-1.9984559,10.000281
351662611374106,2.351402,-2.7669017,11.6414175
351662631230235,2.2603571,9.798417,3.358086
351662651086492,3.1753907,0.8661924,11.072985
351662670942749,0.014466468,-3.4475832,13.272613
351662690806314,-0.96143675,-2.4464033,10.060194
351662710662699,-0.59299254,-2.616465,10.160473
351662730519212,1.7444949,-0.49135002,11.597926
351662750375708,2.0517352,0.38988066,12.111466
351662770233976,0.4618943,0.54888254,11.356682
351662790090489,0.6199155,1.1398746,10.743347
351662809947000,1.495062,0.051904794,11.525619
351662829803640,0.14062409,-0.8475904,12.104374
351662849660153,0.28238624,0.8679892,11.959009
351662869506383,1.6895566,0.039003015,10.974352
351662889362639,0.38292107,-1.0778095,10.232051
351662909219024,-0.5835089,-1.0941446,10.06784
351662929075407,0.89016217,0.1986347,10.681748
351662948931663,5.2959046,1.7093959,11.559335
351662968788048,1.596774,0.041293662,9.655752
351662988646761,2.0197697,0.07362249,8.6044655
351663008503274,4.9445486,0.4272327,9.628485
351663028359787,1.952514,0.0637617,9.526246
351663048216300,0.41456053,-1.1496861,7.125248
351663068067085,0.3950536,-0.1804806,8.577883
351663087923470,-3.2178428,-0.9373946,13.450584
351663107779981,-1.7885257,-0.39810634,12.572914
351663127636493,-0.4048936,0.9135521,8.811824
351663147493006,-3.662382,-0.34055695,8.02492
351663167347050,-4.492523,0.28818908,9.970873
351663187203562,-1.7483076,0.8640373,10.028922
351663207060075,-2.2089262,-0.284415,9.727643
351663226916586,-4.971488,-0.87785697,10.847541
351663246773226,-5.7478185,-1.5867772,12.370128
351663266629739,-4.9122696,-0.70863694,12.370183
351663286486634,-4.0086412,1.4242435,11.839615
351663306343274,-3.5629938,0.44023174,12.048892
351663326199915,-1.8740243,1.1357224,10.82379
351663346056554,-0.5718593,1.967231,10.619053
351663365885552,-0.7034606,1.0736531,10.584325
351663385741169,-1.4463319,0.7651227,9.703301
351663405594937,3.6345255,-6.6497984,4.89477
351663425450554,3.0096867,-5.3665357,4.7675815
351663445306171,2.5594144,-3.4676645,4.162561
351663465150022,2.3569639,-4.364293,4.2583375
351663485005383,1.690296,-6.9339957,5.003219
351663504860744,1.9456385,-6.1668873,4.0556817
351663524716105,2.2467184,-4.748708,4.1668873
351663544571466,2.1477468,-4.253395,4.7325945
351663564426827,1.3608367,-5.3807945,5.400067
351663584283048,0.23222247,-6.479187,5.278185
351663604138409,-1.1343517,-10.424194,5.5770426
351663623993642,0.4286144,-2.2513144,7.502816
351663643849003,0.115052946,-3.4316552,6.7205763
351663663707540,-3.033409,-8.772523,10.06723
351663683562901,-2.8227177,-6.13591,10.264054
351663703418262,2.1099625,-3.346841,5.944802
351663723273623,3.8433354,-2.3060853,3.1464143
351663743128984,3.123108,-1.3077929,2.411747
351663762984329,3.1405163,-0.43953922,5.8983984
351663782838037,-0.4451708,2.8906074,12.874084
351663802693398,-5.3865404,6.135998,17.434885
351663822548757,-0.0129570095,-1.3091832,9.799665
351663842404117,0.0892588,-3.962625,10.739655
351663862259478,-0.36539465,-3.3038213,11.23122
351663882112466,-0.2310071,-3.057991,12.338752
351663901967698,0.9309145,-0.37220857,8.730488
351663921822803,2.8523982,1.6644447,3.6213558
351663941678034,0.8858335,1.4453255,8.055995
351663961540008,-0.8531954,-0.076445654,10.478027
351663981395369,-1.4513811,-1.7994864,11.284466
351664001250728,-2.447145,-3.3638585,12.615281
351664021106089,-1.9415439,-2.828221,11.042506
351664040961450,0.38698253,0.59678483,8.937094
351664060816939,0.74258363,0.740599,9.481252
351664080676238,0.669914,-1.503439,9.6796465
351664100531727,0.3410541,-0.9991909,9.988157
351664120387083,1.041199,-0.6054102,9.432135
351664140242571,1.3810356,-0.121824965,8.794217
351664160098060,0.10873064,-0.52212197,10.071753
351664179961912,-1.2334045,-0.4673243,10.964328
351664199817528,-0.5342229,0.64960945,10.295749
351664219673145,0.20560525,1.1962171,9.122671
351664239528888,1.32225,1.2097855,8.885297
351664259381961,2.2882125,1.318605,8.918866
351664279237578,1.5578102,-2.473327,9.931962
351664299093193,0.8377188,-0.4184976,10.096998
351664318948937,1.5275743,1.8967036,9.5004835
351664338804554,-0.31613064,1.7695671,10.503202
351664358660297,-1.2231412,1.0632353,10.171775
351664378520594,-0.58604294,0.59231156,8.700006
351664398376467,0.44641754,1.2790059,7.665778
351664418232210,0.728064,1.6189823,7.5106277
351664438088082,0.46062112,0.10899832,7.7541614
351664457943827,-0.099191114,-2.326353,9.040194
351664477799235,-1.185823,-1.7300661,9.926492
351664497655107,-0.93301076,-2.0794935,10.445307
351664517510852,-1.2266394,-0.64082307,9.516151
351664537366595,-2.4280207,-2.3143952,13.563106
351664557224803,-1.9198549,-1.2443948,14.02525
351664577080676,0.18973422,0.7272584,11.240104
351664596936547,1.3685406,-0.00287702,9.470486
351664616792291,1.2897627,-0.25096935,7.9521422
351664636648164,-0.21823618,0.78852767,7.9668903
351664656504035,-1.4949405,1.4389946,10.641965
351664676362351,-1.2408,0.3771588,11.379156
351664696218224,0.07174616,-0.6403927,10.547811
351664716074095,0.75498587,-0.81389195,9.756729
351664735929967,0.5458635,-0.72584087,8.758464
351664755785968,0.43870696,-0.15368402,8.07442
351664775637853,-0.041785635,0.537885,9.467396
351664795493597,-0.36508027,-0.32999837,10.839239
351664815349470,-0.050524104,-1.4180508,10.558459
351664835205213,0.5168663,-1.5397861,10.143789
351664855061085,0.36323345,-1.0967492,10.137541
351664874916830,0.24390653,-0.606093,9.936488
351664894765600,0.1942227,-0.07064261,9.567027
351664914621344,0.5107561,0.021658782,8.684216
351664934477089,0.47229776,-0.12909143,8.846181
351664954332704,0.21058847,-0.43951514,9.506076
351664974185468,0.19337723,-0.7495386,10.179755
351664994041085,0.09112633,-0.90738744,10.358702
351665013896828,0.1296052,-0.4434296,9.852055
351665033752444,0.39915842,-0.19072852,9.214237
351665053608061,0.65697336,-0.3752878,9.147387
351665073459850,0.3965098,-0.6182703,9.836318
351665093315338,0.19064476,-0.7079981,10.116354
351665113170827,0.09129863,-0.87170887,10.312951
351665133026314,0.24897467,-0.5452662,9.883259
351665152881802,0.5011822,-0.3304185,9.258624
351665172737291,0.35086337,-0.2858745,9.539004
351665192591017,-0.027719548,-0.41864368,10.227461
351665212446505,0.07146368,-0.7810224,10.294151
351665232301866,0.12562758,-0.6174574,10.081742
351665252157353,0.47164664,-0.4229899,9.611171
351665272009312,0.42012256,-0.30159178,9.356303
351665291864801,0.17030786,-0.29894036,9.643906
351665311720288,0.119956516,-0.45802087,9.957919
351665331575648,0.05442798,-0.44539607,10.309822
351665351431137,-0.079095334,-0.3606575,10.4332075
351665371286496,0.01721193,-0.21684523,9.961198
351665391144374,0.30662197,-0.2922524,9.536045
351665410999863,0.36581394,-0.2945444,9.689257
351665430855222,0.11801993,-0.24764508,9.8386755
351665450710582,-0.17990753,-0.22096595,10.065787
351665470566071,0.2395994,-0.07074609,9.347938
351665490429270,0.5115062,0.1988316,8.866639
351665510284886,0.31259117,-0.1481315,9.522859
351665530140375,-0.06210925,-1.0606545,10.979927
351665549995862,0.029021246,-0.78866285,10.990701
