UPTIMENANO,Ax,Ay,Az
351714554666340,-0.6046012,0.48960528,8.5806675
351714574522725,-0.4758632,0.33340904,9.625281
351714594384953,0.024013417,-0.394092,10.045832
351714614241593,-0.17233607,-0.28728917,10.201867
351714634098106,0.1992487,-0.36942694,10.071
351714653954617,0.21368086,-0.0060370266,9.71029
351714673811129,-0.11237597,0.3342151,9.452643
351714693667642,-0.44172087,0.1848818,10.130783
351714713526864,-0.51290584,-0.39855707,10.6523695
351714733383376,-0.33623388,-0.24084307,10.144729
351714753239889,0.041597594,0.3055679,9.367026
351714773096400,-0.11058822,0.30858877,9.618317
351714792953637,-0.2423661,0.13611053,10.386287
351714812810278,-0.42778465,0.41096973,10.320049
351714832666789,-0.034296993,0.21370637,9.9787
351714852523429,0.4664637,0.57301694,9.775216
351714872379942,0.32513016,-0.3380091,8.414123
351714892228291,0.43835333,-1.4868141,8.8309965
351714912084675,1.4404023,-1.0552343,10.627017
351714931941060,2.663468,-0.46340632,10.914735
351714951797443,2.266357,-0.6387513,9.760265
351714971653699,-0.26665074,-0.62880796,9.466533
351714991510084,-2.3071032,0.6197961,9.624652
351715011354002,-3.9185498,3.9176028,6.5402846
351715031210130,-0.84961146,1.4304023,7.76743
351715051066259,0.41740677,-1.1573375,11.022339
351715070922386,-1.0685505,-1.3633344,11.664222
351715090781598,-1.6152958,-1.6120148,10.899982
351715110637727,0.24167728,-0.7468953,9.900439
351715130493982,1.8285775,0.35200402,7.8478374
351715150350238,0.32174712,1.5348034,8.3542185
351715170206495,-0.0405571,0.60095686,9.221388
351715190062750,-0.508945,-0.31234643,9.721567
351715209918116,-0.18643072,-0.43038416,9.713992
351715229774373,1.069396,0.33653253,9.910139
351715249630500,-1.0360546,0.5780738,9.251679
351715269486756,-2.2534664,-0.7902036,10.338328
351715289343013,-0.34058255,-0.8795339,10.062399
351715309196847,0.85931927,-0.0832505,9.252704
351715329052975,-1.0886151,-0.3765119,9.965923
351715348909232,-1.9719372,-1.1313671,10.942719
351715368765359,-0.28360802,-0.46800363,10.229161
351715388618445,-0.41513574,-0.16951284,10.019077
351715408474446,-0.5784407,-0.44324258,10.329243
351715428330445,-0.4594367,-0.9064485,10.670179
351715448186573,-0.21048881,-0.87369615,10.303802
351715468042574,0.38535288,-0.25198606,9.606824
351715487898573,0.48155758,-0.27563575,9.429519
351715507750475,1.2908151,-0.40252298,10.793413
351715527606348,3.6015217,0.61023694,11.890013
351715547462347,3.495941,0.49064037,12.9832115
351715567318347,0.1526818,1.6334362,8.70578
351715587174220,0.16681078,1.0627435,6.8079634
351715607032882,-1.1175044,-0.78023934,6.790307
351715626888882,0.69737846,0.75334126,4.8109016
351715646744883,2.3725224,-0.23892464,4.3625665
351715666600882,5.647645,-0.17666325,4.214241
351715686464714,2.4531689,-2.3008003,8.8414345
351715706320843,-3.2348742,-3.453792,13.643195
351715726176970,-1.7564201,0.35589996,8.844813
351715746032970,3.2159963,0.7996159,2.5035648
351715765889099,5.5902224,-0.9083781,0.9252281
351715785745226,5.7688284,-4.4843545,1.4766353
351715805601374,3.854456,-7.537458,3.3431518
351715825457503,1.2185686,-8.523734,8.931993
351715845313630,0.3562727,-6.982381,14.946421
351715865169758,-0.19335352,-5.4605956,18.164019
351715885025887,-0.052116066,-6.095203,17.283813
351715904878661,3.4881568,-5.6661015,15.04565
351715924734661,3.4599826,-5.381518,14.808443
351715944590662,1.8247503,-3.4801722,15.737024
351715964446661,-21.348455,-2.4738305,2.7871246
351715984309570,-9.584625,-4.259781,-4.646617
351716004165699,6.605708,-0.86750495,12.2285185
351716024021954,0.09105409,1.4830581,13.509173
351716043878082,6.5044603,7.149268,6.3037124
351716063734339,10.486003,6.0975943,4.638306
351716083590466,4.651805,-4.373745,7.4396973
351716103447546,-1.2886598,0.050600994,9.201759
351716123303675,2.77695,1.6763226,7.7649035
351716143159930,3.1560996,3.0288503,9.062583
351716163016058,2.3301396,1.559813,12.439129
351716182872187,6.1524224,-0.65974665,12.849764
351716202742967,3.4010851,-1.5550247,14.820514
351716222599479,3.5171819,-3.1254163,14.310939
351716242455992,4.0359917,-2.6379933,14.099697
351716262312503,3.714082,-3.2737868,15.845626
351716282169015,2.6831958,-3.4308836,16.279541
351716302025528,1.4803388,-3.7254975,15.127847
351716321890341,0.9358355,-6.623583,14.506547
351716341747109,1.5582924,-8.1454935,12.5768795
351716361603878,-4.429693,-7.132898,9.805225
351716381460645,-4.5904417,-4.9373593,8.676425
351716401321296,-1.736965,-5.697185,6.9117727
351716421178193,-0.6892391,-7.367059,5.854197
351716441034960,-1.7895792,-5.293699,6.470779
351716460891856,-1.1127554,-3.1413584,8.514304
351716480748753,-0.8558662,-2.6938925,6.9391766
351716500606026,-2.7126474,-3.5973043,4.417722
351716520462922,-3.1506984,-4.319123,8.845703
351716540319819,1.4980662,-2.698815,11.708434
351716560176714,2.6085556,-0.33856276,9.664264
351716580033610,1.667845,3.0537374,12.397858
351716599890507,-0.14847326,2.4574606,14.776336
351716619744147,2.3144853,-1.4533964,3.984409
351716639600915,0.037036315,0.80034804,11.253273
351716659457684,3.746674,3.760239,15.294892
351716679314451,0.48156708,6.64129,7.282974
351716699174014,2.16346,2.6066277,11.366694
351716719030911,5.8232546,1.2654357,13.303075
351716738887806,2.0452065,-1.630759,8.587611
351716758744574,-1.7981896,1.6434834,11.02355
351716778601471,0.63441426,-0.5426923,10.7495
351716798458429,-0.7307084,-8.532429,8.895481
351716818315325,0.630509,-3.3634794,3.6146333
351716838172222,0.24968845,4.446865,4.3292365
351716858029117,-1.8305,-0.3267983,6.254655
351716877886013,0.48759186,-3.8096852,9.141022
351716897742910,-1.0082629,-0.0445167,9.146674
351716917590150,-2.8999321,0.81883335,7.9434466
351716937446790,-0.7796357,0.86112237,8.380592
351716957303559,1.9210337,1.8845474,11.664855
351716977160198,3.5499196,2.2469208,13.766658
351716997006767,2.4532838,2.3356645,11.347884
351717016863280,1.3835701,3.682642,9.41644
351717036719791,0.87318057,2.3499029,9.068092
351717056576303,0.62624735,1.620183,11.242187
351717076432816,0.9073001,0.9135012,11.54541
351717096285476,0.55279297,-0.5229572,9.349797
351717116141860,0.13731222,-0.33989224,9.034193
351717135998117,1.5500498,0.1870607,8.506024
351717155854500,2.5367305,1.2976876,9.10203
351717175710884,1.0630629,1.4018495,11.300202
351717195567269,0.69710875,1.2752948,11.587501
351717215419902,1.5847077,0.77941686,9.635614
351717235276158,1.5631175,1.0296147,7.6949143
351717255132415,1.235335,3.3451478,8.893045
351717274988670,1.0227919,0.5082642,9.434067
351717294842774,1.4565612,1.6679082,8.36377
351717314699031,1.7388626,3.026586,8.487737
351717334555286,0.85113096,4.754336,8.989023
351717354411542,1.3427268,-2.289457,16.090803
351717374267799,0.3943604,-3.1155198,17.320602
351717394124054,-1.2713501,-2.281752,8.400256
351717413979036,-0.7106586,-1.9017024,11.495584
351717433835165,-0.21360485,-1.476756,13.168147
351717453691420,-0.36423036,-3.630071,11.349365
351717473547548,-1.2357872,-3.4723563,14.893397
351717493403805,-1.0387844,-0.10881841,12.974633
351717513253355,1.2339776,2.495026,10.200582
351717533109355,-1.4282159,2.9771774,9.713804
351717552965356,-1.9444375,-1.0069327,6.261784
351717572821355,4.604695,-3.2509773,5.6673408
351717592675837,3.1236794,-0.48890206,11.447972
351717612531710,-4.237627,-0.15083152,11.591756
351717632387581,-2.1030512,-1.7116652,8.468274
351717652243581,-0.062058568,-1.7979562,7.510043
351717672099454,-0.48092914,-0.5732998,5.9450293
351717691955325,-0.39110616,-1.2812063,5.6118875
351717711815031,2.7021513,-2.0881596,9.283322
351717731671032,11.313342,0.22843263,15.065874
351717751526903,5.6548758,0.8041071,14.832657
351717771382903,-0.31560534,0.53809786,10.677565
351717791238776,-1.544884,1.9761075,9.125556
351717811100810,-1.9511905,4.46634,11.14009
351717830956810,-1.4898251,8.157039,13.778683
351717850812939,-0.34085175,2.480174,10.850948
351717870669066,-0.2627383,-0.084909834,9.308581
351717890532150,0.33141157,0.24619637,10.586326
351717910388407,0.65784544,-1.1028206,10.563452
351717930244662,0.48384836,-1.6110339,10.350615
351717950100918,0.1995163,-1.5665531,10.294746
351717969957175,0.18310633,-0.92993546,10.324631
351717989813430,0.41041145,-0.45245034,10.31948
351718009673636,0.5843337,-0.39001295,10.1827965
351718029529893,0.6666272,-0.8148528,10.322245
351718049386276,0.6112865,-0.9213636,10.587933
351718069242532,0.552726,-1.0015781,10.2756815
351718089098789,0.44972557,-0.83857006,9.980567
351718108962285,0.06797311,-0.8368904,9.7192135
351718128818797,0.26184744,-0.19257484,10.916276
351718148675310,0.22724922,-0.054344628,11.002969
351718168531693,0.07630217,-0.15769032,10.4048395
351718188388205,0.46010953,-0.18518838,10.247939
351718208244718,0.39773956,-0.039972752,10.29329
351718228107318,0.4410453,0.09902113,10.506619
351718247963958,0.6902353,-0.11816461,10.404532
351718267820599,0.7380322,-0.33486962,10.319626
351718287677238,0.4489162,-0.40100318,10.300524
351718307538413,0.233355,-0.30575278,10.386652
351718327395182,0.12648016,-0.08300352,10.433751
351718347251949,0.11311344,0.062077913,10.522664
351718367108845,0.32256362,-0.45402148,10.338227
351718386965614,0.60502464,-1.0029247,10.246681
351718406823185,0.63287634,-1.0387185,10.3229
351718426682577,0.3923872,-0.80023474,10.3923435
351718446539474,0.24655077,-0.7506753,10.402515
351718466396369,0.21329212,-0.6201342,10.435645
351718486253265,0.056247648,-0.2733118,10.579311
351718506110162,0.06663176,-0.12886915,10.495591
351718525962133,0.31000248,-0.28840193,10.334743
351718545818902,0.48008376,-0.28470576,10.316104
351718565675799,0.5729037,-0.16718821,10.273301
351718585532564,0.6319711,-0.19401702,10.318887
351718605389436,0.6920198,-0.44634277,10.33501
351718625246205,0.50438184,-0.61284417,10.331608
351718645102972,0.28368852,-0.6830431,10.3561535
351718664959868,0.20004314,-0.6530296,10.420394
351718684816637,0.099172205,-0.5574737,10.448766
351718704677616,0.005023796,-0.54107785,10.415209
351718724534512,0.075187035,-0.54375476,10.382428
351718744391409,0.17671326,-0.46013108,10.3461895
351718764248304,0.29026827,-0.44723457,10.340099
351718784105200,0.4025496,-0.49682826,10.396994
351718803962097,0.43768632,-0.5015399,10.415217
351718823816231,0.26780033,-0.4301884,10.404087
351718843673127,0.11823387,-0.3618974,10.444494
351718863530024,0.097454,-0.33881345,10.4735155
351718883386791,0.03227591,-0.34273422,10.427225
351718903239606,0.06375674,-0.3273035,10.405443
351718923096375,0.16185969,-0.32581457,10.373688
351718942953144,0.2564704,-0.39479342,10.403889
351718962809910,0.3075191,-0.5156364,10.36283
351718982666679,0.29346022,-0.478927,10.380366
351719002523446,0.1412764,-0.46309638,10.387085
351719022373694,0.1282855,-0.6063028,10.359033
351719042230335,0.15634266,-0.6713196,10.311624
351719062086974,0.027707217,-0.6064163,10.379871
351719081943614,0.0065509873,-0.5081406,10.452209
351719101800255,0.060626626,-0.46260497,10.450156
351719121643064,0.06556641,-0.5174923,10.405606
351719141499448,0.09795721,-0.7005563,10.299167
351719161355705,0.16373274,-0.5819677,10.322394
351719181212088,0.20967616,-0.4891445,10.404214
351719201064748,0.269054,-0.47748926,10.446179
351719220920877,0.23440294,-0.42129606,10.353384
351719240777132,0.11190838,-0.4100571,10.277842
351719260633260,0.10472751,-0.53040594,10.354878
351719280489517,0.13872752,-0.6637875,10.412606
351719300345644,0.1750605,-0.69181776,10.418812
351719320202528,0.14917265,-0.6158788,10.3586
351719340058657,0.17250304,-0.59301716,10.354455
351719359914914,0.17876594,-0.5426304,10.356245
351719379771043,0.14576803,-0.46072438,10.367641
351719399627300,0.21024252,-0.49815574,10.349712
351719419485861,0.25622293,-0.47892112,10.339573
351719439342112,0.19532332,-0.40954432,10.353657
351719459198241,0.18084721,-0.45562714,10.345989
351719479054496,0.15573485,-0.45171022,10.229729
351719498911191,0.12718907,-0.36645007,10.229995
351719518767448,0.11073871,-0.34487635,10.2378235
351719538623575,0.17795333,-0.41865045,10.193998
351719558479831,0.23289219,-0.5444386,10.188642
351719578335960,0.26128966,-0.6363583,10.22484
351719598192215,0.2394711,-0.5847825,10.210024
351719618053780,0.17519926,-0.5169482,10.185155
351719637910037,0.11314148,-0.48476523,10.172026
351719657766292,0.109369695,-0.4621637,10.1916485
351719677622676,0.12325414,-0.4907016,10.151378
351719697478933,0.17803149,-0.5044849,10.089256
351719717337338,0.23544128,-0.5277733,10.067852
351719737193595,0.26836577,-0.5203294,10.129305
351719757049980,0.18871976,-0.4859875,10.166137
351719776906360,0.14034949,-0.52427155,10.1383505
351719796763714,0.12679572,-0.5519461,10.125213
351719816620099,0.120095134,-0.4936309,10.1375
351719836476482,0.15959159,-0.4400109,10.035968
351719856332866,0.20260158,-0.37850985,9.982589
351719876189251,0.20243926,-0.43400642,10.033569
351719896045634,0.24153775,-0.5301343,10.001791
351719915905669,0.25198936,-0.58277875,9.966904
351719935762182,0.17377648,-0.51498914,10.0451145
351719955618693,0.095633395,-0.41102016,10.055946
351719975475077,0.19330202,-0.4285923,10.033505
351719995331590,0.18181776,-0.46049303,9.9906225
351720015185555,0.13828689,-0.39518157,9.978174
351720035042068,0.2211322,-0.4090741,9.969934
351720054898453,0.3176863,-0.45692512,9.959073
351720074754834,0.2798146,-0.47013935,10.017569
351720094611218,0.25527558,-0.42756575,9.990563
351720114467603,0.24287543,-0.39059228,10.018888
351720134324829,0.23544014,-0.37935045,10.128061
351720154181213,0.27859282,-0.3629059,9.986602
351720174037598,0.34917644,-0.35197568,9.736454
351720193894109,0.30421758,-0.34706342,9.707173
351720213761532,0.2928817,-0.39448497,9.779132
351720233618173,0.26364774,-0.43338966,9.714995
351720253469425,0.2246711,-0.3802152,9.663404
351720273326066,0.26962855,-0.38227904,9.722988
351720293182707,0.34193486,-0.43643364,9.779577
351720313041652,0.27987444,-0.43578935,9.868208
351720332898421,0.16678782,-0.4191469,9.936591
351720352755190,0.21756876,-0.42549193,9.916925
351720372611959,0.2414135,-0.42071164,9.930869
351720392468728,0.19393605,-0.36352572,9.885494
351720412325497,0.27421972,-0.36593288,9.823486
351720432185174,0.28467473,-0.40306264,9.821628
351720452042071,0.33307835,-0.4067542,9.7973
351720471898968,0.33760637,-0.4684817,9.809073
351720491755865,0.34048015,-0.4493002,9.806223
351720511614170,0.35136473,-0.45477074,9.742174
351720531471195,0.30316666,-0.5037131,9.72043
351720551328092,0.27639946,-0.537836,9.751576
351720571185117,0.29782957,-0.5551679,9.743086
351720591042014,0.3444174,-0.5163216,9.747595
351720610898911,0.399275,-0.47601908,9.800405
351720630747510,0.36456943,-0.48632416,9.798701
351720650604279,0.32384366,-0.47253412,9.794095
351720670461048,0.3065779,-0.43365213,9.802886
351720690317817,0.3047387,-0.42620724,9.828984
351720710174586,0.30780354,-0.4032449,9.819572
351720730027547,0.28650147,-0.40560186,9.854588
351720749884187,0.28489077,-0.3918724,9.859772
351720769740828,0.29525068,-0.39858738,9.785626
351720789597467,0.25539637,-0.42084527,9.775114
351720809455893,0.2386197,-0.39179116,9.729772
351720829312534,0.2678092,-0.35319075,9.712384
351720849169173,0.21900363,-0.2935198,9.754844
351720869025941,0.28039166,-0.30440506,9.719121
351720888882582,0.33044168,-0.34605354,9.699976
351720908739221,0.18069649,-0.34225395,9.705484
351720928587000,0.15510762,-0.34073234,9.760453
351720948443513,0.20845024,-0.3578958,9.796902
351720968300026,0.18876944,-0.32266924,9.840877
351720988156536,0.1946268,-0.3197225,9.859659
351721008012921,0.29346246,-0.4220945,9.843067
351721027862599,0.28427473,-0.5168712,9.815573
351721047718983,0.14994502,-0.46582514,9.816895
351721067575240,0.14605018,-0.41340238,9.8096075
351721087431623,0.26529068,-0.44955695,9.814253
351721107285484,0.30807626,-0.44674653,9.813978
351721127141741,0.27980313,-0.3900839,9.784168
351721146998124,0.22798839,-0.3688047,9.752917
351721166854380,0.19965607,-0.4311409,9.770485
351721186710637,0.16092311,-0.3899516,9.703781
351721206566892,0.14713244,-0.30029422,9.769463
351721226421826,0.24764653,-0.29486254,9.805074
351721246278083,0.35765886,-0.40435073,9.779476
351721266134338,0.33407405,-0.40537426,9.76596
351721285990594,0.22261377,-0.35133356,9.756169
351721305846851,0.21130939,-0.39096493,9.785882
351721325701706,0.19864626,-0.47345698,9.860999
351721345557960,0.1890518,-0.5141614,9.856146
351721365414217,0.19335169,-0.4996185,9.820228
351721385270344,0.19768196,-0.42440158,9.814921
351721405126100,0.16838062,-0.3735918,9.80644
351721424982229,0.203002,-0.4016235,9.764065
351721444838356,0.23089373,-0.43125424,9.724732
351721464694612,0.26922056,-0.47006178,9.7252445
351721484550741,0.25810274,-0.49888325,9.720086
351721504406868,0.28739223,-0.4593928,9.709072
351721524264747,0.26803425,-0.46348658,9.730431
351721544121004,0.22906856,-0.42365685,9.778792
351721563977133,0.28459105,-0.41582176,9.795014
351721583833387,0.2961873,-0.342823,9.780531
351721603689516,0.2879617,-0.28532967,9.787282
351721623543873,0.3331532,-0.3194211,9.7953
351721643400001,0.33963948,-0.35653242,9.842431
351721663256002,0.3029844,-0.3729547,9.83422
351721683112129,0.28817824,-0.3823661,9.826814
351721702968257,0.26774648,-0.40824333,9.807373
351721722824258,0.2512061,-0.4786729,9.76234
351721742685654,0.2601906,-0.47033408,9.741916
351721762541782,0.32068878,-0.4228572,9.754362
351721782397911,0.35183966,-0.37258548,9.757035
351721802254166,0.34633735,-0.34212336,9.767458
351721822114983,0.36866036,-0.32451743,9.778899
351721841971368,0.3092658,-0.3287511,9.804345
351721861827625,0.28955203,-0.3190283,9.787448
351721881683882,0.28927842,-0.32514775,9.776098
351721901540267,0.30307898,-0.2901638,9.827658
351721921396105,0.3388057,-0.28010288,9.85321
351721941252489,0.3445004,-0.28928128,9.776188
351721961108746,0.3304447,-0.28322223,9.778767
351721980965001,0.34310952,-0.27665135,9.8112
351722000821385,0.3287519,-0.2737676,9.837477
351722020677642,0.3262713,-0.27811092,9.767052
351722040535398,0.30603758,-0.28748354,9.736625
351722060391782,0.34550366,-0.31842586,9.707655
351722080248167,0.32460365,-0.40018257,9.7631855
351722100104550,0.27301735,-0.4147214,9.761203
351722119967026,0.29700926,-0.3953935,9.735312
351722139823539,0.31394428,-0.37602374,9.729162
351722159680050,0.30250257,-0.41135252,9.725255
351722179536563,0.320126,-0.459584,9.770526
351722199393076,0.36258855,-0.48885268,9.798077
351722219247569,0.35005486,-0.47861564,9.828687
351722239103950,0.3071738,-0.386903,9.868156
351722258960463,0.28238615,-0.3638948,9.828758
351722278816846,0.29636112,-0.32876137,9.873461
351722298673358,0.24082685,-0.26653644,9.829749
351722318529743,0.20096296,-0.1872905,9.764589
351722338384095,0.24397051,-0.19537252,9.713648
351722358240607,0.31491545,-0.2865873,9.698825
351722378096992,0.29353178,-0.38217273,9.682674
351722397953503,0.22904617,-0.392381,9.638368
351722417812295,0.13333233,-0.35914928,9.6933365
351722437668808,0.16009718,-0.35040745,9.795169
351722457525449,0.21414612,-0.46896726,9.818291
351722477381962,0.23125891,-0.4984942,9.824608
351722497238603,0.21319084,-0.44475883,9.865019
351722517095116,0.251395,-0.42063612,9.833417
351722536950270,0.2528818,-0.43290034,9.892831
351722556806783,0.18542427,-0.4435137,9.89339
351722576663294,0.16523267,-0.40594554,9.797144
351722596519806,0.07751651,-0.33573028,9.790768
351722616376319,0.1297347,-0.29008612,9.815007
351722636231331,0.22741339,-0.30938372,9.819884
351722656087715,0.28316057,-0.35490635,9.743263
351722675944228,0.33968794,-0.44971836,9.718863
351722695800611,0.2690086,-0.5337279,9.732484
351722715661286,0.15665115,-0.5498493,9.684355
351722735517799,0.0709754,-0.50791514,9.688342
351722755374310,0.06730686,-0.49894834,9.737886
351722775227776,0.12921625,-0.50065136,9.795098
351722795084289,0.20866825,-0.47475636,9.887194
351722814940800,0.25935793,-0.45660368,9.949233
351722834793710,0.28265947,-0.45817098,9.952782
351722854650223,0.21172382,-0.35845196,9.830326
351722874506606,0.19758722,-0.29327753,9.622496
351722894362990,0.14263189,-0.31456977,9.616085
351722914219503,-0.007178673,-0.38889357,9.698161
351722934074474,0.15402745,-0.4157086,9.703598
351722953930859,0.21522996,-0.33805358,9.720483
351722973787372,0.27837163,-0.22600387,9.825241
351722993643757,0.30089638,-0.29463395,9.868645
351723013493396,0.10101936,-0.38319498,9.833814
351723033349653,-0.01806062,-0.4074848,9.865865
351723053205908,0.050224863,-0.45149136,9.873011
351723073062164,0.08309577,-0.43558964,9.890331
351723092918421,0.170767,-0.36742115,9.836143
351723112774804,0.32880282,-0.45329988,9.767643
351723132626891,0.25694036,-0.4152611,9.783427
351723152483148,0.14767231,-0.36322242,9.753092
351723172339275,0.13822627,-0.42270303,9.729355
351723192195403,0.10208246,-0.3891212,9.745535
351723212051660,0.14881118,-0.39501524,9.782738
351723231908641,0.19133686,-0.3858022,9.7913065
351723251764897,0.12635528,-0.36551976,9.757455
351723271621026,0.12815502,-0.42049417,9.781233
351723291477153,0.078913644,-0.46292087,9.760897
351723311333409,-0.053634178,-0.45836055,9.783778
351723331189538,-0.02196276,-0.41585013,9.768427
351723351038769,0.05845078,-0.31156474,9.822554
351723370894898,0.1356453,-0.30985743,9.883785
351723390750899,0.12296063,-0.4539573,9.869226
351723410607028,0.07801381,-0.63466406,9.895238
351723430463723,-0.038101997,-0.52960247,9.815833
351723450319724,-0.065369934,-0.32632214,9.695499
351723470175853,-0.022830408,-0.27118263,9.693824
351723490031854,0.022182824,-0.30548653,9.687214
351723509887983,0.07474413,-0.39428827,9.698089
351723529742148,0.20212114,-0.5329929,9.709432
351723549598149,0.2296624,-0.55932885,9.754229
351723569454150,0.14213419,-0.48480004,9.803197
351723589310151,-0.0015410003,-0.45773777,9.856731
351723609166152,-0.11251756,-0.4450782,9.876189
351723629022153,-0.15101568,-0.42519724,9.840608
351723648878410,-0.025642002,-0.4987278,9.792519
351723668734411,0.056420166,-0.49677452,9.800582
351723688590412,0.10524467,-0.45911255,9.835217
351723708446413,0.11713528,-0.45618057,9.815929
351723728312306,0.033842694,-0.39547312,9.822286
351723748168435,0.01051804,-0.37272072,9.7631855
351723768024672,-0.08001596,-0.31217447,9.774196
351723787880800,-0.021875765,-0.30517444,9.755467
351723807737057,0.014739174,-0.4031203,9.798831
351723827595567,0.05818973,-0.42213005,9.820042
351723847451823,0.10498899,-0.4179338,9.809227
351723867308080,0.06710226,-0.38685775,9.841663
351723887164207,0.06497458,-0.3496747,9.843607
351723907020463,0.05836499,-0.37001446,9.867513
351723926876720,0.056637403,-0.4178151,9.8717575
351723946730740,0.051176008,-0.42467004,9.823193
351723966586869,0.10988219,-0.42667535,9.773676
351723986442998,0.11569746,-0.476722,9.717843
351724006299127,0.10389534,-0.397804,9.696833
351724026159642,0.10136666,-0.35270044,9.669188
351724046015899,0.13838811,-0.44704422,9.637202
351724065872151,0.06125038,-0.5088592,9.697325
351724085728279,0.02026134,-0.5053076,9.745359
351724105584536,0.0010860397,-0.5382395,9.826467
351724125440791,-0.09610379,-0.48788217,9.858954
351724145297809,-0.11052523,-0.39360413,9.866201
351724165154066,-0.10601523,-0.35678753,9.848742
351724185010321,-0.06758372,-0.3760114,9.85071
351724204866577,-0.06705408,-0.40477243,9.788947
351724224722834,0.007378067,-0.4666313,9.727508
351724244588956,0.08265427,-0.49771005,9.696526
351724264438753,0.15806843,-0.4417757,9.703001
351724284295266,0.122356005,-0.45999154,9.725825
351724304151651,0.028852988,-0.45837703,9.764024
351724324011888,-0.0016355427,-0.43308666,9.8026
351724343868529,0.0044740867,-0.42872345,9.846055
351724363725170,0.022951754,-0.4269616,9.857272
351724383581811,0.025774702,-0.45535362,9.844809
351724403438452,0.05266577,-0.444375,9.848903
351724423295093,0.09118194,-0.42606774,9.853661
351724443157752,0.11360967,-0.4003731,9.816774
351724463014521,0.11561507,-0.31568882,9.762841
351724482871290,0.14506352,-0.34785405,9.706093
351724502728059,0.13989338,-0.38911754,9.707794
351724522584828,0.10452493,-0.38120762,9.721345
351724542439263,0.1156164,-0.4123247,9.715122
351724562296160,0.08436905,-0.37189022,9.720868
351724582152929,0.014014968,-0.36718163,9.803287
351724602009698,0.022784486,-0.4390923,9.855874
351724621864243,-0.019793337,-0.45006636,9.841313
351724641721012,-0.035051107,-0.38742837,9.857629
351724661577781,0.0056178146,-0.38161236,9.876144
351724681434422,0.030420318,-0.41845962,9.840055
351724701291191,0.011174722,-0.43915364,9.792169
351724721147960,0.017638765,-0.4712244,9.782467
351724741004280,0.04787747,-0.45029634,9.759883
351724760860921,0.0397025,-0.3995185,9.746797
351724780717688,0.04138166,-0.40914434,9.740383
351724800574456,0.03595682,-0.48488265,9.753049
351724820431097,0.015171951,-0.5047166,9.778633
351724840285197,0.008673771,-0.42070782,9.7616825
351724860141965,0.026520738,-0.37653792,9.762995
351724879998606,0.051016558,-0.39185333,9.792668
351724899855373,0.08625165,-0.41031983,9.833329
351724919704791,0.13477017,-0.42092195,9.823256
351724939561304,0.10590666,-0.37067395,9.802433
351724959417815,0.08139536,-0.34297913,9.824371
351724979274327,0.09904472,-0.3847128,9.80046
351724999130840,0.09592201,-0.36131972,9.776047
351725018987353,0.08814687,-0.33278155,9.768673
351725038825328,0.124909334,-0.4037303,9.733815
351725058681457,0.07976392,-0.47141537,9.709271
351725078537584,0.083787546,-0.43146855,9.721911
351725098393712,0.11020279,-0.40890136,9.738572
351725118249969,0.10980841,-0.4046046,9.758718
351725138103184,0.08642482,-0.4097982,9.799313
351725157959312,0.0862167,-0.39883578,9.815583
351725177815313,0.10938726,-0.39192936,9.8107395
351725197671312,0.1603988,-0.3652369,9.803022
351725217527440,0.15088099,-0.3340791,9.832028
351725237383441,0.12248494,-0.3422441,9.828811
351725257230890,0.1624173,-0.36896956,9.825888
351725277086763,0.18633486,-0.405344,9.833688
351725296942636,0.17229728,-0.39313006,9.828528
351725316798381,0.16348737,-0.35781458,9.832706
351725336655448,0.13891664,-0.37450787,9.80667
351725356511193,0.13491704,-0.4189834,9.762292
351725376367066,0.10913281,-0.42435724,9.7574625
351725396222939,0.12714003,-0.3874431,9.775846
351725416078812,0.16497335,-0.33935377,9.774522
351725435933983,0.16134661,-0.33090484,9.765476
351725455789728,0.15409732,-0.36116287,9.754706
351725475645601,0.14926481,-0.3710311,9.786744
351725495501346,0.16297066,-0.38826463,9.825398
351725515357219,0.112410754,-0.41437912,9.918941
351725535212964,0.06771926,-0.43233734,9.94355
351725555069179,0.16648242,-0.40980315,9.775967
351725574924924,0.18566136,-0.31821916,9.655962
351725594780669,0.09820145,-0.27453625,9.757201
351725614636414,0.06499111,-0.41445455,9.774265
351725634493269,0.086904764,-0.46597633,9.720523
351725654349014,0.08191331,-0.32942176,9.746075
351725674204759,0.20776495,-0.2958799,9.77324
351725694060482,0.27574885,-0.33936536,9.770955
351725713916227,0.12941341,-0.35382965,9.797227
351725733776894,0.104362264,-0.36343446,9.792139
351725753632637,0.12826663,-0.3798384,9.758398
351725773488382,0.09229382,-0.3108331,9.789467
351725793344253,0.13530101,-0.2840047,9.793483
351725813199997,0.23301695,-0.35180014,9.77907
351725833055742,0.22020756,-0.35468936,9.769507
351725852914320,0.22544168,-0.33172977,9.750961
351725872770320,0.19503272,-0.33019456,9.7676
351725892626193,0.13137196,-0.3122532,9.792301
351725912482064,0.10613012,-0.33400476,9.801818
351725932340789,0.15677384,-0.36143127,9.8076935
351725952196662,0.19377407,-0.3296656,9.815426
351725972052661,0.25850523,-0.26269284,9.807151
351725991908534,0.24293804,-0.2807715,9.762875
351726011764407,0.21944162,-0.30607697,9.765404
351726031620408,0.20902836,-0.3250284,9.785224
351726051476185,0.22938861,-0.32676017,9.755194
351726071332186,0.24228859,-0.2924356,9.787558
351726091188181,0.28506088,-0.3087113,9.815925
351726111044181,0.29151115,-0.32963684,9.789864
351726130900182,0.2004775,-0.28055665,9.751819
351726150757480,0.17982472,-0.26233006,9.754781
351726170613480,0.19754145,-0.32481802,9.78815
351726190469481,0.20626149,-0.34942454,9.783874
351726210325480,0.26278555,-0.2932485,9.774884
351726230188936,0.30755645,-0.26567453,9.786299
351726250045065,0.32410496,-0.26938537,9.796418
351726269901192,0.31040773,-0.23851211,9.825545
351726289757448,0.28339034,-0.16817975,9.846104
351726309613577,0.29220015,-0.18192367,9.806347
351726329469834,0.28725302,-0.18718366,9.790477
351726349332269,0.30055946,-0.16029379,9.779224
351726369188654,0.39719376,-0.1595902,9.757543
351726389044911,0.3734614,-0.1481214,9.735477
351726408901296,0.31554243,-0.117443524,9.734689
351726428757681,0.3086858,-0.12518781,9.769754
351726448619100,0.33614662,-0.16104448,9.776691
351726468475613,0.33976445,-0.19565827,9.808361
351726488332126,0.30250064,-0.21086796,9.844173
351726508188639,0.29269183,-0.22749428,9.808647
351726528049274,0.27911013,-0.22382365,9.806966
351726547906043,0.278713,-0.20451184,9.845507
351726567762684,0.32393458,-0.15575999,9.839107
351726587619325,0.35781038,-0.13369991,9.787622
351726607475966,0.35080928,-0.11978732,9.802903
351726627332607,0.32890037,-0.12779067,9.798651
351726647181312,0.33074903,-0.13093083,9.773454
351726667037825,0.2967075,-0.105315775,9.749552
351726686894210,0.32411495,-0.1251107,9.730582
351726706750595,0.35701898,-0.19387838,9.737696
351726726607108,0.29121345,-0.21815921,9.742042
351726746470345,0.27726105,-0.18573217,9.751545
351726766324610,0.31075436,-0.16400185,9.7808895
351726786181251,0.3292346,-0.17390221,9.835155
351726806037762,0.32774782,-0.19990274,9.876838
351726825891850,0.3264232,-0.20223223,9.880519
351726845748363,0.3010967,-0.20301254,9.850503
351726865604874,0.28267607,-0.18141988,9.817897
351726885461386,0.30680522,-0.14097224,9.802233
351726905317899,0.35158542,-0.13049813,9.761076
351726925174410,0.35684675,-0.15076849,9.757048
351726945025126,0.34635818,-0.17678182,9.730278
351726964881511,0.32439643,-0.19118965,9.711769
351726984737896,0.28931937,-0.21402566,9.730257
351727004594281,0.2783515,-0.21972367,9.745846
351727024450666,0.26763275,-0.20915854,9.742903
351727044303238,0.25614998,-0.21082835,9.773107
351727064159622,0.30653688,-0.22945333,9.773652
351727084015879,0.35620126,-0.21541375,9.805482
351727103872262,0.32788777,-0.2164196,9.859273
351727123728646,0.28818607,-0.23250628,9.859417
351727143584903,0.2607037,-0.2414234,9.851306
351727163429023,0.28991935,-0.20481147,9.870708
351727183285151,0.33631188,-0.22559018,9.82935
351727203141280,0.35228115,-0.22586207,9.761418
351727222997407,0.311683,-0.21812367,9.729926
351727242848196,0.29665998,-0.26025963,9.732482
351727262704069,0.27006894,-0.2773174,9.732602
351727282560070,0.2269037,-0.16732457,9.732437
351727302416071,0.295796,-0.1089495,9.730721
351727322272072,0.36149123,-0.14788452,9.766753
351727342130521,0.3312136,-0.17689846,9.78376
351727361986522,0.29393524,-0.20790422,9.782883
351727381842523,0.2512072,-0.19497177,9.801053
351727401698652,0.20587568,-0.2091046,9.840257
351727421554653,0.24526776,-0.22002363,9.846901
351727441410654,0.33675826,-0.20387338,9.854191
351727461267355,0.32820496,-0.21317947,9.886157
351727481123356,0.33360305,-0.24666691,9.85955
351727500979485,0.30920646,-0.26308602,9.815763
351727520835486,0.2846814,-0.22299235,9.793957
351727540686393,0.31742337,-0.22193389,9.790645
351727560542394,0.30062515,-0.20967796,9.770518
351727580398267,0.31598464,-0.19938798,9.761114
351727600254140,0.32587937,-0.21313174,9.761017
351727620110141,0.33592463,-0.19250908,9.756072
351727639966014,0.33730602,-0.20535538,9.765621
351727659819805,0.30884546,-0.23424417,9.7729225
351727679675550,0.2783103,-0.23316127,9.757173
351727699531403,0.27031162,-0.2637758,9.7844
351727719387148,0.26730213,-0.23883963,9.784731
351727739242893,0.30072284,-0.19050655,9.757316
351727759094974,0.34458423,-0.1394442,9.757903
351727778950588,0.33986428,-0.16691285,9.765631
351727798806205,0.32211214,-0.23656772,9.784217
351727818661948,0.24570581,-0.25127771,9.822434
351727838522148,0.2546936,-0.21167865,9.79535
351727858377893,0.29144776,-0.1896468,9.846092
351727878233636,0.25650367,-0.1899528,9.855203
351727898089380,0.2962632,-0.22419435,9.836928
351727917945125,0.25082448,-0.26219496,9.823743
351727937800868,0.25209755,-0.23573186,9.795544
351727957665475,0.27115017,-0.22644795,9.786341
351727977521348,0.27584708,-0.21165626,9.7946415
351727997377221,0.29115582,-0.24147831,9.79213
351728017233091,0.2470018,-0.26240146,9.794279
351728037089092,0.22112246,-0.24882707,9.795099
351728056946848,0.23870249,-0.2800583,9.790285
351728076802720,0.25362837,-0.27680796,9.7996
351728096658721,0.28057417,-0.25422525,9.81367
351728116514720,0.26776558,-0.22673562,9.789722
351728136376261,0.23998089,-0.22745569,9.774011
351728156232390,0.24771121,-0.2452416,9.790679
351728176088517,0.20908307,-0.22910628,9.800241
351728195944517,0.21624896,-0.2356468,9.803524
351728215800646,0.23272409,-0.28068978,9.832758
351728235656773,0.2399625,-0.3129506,9.795597
351728255510829,0.29752186,-0.2870123,9.771505
351728275366958,0.22006616,-0.21994759,9.817136
351728295222957,0.20037466,-0.24421208,9.808833
351728315079086,0.25345752,-0.26811883,9.740202
351728334935087,0.23231031,-0.23997611,9.704681
351728354795010,0.22294374,-0.2708735,9.75651
351728374651267,0.23099154,-0.3046648,9.775007
351728394507524,0.20907201,-0.28216663,9.772615
351728414363648,0.17598319,-0.2869097,9.836304
351728434219904,0.20184256,-0.29052714,9.838716
351728454076161,0.23873404,-0.30109093,9.751923
351728473940963,0.1877142,-0.28412962,9.739056
351728493797475,0.2149076,-0.28664896,9.777242
351728513653860,0.21732807,-0.28939986,9.78429
351728533510371,0.23056164,-0.2350872,9.786438
351728553363722,0.3124244,-0.21776871,9.8213215
351728573220107,0.2938953,-0.25303572,9.812581
351728593076618,0.18116306,-0.24800174,9.803651
351728612933003,0.14084603,-0.25689188,9.815347
351728632789388,0.1718815,-0.28347704,9.834932
351728652652581,0.18983608,-0.28948283,9.805943
351728672509222,0.25672215,-0.2646319,9.799876
351728692365735,0.30999225,-0.23701078,9.805382
351728712222376,0.30545533,-0.21332556,9.760663
351728732078889,0.21832724,-0.22547746,9.747803
351728751935530,0.20369229,-0.23411998,9.761899
351728771788447,0.24542491,-0.23559514,9.795175
351728791644831,0.25530884,-0.22919922,9.789685
351728811501344,0.23121472,-0.22086622,9.799172
351728831357727,0.24140032,-0.25486737,9.822713
351728851217281,0.2423342,-0.28067115,9.817707
351728871073794,0.20690933,-0.22513646,9.784387
351728890930177,0.22443593,-0.1934534,9.794837
351728910786689,0.25908354,-0.20944683,9.800358
351728930643202,0.2480259,-0.19915728,9.8187895
351728950492576,0.20859942,-0.21088599,9.80992
351728970348832,0.26140442,-0.22251238,9.807346
351728990205217,0.27831513,-0.23788363,9.790589
351729010061600,0.261228,-0.2053227,9.795583
351729029917857,0.27667764,-0.19231217,9.777205
351729049774242,0.26520905,-0.22645311,9.766804
351729069621361,0.2430365,-0.2172686,9.764965
351729089477617,0.2213683,-0.1601111,9.78223
351729109333746,0.2574834,-0.1541611,9.76838
351729129190001,0.29833487,-0.18918441,9.774319
351729149043651,0.26788384,-0.19744775,9.773091
351729168899780,0.2547707,-0.18393776,9.794937
351729188755907,0.24674487,-0.20216647,9.800676
351729208612035,0.24539155,-0.18790351,9.807865
351729228468036,0.22752231,-0.18014306,9.823541
351729248324163,0.28253046,-0.16583107,9.815304
351729268173138,0.2577184,-0.14428636,9.804497
351729288029011,0.2314479,-0.13565847,9.812692
351729307885012,0.29284313,-0.1763101,9.794021
351729327741013,0.2766897,-0.1832252,9.779614
351729347597014,0.25508526,-0.15249,9.787892
351729367446479,0.28135574,-0.15839452,9.814628
351729387302224,0.25262073,-0.22202417,9.787403
351729407158097,0.20377515,-0.22862245,9.798756
351729427013842,0.25588572,-0.17063025,9.806058
351729446868649,0.299927,-0.14900005,9.792876
351729466724394,0.31427917,-0.122262955,9.742841
351729486580139,0.29530728,-0.16185056,9.7432995
351729506435884,0.26846626,-0.21861835,9.786317
351729526291629,0.21749547,-0.23962817,9.816528
351729546147246,0.25767162,-0.20861764,9.802779
351729566009381,0.28546682,-0.19168754,9.812462
351729585865254,0.32456473,-0.19368897,9.806213
351729605721127,0.2929969,-0.20073086,9.793626
351729625577000,0.2609826,-0.19759479,9.790588
351729645432873,0.26104409,-0.19634818,9.800673
351729665292812,0.2498186,-0.16617455,9.789617
351729685148685,0.3086889,-0.14672872,9.801074
351729705004686,0.32616672,-0.15688936,9.797105
351729724860559,0.29502973,-0.18682739,9.777104
351729744710533,0.22286409,-0.21542089,9.778757
351729764566278,0.20330445,-0.20191716,9.795093
351729784422149,0.23398618,-0.19002867,9.804444
351729804277893,0.24991545,-0.19036986,9.773408
351729824133766,0.2544591,-0.19360091,9.758341
351729843989509,0.25362867,-0.21576265,9.763718
351729863843884,0.19637707,-0.25355804,9.76163
351729883699629,0.17803097,-0.22505853,9.780446
351729903555372,0.2148737,-0.22327526,9.796849
351729923411116,0.22430478,-0.22874798,9.811414
351729943266861,0.2125013,-0.2173354,9.824749
351729963122851,0.2120096,-0.22211352,9.826445
351729982978595,0.16464242,-0.24627434,9.8267975
351730002834212,0.15331824,-0.2629149,9.822402
351730022689957,0.18515518,-0.27121562,9.804434
351730042545702,0.19472855,-0.23493421,9.778139
351730062401319,0.2513958,-0.2134685,9.763598
351730082259285,0.25985223,-0.21318392,9.763075
351730102115029,0.2036206,-0.24899295,9.795802
351730121970902,0.13988946,-0.2891386,9.805366
351730141826645,0.11083974,-0.3112886,9.802669
351730161686961,0.11346081,-0.2856863,9.808021
351730181542706,0.15828282,-0.28886685,9.815204
351730201398577,0.20527893,-0.30311355,9.816433
351730221254449,0.18860845,-0.2782127,9.796526
351730241110194,0.18129231,-0.27377275,9.8038025
351730260972308,0.24489279,-0.2372801,9.795791
351730280828309,0.22329201,-0.2275867,9.786128
351730300684310,0.24098226,-0.1818491,9.791872
351730320540311,0.27150863,-0.19183186,9.797318
351730340396312,0.22930951,-0.20944348,9.8098755
351730360252313,0.23165718,-0.22403307,9.789989
351730380117266,0.19425665,-0.21244232,9.803898
351730399973523,0.17949241,-0.19354293,9.791749
351730419829652,0.24248435,-0.23013139,9.76026
351730439685909,0.21663421,-0.20003936,9.795998
351730459554264,0.25344035,-0.17259791,9.772708
351730479410905,0.28136736,-0.19612077,9.753167
351730499267418,0.19120717,-0.19698244,9.765078
351730519123931,0.19338919,-0.22701043,9.75679
351730538980444,0.2086761,-0.23893875,9.777732
351730558834619,0.21225189,-0.22305273,9.7910185
351730578691132,0.27495676,-0.20219812,9.805331
351730598547645,0.2528764,-0.19313024,9.815111
351730618404158,0.23172586,-0.21243677,9.819279
351730638260671,0.19188786,-0.22332317,9.83093
351730658117184,0.21675716,-0.23554133,9.798694
351730677972757,0.22962347,-0.22425659,9.80203
351730697829142,0.2054288,-0.21094361,9.812482
351730717685655,0.24519023,-0.21580908,9.797669
351730737542146,0.24431996,-0.17231199,9.754097
351730757395154,0.22634745,-0.21280807,9.7642
351730777251539,0.24594407,-0.28227943,9.795398
351730797104859,0.20241459,-0.28503242,9.823529
351730816961243,0.17814095,-0.21389198,9.853298
351730836817756,0.20183367,-0.21057191,9.850656
351730856674139,0.23845813,-0.21323338,9.827449
351730876522287,0.23960406,-0.20247193,9.807433
351730896378544,0.2371848,-0.20600529,9.801663
351730916234799,0.27048296,-0.20315942,9.799631
351730936091055,0.22257748,-0.16047975,9.811695
351730955947312,0.2359217,-0.12977658,9.7722225
351730975801039,0.33385962,-0.1447243,9.705641
351730995657296,0.29368508,-0.16309734,9.736477
351731015513425,0.2723993,-0.16455302,9.762008
351731035369678,0.2668028,-0.1754658,9.769216
351731055217329,0.18648255,-0.16978875,9.822526
351731075073330,0.20922776,-0.22012231,9.847546
351731094929457,0.22404206,-0.26236758,9.854388
351731114785457,0.21239786,-0.20005925,9.822577
351731134641458,0.24168207,-0.15897886,9.754233
351731154497457,0.26556417,-0.13729429,9.712728
351731174356432,0.27130392,-0.11669207,9.745061
351731194212561,0.33295742,-0.14714158,9.766035
351731214068560,0.28972003,-0.10620461,9.800539
351731233924689,0.2560685,-0.14114422,9.814247
351731253780818,0.25509363,-0.1934298,9.81542
351731273631815,0.16986004,-0.21657845,9.817918
351731293487816,0.18536215,-0.19624655,9.798162
351731313343945,0.2304336,-0.18967773,9.76654
351731333199946,0.23609771,-0.15726186,9.80783
351731353052817,0.30186877,-0.10273194,9.804065
351731372908690,0.34874645,-0.07486658,9.769645
351731392764563,0.30563205,-0.07761258,9.807028
351731412620436,0.2916602,-0.1609125,9.828219
351731432476437,0.24532086,-0.20725173,9.826918
351731452332310,0.17577012,-0.1637201,9.836596
351731472191939,0.21841796,-0.16576019,9.805536
351731492047812,0.2662658,-0.1652488,9.784956
351731511903813,0.23877634,-0.15064241,9.7676735
351731531759686,0.2319687,-0.17300636,9.752963
351731551615559,0.25775048,-0.16966988,9.751946
351731571468054,0.27111873,-0.17178573,9.756776
351731591323927,0.24230562,-0.16707478,9.786342
351731611179800,0.22589065,-0.13712585,9.806896
351731631035545,0.25140443,-0.13709156,9.805177
351731650891418,0.23779006,-0.15541828,9.82296
351731670747291,0.25971162,-0.13812372,9.814988
351731690596533,0.28419247,-0.14743131,9.811481
351731710452150,0.21691826,-0.15261164,9.790559
351731730307767,0.2446253,-0.16380519,9.767299
351731750163512,0.25067493,-0.16903153,9.771347
351731770018089,0.24486451,-0.15061554,9.762715
351731789873706,0.2959386,-0.13924599,9.781832
351731809729321,0.28450698,-0.14666975,9.777552
351731829584937,0.25334185,-0.1735552,9.795082
351731849440554,0.2401266,-0.18062852,9.8126545
351731869302094,0.21277933,-0.17254852,9.813946
351731889157710,0.18339628,-0.14617695,9.802168
351731909013455,0.19487198,-0.14978461,9.804272
351731928869070,0.24714258,-0.18016213,9.788855
351731948724814,0.25820836,-0.17621765,9.77601
351731968580559,0.26650047,-0.17051497,9.758031
351731988442862,0.27490887,-0.16077805,9.819242
351732008298735,0.2360278,-0.15664491,9.813148
351732028154608,0.20860234,-0.1391812,9.807951
351732048010477,0.21774605,-0.15347315,9.809002
351732067870861,0.24790286,-0.19538921,9.83149
351732087726862,0.23401165,-0.23215194,9.859902
351732107582861,0.14374048,-0.23284455,9.813969
351732127438861,0.18190715,-0.18429379,9.756112
351732147294862,0.215478,-0.18983364,9.757117
351732167150831,0.22181302,-0.20015809,9.764568
351732187006831,0.2396546,-0.21021609,9.763644
351732206862832,0.2087279,-0.20733358,9.75963
351732226718959,0.18695572,-0.22164863,9.7690735
351732246574959,0.17025205,-0.23467423,9.79029
351732266430960,0.16974719,-0.19474058,9.776133
351732286293895,0.13235809,-0.23341055,9.79883
351732306150024,0.11588447,-0.2469986,9.80659
351732326006281,0.1094839,-0.24719167,9.800797
351732345862538,0.09554537,-0.25460207,9.80258
351732365721161,0.110928714,-0.26786906,9.809791
351732385577418,0.14428724,-0.27996233,9.795121
351732405433675,0.10924094,-0.2472607,9.817899
351732425289932,0.11431663,-0.24589917,9.831058
351732445146189,0.094665006,-0.24445885,9.799255
351732465007548,0.08330308,-0.25452816,9.771549
351732484863805,0.11210842,-0.26968062,9.772904
351732504720190,0.13839772,-0.25986522,9.768287
351732524576575,0.13833298,-0.21104692,9.803366
351732544432960,0.139452,-0.23516762,9.801942
351732564289345,0.11523717,-0.23983873,9.773405
351732584145504,0.092335775,-0.22768438,9.79929
351732604001889,0.122533716,-0.2577307,9.820394
351732623858274,0.13238099,-0.27339244,9.787265
351732643714787,0.089827865,-0.25979775,9.781348
351732663569306,0.13641478,-0.2335423,9.804254
351732683425563,0.15459083,-0.2234633,9.788789
351732703281948,0.14675581,-0.19992608,9.78676
351732723138333,0.15565787,-0.24180013,9.7981205
351732742994590,0.11833827,-0.26923546,9.810561
351732762850953,0.074078426,-0.2661779,9.8247
351732782705960,0.09390363,-0.25527814,9.8344345
351732802562345,0.121821076,-0.2405316,9.83087
351732822418728,0.112842344,-0.24267471,9.798287
351732842275112,0.13368897,-0.23997924,9.78453
351732862131497,0.15278769,-0.24856909,9.778401
351732881971522,0.15260758,-0.29177004,9.771561
351732901827650,0.09741264,-0.25376445,9.796697
351732921683651,0.124593526,-0.21300474,9.794891
351732941539650,0.17102903,-0.23255485,9.760896
351732961394980,0.13222656,-0.23947307,9.782708
351732981250981,0.16543078,-0.23421063,9.800301
351733001106982,0.16214333,-0.22166194,9.794601
351733020962983,0.13443135,-0.20469229,9.8157425
351733040818984,0.1189259,-0.22504437,9.854353
351733060674985,0.100082114,-0.2731551,9.860943
351733080527555,0.09764311,-0.265869,9.807943
351733100383556,0.0798563,-0.2221091,9.773651
351733120239427,0.13942192,-0.21081975,9.766334
351733140095427,0.17540906,-0.2158044,9.750365
351733159951428,0.15548055,-0.20908026,9.744082
351733179801102,0.15050976,-0.21417908,9.724802
351733199656974,0.16969503,-0.23966473,9.744349
351733219512847,0.13673814,-0.22768483,9.7667675
351733239368590,0.18060797,-0.21520591,9.776764
351733259223101,0.18383536,-0.20897703,9.790208
351733279078846,0.1366791,-0.17806302,9.848418
351733298934461,0.119355954,-0.23132876,9.836904
351733318790205,0.13240601,-0.2770693,9.7858515
351733338645950,0.10648875,-0.23847915,9.83834
351733358501693,0.120817006,-0.19680512,9.849401
351733378353230,0.18912008,-0.20152198,9.787797
351733398208847,0.17877604,-0.22123805,9.753709
351733418064462,0.17966396,-0.25191957,9.757206
351733437920078,0.17985095,-0.28499538,9.78012
351733457775567,0.12651882,-0.21302094,9.81098
351733477640040,0.119610645,-0.20902114,9.822972
351733497495784,0.12363461,-0.25232175,9.820463
351733517351529,0.13706365,-0.25028068,9.795478
351733537207272,0.16456918,-0.2267941,9.777382
351733557063016,0.1538734,-0.22285114,9.813082
351733576918761,0.115951106,-0.2369063,9.838068
351733596773212,0.113880165,-0.22671567,9.844797
351733616628956,0.13873537,-0.23373461,9.8705015
351733636484701,0.18654169,-0.23719779,9.794558
351733656340316,0.20372304,-0.2292216,9.699811
351733676194579,0.12494892,-0.22063637,9.768033
351733696050324,0.07498947,-0.24227156,9.770731
351733715905939,0.10247106,-0.24445833,9.782698
351733735761683,0.12682678,-0.23312426,9.82534
351733755617300,0.20525593,-0.2415115,9.828161
351733775475012,0.20866714,-0.24092898,9.83085
351733795330628,0.14072709,-0.19105235,9.829316
351733815186373,0.09507858,-0.20428465,9.775113
351733835041988,0.0682277,-0.20829259,9.715453
351733854897732,0.10752536,-0.20632122,9.713197
351733874753349,0.1863157,-0.24300833,9.735678
351733894612000,0.17025557,-0.21337467,9.760749
351733914467744,0.17141014,-0.19100694,9.813474
351733934323489,0.15466134,-0.22702095,9.84433
351733954179232,0.14736253,-0.2592204,9.761931
351733974041091,0.07753091,-0.22754547,9.747622
351733993896964,0.071230546,-0.19542642,9.806397
351734013752835,0.16692704,-0.2300285,9.796488
351734033608707,0.16710414,-0.20602824,9.786226
351734053464580,0.2209484,-0.17256024,9.837609
351734073326102,0.26273206,-0.24116307,9.861922
351734093182230,0.17712572,-0.24315394,9.864038
351734113038231,0.05944929,-0.19539192,9.876056
351734132894358,0.05919933,-0.20056757,9.82443
351734152750358,0.07403057,-0.24448206,9.757681
351734172606359,0.12223379,-0.21443716,9.771134
351734192461622,0.19654424,-0.23786016,9.778612
351734212317750,0.21737157,-0.26475385,9.744133
351734232173751,0.17088248,-0.20470382,9.749256
351734252029878,0.12296759,-0.1870085,9.792698
351734271886679,0.14860338,-0.19214989,9.78187
351734291742808,0.16337837,-0.1839331,9.770342
351734311598935,0.13985236,-0.1944993,9.804932
351734331455063,0.16680634,-0.23204501,9.803715
351734351311192,0.1317225,-0.21858892,9.782582
351734371171704,0.079554915,-0.20395252,9.795402
351734391027960,0.12747157,-0.20725574,9.82608
351734410884345,0.17915784,-0.20336568,9.81261
351734430740600,0.19464038,-0.15844291,9.80768
351734450596856,0.21630928,-0.15968473,9.79645
351734470453113,0.16106479,-0.21054684,9.783788
351734490311843,0.090502895,-0.21270369,9.822913
351734510168099,0.12134357,-0.19744451,9.794504
351734530024356,0.15291467,-0.17999865,9.769137
351734549880611,0.1786926,-0.15436639,9.788353
351734569740933,0.21756151,-0.1787637,9.775239
351734589597318,0.1900967,-0.20115605,9.738911
351734609453701,0.13627164,-0.185731,9.758202
351734629310085,0.117559984,-0.2166698,9.801747
351734649166470,0.11525821,-0.19379288,9.798499
351734669022853,0.13785557,-0.14249748,9.7895975
351734688875019,0.17943305,-0.15869713,9.792294
351734708731276,0.20257384,-0.23297751,9.826647
351734728587659,0.17931236,-0.23217739,9.84219
351734748443915,0.101013295,-0.19109093,9.847596
351734768300172,0.13292794,-0.19845305,9.844223
351734788156811,0.1543994,-0.234022,9.83026
351734808011761,0.14453192,-0.19371788,9.806331
351734827868018,0.19336466,-0.17070442,9.788579
351734847724273,0.18926999,-0.20496099,9.76831
351734867577536,0.12947719,-0.24489804,9.7503805
351734887433793,0.11424486,-0.20490505,9.773191
351734907290048,0.14911415,-0.19837834,9.741091
351734927146304,0.15020663,-0.18799448,9.757034
351734947002433,0.12958604,-0.19913636,9.79431
351734966858688,0.13862652,-0.20974785,9.807802
351734986707191,0.1221249,-0.19285975,9.79931
351735006563192,0.10639191,-0.20546716,9.839325
351735026419191,0.15801103,-0.23265496,9.847253
351735046275319,0.1470782,-0.19985898,9.855022
351735066131320,0.12363408,-0.18598343,9.871893
351735085988130,0.13286568,-0.2052214,9.828756
351735105844258,0.09665718,-0.23524612,9.779409
351735125700387,0.10559537,-0.2192686,9.783247
351735145556514,0.15580589,-0.21838866,9.729821
351735165407234,0.16040374,-0.18793622,9.7011
351735185263235,0.16089684,-0.184059,9.709165
351735205119106,0.19225639,-0.1977814,9.734993
351735224975106,0.15667939,-0.2030227,9.744325
351735244831107,0.104223385,-0.22228208,9.771168
351735264687106,0.07583249,-0.2210095,9.849056
351735284539199,0.07046917,-0.2171475,9.834616
351735304395072,0.081301905,-0.21060503,9.837104
351735324250943,0.09880636,-0.18653356,9.844143
351735344106815,0.14534006,-0.22936702,9.834876
351735363962688,0.14419074,-0.26896137,9.818376
351735383814695,0.085657,-0.22498396,9.817889
351735403670567,0.11492079,-0.23514007,9.801505
351735423526312,0.079393506,-0.24043937,9.798066
351735443382183,0.109100334,-0.22311464,9.764862
351735463238116,0.1390289,-0.23696244,9.752145
351735483093861,0.10520714,-0.20614481,9.749738
351735502949604,0.07356109,-0.23091027,9.751053
351735522805348,0.053045735,-0.22633539,9.773286
351735542661221,0.028151762,-0.21368092,9.786414
351735562516964,0.06383052,-0.23856175,9.81291
351735582369575,0.07377057,-0.23390499,9.812365
351735602225192,0.11036347,-0.21757561,9.800371
351735622080935,0.090509884,-0.18511382,9.796763
351735641936679,0.07562323,-0.21410377,9.834183
351735661792424,0.081563935,-0.24784914,9.836938
351735681646198,0.099102475,-0.19204026,9.832724
351735701501814,0.12060664,-0.20902911,9.808142
351735721357559,0.138605,-0.21638456,9.792239
351735741213174,0.09399101,-0.20185538,9.775638
351735761059068,0.08732797,-0.21733573,9.759802
351735780914429,0.079359226,-0.20849246,9.740598
351735800769916,0.06438001,-0.19365413,9.735397
351735820625276,0.09833565,-0.21898946,9.741738
351735840480637,0.10197394,-0.21355395,9.760218
351735860336124,0.10633461,-0.20827326,9.7753105
351735880191740,0.14025706,-0.2390359,9.7689295
351735900047101,0.09592439,-0.23132011,9.823491
351735919902460,0.09675219,-0.20286043,9.864272
351735939757692,0.13164306,-0.18423578,9.85787
351735959613053,0.14915438,-0.16299945,9.819482
351735979474989,0.17884347,-0.1961456,9.775512
351735999330349,0.1788134,-0.25728312,9.809046
351736019185838,0.0817069,-0.21235499,9.806434
351736039041197,0.06324706,-0.180442,9.792837
351736058896685,0.11497393,-0.20480172,9.811128
351736078752174,0.12584606,-0.23071514,9.785744
351736098612848,0.15309937,-0.19633734,9.758552
351736118468464,0.17503823,-0.18966587,9.747679
351736138324081,0.10542633,-0.23294033,9.798357
351736158179568,0.039738208,-0.21163379,9.823882
351736178048033,0.054683913,-0.18073979,9.813971
351736197903906,0.12460991,-0.19868371,9.826049
351736217759777,0.20578796,-0.21069111,9.791303
351736237615649,0.18315238,-0.16122292,9.770625
351736257471522,0.16416961,-0.12948428,9.810671
351736277325447,0.12265987,-0.20159236,9.813338
351736297181319,0.028341006,-0.2275691,9.806812
351736317037192,0.03277348,-0.21060522,9.834682
351736336893063,0.14502972,-0.1957359,9.781797
351736356748807,0.12870066,-0.16847484,9.708507
351736376604680,0.096745014,-0.18450002,9.746088
351736396462995,0.13270456,-0.22829078,9.771984
351736416318995,0.13673492,-0.20884284,9.768327
351736436174868,0.11765071,-0.16725639,9.82714
351736456030867,0.16804713,-0.1903237,9.836139
351736475890913,0.18005711,-0.20022754,9.840355
351736495746914,0.09892126,-0.17564566,9.791505
351736515603041,0.10692685,-0.19161026,9.751122
351736535459041,0.08765078,-0.20700401,9.751623
351736555315042,0.054608375,-0.18659936,9.739161
351736575169950,0.12813927,-0.18086614,9.756161
351736595025950,0.17388093,-0.15227635,9.719816
351736614881951,0.1960033,-0.17411171,9.757652
351736634737950,0.16571343,-0.20237048,9.825155
351736654593950,0.10343858,-0.17795533,9.851928
351736674449951,0.05995353,-0.20372292,9.837639
351736694314081,0.026085932,-0.20851989,9.799338
351736714170209,0.031847227,-0.21218559,9.816151
351736734026466,0.13887033,-0.19418983,9.794105
351736753882593,0.18047658,-0.15611497,9.784251
351736773740342,0.20377308,-0.15476565,9.808763
351736793596599,0.22643448,-0.14720415,9.795318
351736813452854,0.20786107,-0.112986155,9.801199
351736833307555,0.18561463,-0.1468302,9.839525
351736853163812,0.12586364,-0.1992907,9.831294
351736873012326,0.07864808,-0.17902832,9.789121
351736892868454,0.058710486,-0.19488604,9.808968
351736912724583,0.09210743,-0.2073644,9.807434
351736932580710,0.13201286,-0.18024167,9.757808
351736952436710,0.16476618,-0.11190845,9.7536955
351736972292839,0.22430588,-0.13640463,9.75222
351736992151922,0.21597001,-0.1555711,9.75972
351737012008178,0.15746945,-0.14743255,9.7850065
351737031864307,0.16433853,-0.15839198,9.7907915
351737051720562,0.13436961,-0.15143584,9.795683
351737071571838,0.116478376,-0.13706304,9.821801
351737091427967,0.1642328,-0.13837667,9.848701
351737111284094,0.16924456,-0.15031578,9.7970915
351737131140222,0.21963283,-0.10585112,9.767279
351737150996351,0.20311493,-0.09834837,9.811997
351737170852478,0.2062461,-0.10460891,9.805009
351737190708856,0.14853612,-0.08450211,9.777056
351737210564985,0.13576142,-0.08982815,9.770452
351737230421112,0.19426617,-0.14711122,9.784336
351737250277240,0.20130001,-0.14965409,9.777103
351737270133369,0.15288341,-0.13007735,9.788468
351737289981121,0.18506795,-0.12884909,9.783395
351737309837121,0.16508608,-0.15470637,9.787012
351737329692994,0.10620448,-0.16517195,9.808764
351737349548993,0.16891502,-0.16329342,9.788853
351737369400824,0.227802,-0.1710737,9.785539
351737389256697,0.19662818,-0.11044285,9.823157
351737409112442,0.21043068,-0.06790412,9.859506
351737428968187,0.23313302,-0.08831472,9.829638
351737448823932,0.14716552,-0.12653852,9.831897
351737468679805,0.12738955,-0.16192068,9.816271
351737488534842,0.14751434,-0.17886986,9.772284
351737508390587,0.119842395,-0.15689392,9.807099
351737528246325,0.19250959,-0.15262273,9.811225
351737548102069,0.21655004,-0.18166985,9.771623
351737567957814,0.16728127,-0.15541081,9.759268
351737587811768,0.14332718,-0.18921055,9.775913
351737607667384,0.12916255,-0.21182688,9.760991
351737627523129,0.07938162,-0.18539995,9.786812
351737647378872,0.07910205,-0.17625977,9.818831
351737667238470,0.15733765,-0.1897491,9.809073
351737687094215,0.16860591,-0.1673923,9.797164
351737706949958,0.14171985,-0.15170763,9.824983
351737726805702,0.15215985,-0.19255935,9.85731
351737746661447,0.11751115,-0.22753835,9.839645
351737766517190,0.04344823,-0.20780797,9.831043
351737786371337,0.06291917,-0.23544101,9.855901
351737806227082,0.08626137,-0.20691247,9.814477
351737826082953,0.042604808,-0.1492816,9.748478
351737845938697,0.055473857,-0.21725835,9.726263
351737865794442,0.06585108,-0.31791666,9.709017
351737885649324,0.028694974,-0.30100065,9.722267
351737905504940,0.03920008,-0.20572564,9.76442
351737925360685,0.09842493,-0.23216769,9.798929
351737945216428,0.004370876,-0.25267136,9.820143
351737965068638,-0.051568553,-0.25227448,9.845494
351737984924255,0.0031224608,-0.25222462,9.828634
351738004779870,0.0013523952,-0.23393925,9.8158865
351738024635486,-0.003654335,-0.18774712,9.826508
351738044491103,0.050274268,-0.18566497,9.815216
351738064346718,0.08711682,-0.24130619,9.77119
351738084208300,0.08616404,-0.24752074,9.80209
351738104064045,0.061148196,-0.23531753,9.807927
351738123919788,0.052826647,-0.24432746,9.781743
351738143775532,0.004513746,-0.19066656,9.786007
351738163631277,-0.039329864,-0.164312,9.825926
351738183488190,-0.030107714,-0.19828418,9.8208475
351738203343934,-0.02913626,-0.16981445,9.808895
351738223199679,0.020851938,-0.18124606,9.810736
351738243055424,0.047543786,-0.25507483,9.786599
351738262911169,0.033684835,-0.20377506,9.789745
351738282766914,0.040875666,-0.19429716,9.830974
351738302619070,0.043301232,-0.21353345,9.832607
351738322474814,-0.02391978,-0.15093412,9.838212
351738342330559,-0.02570656,-0.16253024,9.851761
351738362186302,0.0020309319,-0.19721241,9.842801
351738382051573,-0.021284508,-0.19814083,9.757229
351738401907574,-0.017675225,-0.21310416,9.761832
351738421763573,-0.031769194,-0.16996269,9.806318
351738441619445,0.0087656425,-0.20228168,9.792075
351738461475446,0.012351278,-0.16831478,9.763173
351738481330494,0.020773504,-0.18212487,9.762974
351738501186366,0.0067390227,-0.3052678,9.745825
351738521042239,-0.045143418,-0.23163857,9.750385
351738540898240,-0.06336245,-0.14670795,9.784391
351738560754113,-0.01874133,-0.19756229,9.784846
351738580609986,-0.02505245,-0.20908146,9.809727
351738600471620,0.010389305,-0.20869097,9.813046
351738620327748,0.018017126,-0.25017723,9.796836
351738640183749,-0.035528347,-0.2187373,9.800873
351738660039748,-0.051654913,-0.15799028,9.844425
351738679903676,-0.028781502,-0.15569513,9.831563
351738699759933,8.5928896E-4,-0.16392346,9.790076
351738719616060,0.019236822,-0.1768059,9.768838
351738739472316,0.02908473,-0.20928802,9.77188
351738759328445,0.073502466,-0.23130208,9.73908
351738779186200,0.053283796,-0.18616042,9.746725
351738799042584,0.027336983,-0.18405919,9.765779
351738818898841,0.029482033,-0.218327,9.738631
351738838753529,-0.008388391,-0.18538979,9.7706995
351738858609785,-0.0030427154,-0.17608161,9.809566
351738878466042,0.032237418,-0.20871048,9.81328
351738898314436,0.010899596,-0.1483317,9.849694
351738918170565,-0.004431992,-0.19382192,9.865078
351738938026694,-0.042338554,-0.20411094,9.825213
351738957882695,-0.051356457,-0.17464378,9.816112
351738977738716,-0.026159277,-0.1724732,9.870011
351738997594845,0.035227142,-0.21952213,9.850979
351739017450974,0.060282152,-0.21224998,9.743834
351739037307097,0.0079787355,-0.13630535,9.771719
351739057163226,-0.014460656,-0.21777153,9.770619
351739077019353,-0.026969124,-0.25920686,9.697459
351739096874151,-0.026155734,-0.13136359,9.756547
351739116730280,0.016541371,-0.20732847,9.844583
351739136586407,-0.017980149,-0.2796238,9.8698015
351739156442535,-0.07932566,-0.16361438,9.858983
351739176298536,-0.07369185,-0.12682694,9.892215
351739196150250,0.0106439255,-0.23753566,9.814663
351739216006250,-0.03189124,-0.16714719,9.728682
351739235862251,-0.020660257,-0.16614677,9.694237
351739255718250,0.03262432,-0.29803807,9.692492
351739275574091,0.0031378968,-0.23250623,9.745926
351739295430220,0.0030577632,-0.15599042,9.815641
351739315286221,0.035817616,-0.19653845,9.811308
351739335142350,3.1078604E-4,-0.20859653,9.798667
351739354998351,-0.08984287,-0.18483429,9.82004
351739374854352,-0.09232362,-0.19023265,9.792228
351739394702417,-0.05728595,-0.1673723,9.783634
351739414558290,0.008387039,-0.18549211,9.814293
351739434414163,0.030075656,-0.20720308,9.792234
351739454270036,0.05013349,-0.23154713,9.774546
351739474125909,0.05007114,-0.21644741,9.775745
351739493984548,0.0049520805,-0.20859551,9.770204
351739513840549,-0.02149312,-0.18739407,9.788865
351739533696422,-0.028723527,-0.17530489,9.827588
351739553552295,-0.008342289,-0.16926129,9.809953
351739573407132,-0.010129187,-0.1682936,9.807242
351739593262877,-0.025815954,-0.15872787,9.8294735
351739613118750,-0.0155636305,-0.18788005,9.814417
351739632974623,-0.0039515723,-0.17715849,9.766131
351739652830496,-0.022446623,-0.17095043,9.782664
351739672686241,-0.013767198,-0.2195558,9.782868
351739692543254,0.002242854,-0.19873399,9.760693
351739712399127,0.04153265,-0.12458362,9.757027
351739732254978,0.0725178,-0.19991261,9.791284
351739752110850,0.08833197,-0.20663765,9.816858
351739771966723,0.0050473013,-0.17107368,9.815625
351739791824230,0.0158872,-0.1764176,9.818417
351739811680102,0.041313246,-0.200391,9.836321
351739831535975,0.025250074,-0.17582802,9.83229
351739851391974,0.050003648,-0.16516466,9.825878
351739871247846,0.06271762,-0.1912733,9.804722
351739891103719,0.018789504,-0.17774706,9.792347
351739910954342,0.024271816,-0.14546199,9.795958
351739930810086,0.12303552,-0.17338373,9.777609
351739950665703,0.13707519,-0.1909873,9.741002
351739970521446,0.08405379,-0.22183765,9.753323
351739990382231,0.049665872,-0.19089724,9.781858
351740010238104,-0.020292947,-0.15667246,9.7724085
351740030093849,-0.07901006,-0.15297396,9.786489
351740049949722,-0.044067845,-0.17675233,9.812569
351740069805595,0.019120455,-0.19543259,9.810071
351740089663215,0.06187243,-0.2129927,9.796605
351740109519087,0.036073063,-0.17325887,9.826917
351740129374960,0.028991813,-0.1832865,9.805132
351740149230831,0.0065163393,-0.18227357,9.767374
351740169086703,-0.0050908704,-0.15066686,9.756626
351740188942576,0.022850271,-0.18975995,9.766345
351740208798808,-0.009853253,-0.2050607,9.768429
351740228654680,-0.029639605,-0.1808695,9.78418
351740248510553,-0.039831303,-0.18217485,9.774721
351740268366424,-0.07903764,-0.17555882,9.782456
351740288228652,-0.097428106,-0.1533246,9.817002
351740308084653,-0.061248977,-0.17926885,9.843071
351740327940780,-0.029590186,-0.19919802,9.809115
351740347796908,-0.027022827,-0.17986202,9.796199
351740367652909,-0.06859739,-0.16596372,9.831964
351740387514078,-0.15185331,-0.12865773,9.823995
351740407370334,-0.17312437,-0.09140741,9.798623
351740427226463,-0.10583828,-0.13655624,9.80969
351740447082718,-0.0286022,-0.211132,9.772041
351740466938975,-0.013136803,-0.24055152,9.760453
351740486795104,-0.03117173,-0.22312732,9.781243
351740506649587,-0.07670054,-0.21823604,9.806071
351740526505841,-0.08485403,-0.13885492,9.819379
351740546361970,-0.056260746,-0.09361245,9.837716
351740566218097,-0.07575013,-0.15572388,9.839217
351740586077608,-0.09188123,-0.1872421,9.793927
351740605933865,-0.07107436,-0.18930703,9.761547
351740625790120,0.0014750018,-0.21241082,9.778772
351740645646376,0.004962532,-0.1661836,9.760685
351740665502633,-0.01824625,-0.17192638,9.733766
351740685358888,-0.0973401,-0.13124837,9.754926
351740705220301,-0.09308918,-0.18224339,9.737906
351740725076558,-0.080658995,-0.19179705,9.777052
351740744932943,-0.038719956,-0.13858439,9.830646
351740764789324,-0.026818642,-0.11430972,9.848177
351740784645709,-0.05968972,-0.11064945,9.843829
351740804498217,-0.106964596,-0.1434812,9.808122
351740824354473,-0.13270241,-0.15892138,9.790673
351740844210858,-0.10368599,-0.13928969,9.797024
351740864065340,-0.06286259,-0.15592545,9.828187
351740883912289,-0.060516153,-0.20624006,9.772312
351740903768418,-0.085909635,-0.20719461,9.7278
351740923624545,-0.08693627,-0.18258338,9.753308
351740943480673,-0.09283476,-0.20048666,9.7891
351740963336802,-0.09709997,-0.20105691,9.793087
351740983192929,-0.080011,-0.20373209,9.809637
351741003039994,-0.0715668,-0.24366944,9.802652
351741022895867,-0.088552825,-0.23279177,9.7774105
351741042751868,-0.079096116,-0.11311053,9.778764
351741062607741,-0.021163538,-0.17842926,9.788667
351741082463614,-0.0015652534,-0.25754616,9.777743
351741102314516,-0.035706494,-0.19823553,9.772647
351741122170388,-0.04454299,-0.18065497,9.761882
351741142026261,-0.03708053,-0.20177309,9.745542
351741161882004,-0.037631944,-0.1701384,9.715235
351741181737084,-0.041284602,-0.13817658,9.69625
351741201592829,-0.02518842,-0.22782254,9.65423
351741221448700,0.04207454,-0.31449142,9.608673
351741241304444,0.05199823,-0.26309854,9.632585
351741261160189,0.06629747,-0.22525445,9.63964
351741281015932,0.05279257,-0.19326884,9.625894
351741300862447,0.005357076,-0.07141426,9.650845
351741320718064,-0.029745996,-0.06937179,9.68275
351741340573679,-0.12695569,-0.13578553,9.642097
351741360429296,-0.088613175,-0.15368888,9.598865
351741380284785,-0.008846878,-0.14673692,9.5822115
351741400135904,0.0294046,-0.16926637,9.565893
351741419991393,0.00878418,-0.09866266,9.55963
351741439846882,-0.059103582,-0.13118152,9.585996
351741459702371,-0.10288372,-0.17090479,9.602892
351741479552058,-0.091806,-0.12373638,9.578853
351741499407291,-0.07635235,-0.072684735,9.548463
351741519262652,-0.07737213,-0.14183246,9.603926
351741539117885,-0.102679186,-0.17794757,9.590599
351741558973246,-0.115010045,-0.21006581,9.516405
351741578828479,-0.044682935,-0.14981392,9.493322
351741598685174,0.013172359,-0.120204024,9.474524
351741618540535,-0.014976601,-0.19574562,9.47487
351741638395768,-0.10523196,-0.1764711,9.506654
351741658251129,-0.16615397,-0.14358738,9.5082655
351741678106490,-0.17870136,-0.14323837,9.52512
351741697965117,-0.13397665,-0.11668516,9.527917
351741717820350,-0.05778965,-0.15162551,9.49041
351741737675711,-0.015237306,-0.121740334,9.414271
351741757531055,-0.01620998,-0.1447238,9.291172
351741777386415,-0.085582346,-0.15652524,9.288648
351741797241648,-0.13945124,-0.14708851,9.313603
351741817089784,-0.11282099,-0.26315793,9.30658
351741836944888,-0.13157022,-0.24301967,9.357591
351741856799993,-0.12536232,-0.14829588,9.39104
351741876655224,-0.11036004,-0.26548597,9.379051
351741896520757,-0.08810828,-0.24249367,9.345643
351741916376118,-0.04262628,-0.11679471,9.314706
351741936231477,-0.03383736,-0.17955677,9.316801
351741956086710,-0.040180728,-0.23431711,9.268057
351741975942071,-0.05209632,-0.25208703,9.278274
351741995803486,-0.11145285,-0.2044234,9.276227
351742015658975,-0.15070395,-0.19330007,9.291904
351742035514464,-0.18435797,-0.0594083,9.361453
351742055369825,-0.20318067,0.076274455,9.291965
351742075225307,-0.24316907,0.049955063,9.3092785
351742095080796,-0.24295989,-0.06791064,9.250025
351742114938008,-0.17718856,-0.16557124,9.138804
351742134793496,-0.05611159,-0.30580387,9.157234
351742154648985,0.06511805,-0.44278663,9.203404
351742174504472,-0.061965395,-0.59303194,9.205772
351742194373340,-0.06677532,-0.4077713,9.246919
351742214229085,-0.10616199,-0.06380311,9.28652
351742234084828,-0.19410552,0.07271538,9.305985
351742253940700,-0.21832596,0.16126373,9.16978
351742273796445,-0.16116667,0.18097088,9.129084
351742293654952,-0.15949862,0.058686208,9.242823
351742313510952,-0.31717286,-0.020363873,9.32574
351742333366825,-0.30671582,-0.04746491,9.245806
351742353222826,-0.24528317,0.017152347,9.148692
351742373078699,-0.15959132,0.10035957,9.199434
351742392934700,0.0419227,0.17562023,9.290986
351742412798315,0.23161238,0.12818862,9.288754
351742432654444,0.21174474,-0.0043754927,9.2068815
351742452510701,-0.15646382,-0.07431632,9.273489
351742472366830,-0.52752167,-0.01625219,9.315198
351742492221721,-0.40598178,-0.03401692,9.17932
351742512077850,0.022374053,-0.14157201,9.099167
351742531933979,-0.012016371,-0.05509345,9.193369
351742551790108,-0.27978638,0.163005,9.269394
351742571646237,-0.21258706,0.45156687,9.148919
351742591502366,0.15590808,0.3146522,9.087323
351742611361237,-0.088499434,0.039495107,9.356888
351742631217494,-0.57835764,0.17875537,9.295607
351742651073623,-0.09467642,0.03493265,9.198677
351742670929880,0.15521634,0.11155123,9.199291
351742690786137,-0.28316617,0.11032913,9.258609
351742710648678,-0.36533496,0.19361939,9.297194
351742730505063,-0.0333974,0.18825647,9.249148
351742750361448,0.009191664,0.012225424,9.164277
351742770217684,-0.18798131,-0.08539942,9.0970955
351742790076415,-0.27726433,0.051508393,9.101259
351742809932800,-0.30187613,0.23601654,9.186459
351742829789311,-0.22923632,0.21706386,9.241656
351742849645695,-0.08883737,0.22086269,9.177378
351742869502208,0.016125893,0.18195763,9.219848
351742889360632,0.07071171,0.14594513,9.267919
351742909202967,-0.021221481,0.13029943,9.258058
351742929059096,-0.17196964,0.12012268,9.224086
351742948915351,-0.22586249,0.09650577,9.221148
351742968771479,-0.25530115,0.19160599,9.122097
351742988627736,-0.2811018,0.17056754,9.143757
351743008478131,-0.14827393,0.2343691,9.196313
351743028334132,-0.123100854,0.203112,9.173693
351743048190133,-0.13950635,0.17285629,9.069944
351743068046257,-0.07617947,0.12097714,9.022426
351743087893907,-0.45358512,-0.0054203435,9.746069
351743107749780,-0.58350587,0.23200117,9.072173
351743127605651,0.03816319,0.16117468,9.095251
351743147461523,0.23352478,0.3562707,9.095866
351743167317268,-0.6076949,0.075578064,8.947877
351743187173139,-0.5877862,0.12308273,9.432989
351743207030578,0.028591858,0.2871637,9.250803
351743226886451,-0.1428962,0.06973813,9.178368
351743246742322,-0.15710099,0.06851318,9.302566
351743266598195,0.02768764,0.014688087,9.179483
351743286454068,0.058616657,0.0034570699,9.141069
351743306303679,-0.100678705,-0.04908618,9.303083
351743326159424,-0.14246821,-0.20454499,9.279945
351743346015169,-0.033105183,-0.3629749,9.271266
351743365870914,0.09518014,-0.40060243,9.356588
351743385726659,-0.05505713,-0.2892846,9.256835
351743405582404,-0.29661232,-0.1904145,9.22368
351743425430139,-0.067483634,-0.21755178,9.365776
351743445285628,0.031303313,-0.27686885,9.202381
351743465141117,-0.10222936,-0.27445984,9.20078
351743484996606,-0.17523843,-0.1626417,9.174111
351743504850913,-0.16280794,-0.0129311085,9.229648
351743524706402,-0.1746951,0.10035002,9.2557955
351743544561891,-0.16712625,0.15539372,9.234
351743564417252,-0.13294238,0.234562,9.232105
351743584272741,-0.1964914,0.3272223,9.229556
351743604125578,-0.25573313,0.36851904,9.277746
351743623980939,-0.21242914,0.3299385,9.334046
351743643836428,-0.19998823,0.30964887,9.319234
351743663691789,-0.19822621,0.2633727,9.285353
351743683547150,-0.18750933,0.30975205,9.245928
351743703402639,-0.14798383,0.09301995,9.410255
351743723264167,0.026035586,0.17359991,9.191581
351743743119656,-0.36191365,-0.15970464,9.272336
351743762975017,-0.118578546,-0.107007,9.484118
351743782830503,-0.09927022,0.10361824,9.4116125
351743802689258,-0.50223154,-0.116396,9.335297
351743822544875,-0.09520543,0.22050272,9.377334
351743842400490,-0.03868528,0.05434129,9.378747
351743862255978,-0.111307904,0.17353751,9.412397
351743882111595,-0.26558194,0.0059625674,9.595146
351743901971922,-0.0791483,-0.04339686,9.584417
351743921827410,-0.22228278,-0.18785095,9.198816
351743941683027,-0.33071283,0.12335306,9.644338
351743961538642,-0.40859255,0.31790346,9.2465925
351743981394258,-0.5026593,0.0039554136,9.076593
351744001249875,-0.03303675,0.27780607,9.511291
351744021106485,0.37480655,0.17756593,9.595707
351744040962229,0.25125286,-0.18670847,9.461788
351744060817846,-0.13065395,-0.33398464,9.405032
351744080673461,-0.08691093,-0.41831717,9.590581
351744100530421,-0.039571155,-0.48225483,9.670006
351744120386038,-0.47641528,-0.52093095,9.288313
351744140241653,-0.63032913,-0.1972949,9.434263
351744160097269,-0.15865098,0.10445539,9.539834
351744179953014,0.06090291,0.014714847,9.913007
351744199816956,-0.21367607,0.23437713,9.628573
351744219672828,-0.07657566,0.8054022,9.4769945
351744239528701,-0.0040318277,0.39845124,9.616076
351744259384572,0.06678457,0.0375253,9.665088
351744279240444,-0.37984958,0.3569464,9.469148
351744299096189,-0.5309377,0.16506459,9.546036
351744318954327,-0.27178735,0.15191463,9.775504
351744338810327,0.32915184,0.45381653,9.681483
351744358666328,0.8887856,0.35589734,9.588144
351744378522327,1.6093426,1.1541744,9.511326
351744398384374,1.220819,1.3314859,9.647594
351744418240503,1.0916783,1.3212737,9.522769
351744438096760,0.8671366,1.1088362,9.619246
351744457952889,-2.3941839,-4.435152,8.002909
351744477809146,-4.370629,-2.3919454,8.3748665
351744497665275,4.2405763,-2.3560083,13.037002
351744517518248,12.909504,1.5777543,17.07519
351744537374377,2.8579607,0.62858546,7.249611
351744557230378,-2.9732075,-1.8079493,5.125369
351744577086507,-0.827085,1.6620644,8.315016
351744596942636,-2.0102541,4.007617,8.976072
351744616785271,-3.6044998,-1.3672531,8.320751
351744636641144,5.8114038,-6.286022,11.877599
351744656497017,6.6155815,-1.7198455,12.861391
351744676352890,2.131496,-0.33388954,10.32215
351744696208701,0.10035873,5.385496,7.482302
351744716064574,1.9154805,0.92564523,12.440527
351744735920447,1.0644807,-1.1005113,12.156
351744755776175,1.2142833,-1.5997348,11.668771
351744775632048,1.2689673,-1.2262503,11.764534
351744795487791,1.8463728,0.6131078,11.773121
351744815351180,1.7542402,0.9293982,12.3995075
351744835207181,1.1995413,0.5791864,12.697639
351744855063308,1.5848839,0.5885555,11.879989
351744874919308,1.4271322,1.4251283,11.11399
351744894775309,1.1696807,0.34777933,10.78473
351744914628625,2.0779421,-1.3107336,9.988385
351744934484625,2.1134994,-1.2468266,9.343192
351744954340498,2.2552147,5.050687,11.701492
351744974196497,8.01863,2.07015,12.665785
351744994041318,6.293304,1.527183,12.608064
351745013896935,6.78307,-0.20775077,10.361696
351745033752680,2.4073102,0.5069014,10.4199095
351745053608425,-1.3825172,4.524034,14.023205
351745073464042,-3.054423,4.798559,13.646035
351745093319782,-0.7197547,2.5833745,10.173492
351745113167555,-2.0053983,1.6077749,9.165981
351745133023044,-7.6127057,-0.23295428,9.368378
351745152878531,-10.24177,4.0976424,11.652346
351745172734019,-9.280034,3.1891127,11.459111
351745192589508,-6.33958,0.29347467,10.781145
351745212443935,-0.0687929,1.1948309,8.466435
351745232299423,2.6611583,-1.582442,6.3758893
351745252154784,1.8256567,-0.32991558,6.4630995
351745272010143,-1.0009252,1.8867906,7.297246
351745291866897,6.712446,-4.627391,2.7012193
351745311722258,5.779091,-1.8898057,1.4057325
351745331577747,5.8120565,-0.63726586,2.071646
351745351433236,4.8999367,-2.0087478,2.7831116
351745371288725,3.7304468,-2.5193584,3.0371952
351745391144086,3.5800314,-2.1367033,3.7547581
351745411005273,3.1095364,-0.910407,4.2366257
351745430860762,2.9377844,-2.5710974,4.6435266
351745450716379,3.268931,-6.102417,6.830895
351745470571868,5.241122,-7.926187,7.1217933
351745490427357,7.1484146,-4.7109723,6.7096267
351745510285016,-0.89496154,-2.8326018,7.1181445
351745530140633,-2.6802425,-4.4357033,8.295651
351745549996250,-0.6302328,-4.6146946,8.343471
351745569851867,1.7261486,-4.8472166,8.918557
351745589707484,3.2856328,-4.5679164,8.862332
351745609563101,4.677674,-2.8314812,7.2600746
351745629417718,5.482289,-2.1385612,5.4572163
351745649273335,4.0891614,-4.674569,5.957963
351745669128824,2.4618514,-4.315043,7.515692
351745688984441,0.5964052,-1.6356527,13.681171
351745708847098,0.13880438,3.1652842,13.329193
351745728702843,1.0255548,2.7458181,9.840469
351745748558460,1.2034023,-0.724985,8.778858
351745768414182,1.5012473,-4.326044,9.811804
351745788269927,1.2728567,-2.3257375,10.79132
351745808129809,0.5780661,-0.29789218,11.653958
351745827985681,-0.09952733,0.27717328,11.007633
351745847841554,0.0278032,0.9484248,10.611742
351745867697297,0.25717968,0.12426615,10.617731
351745887553169,1.3229388,-0.6227013,9.70473
351745907409042,1.636985,0.30829242,9.457515
351745927263543,1.6687975,0.061233602,8.963814
351745947119415,0.9674786,-0.40038517,9.724271
351745966975160,0.13047372,-0.08318303,10.335934
351745986831031,-0.12736668,-0.31714958,10.150494
351746006686593,-0.81877166,0.02345734,9.531645
351746026542466,-2.0516262,0.13663626,9.239368
351746046398337,-1.2575876,-0.6987952,9.532602
351746066254209,-0.3481318,-0.44008607,9.468699
351746086109954,0.6805764,2.0157645,11.211456
351746105968137,4.4873047,2.8861732,12.535527
351746125824137,2.3120406,3.157425,8.260815
351746145680010,0.64236456,3.9231741,5.654418
351746165536009,4.5391927,1.5079927,5.4889116
351746185391881,4.805002,1.5856329,6.0973997
351746205247882,1.7649701,1.9794967,6.830525
351746225097116,-2.7035894,4.3803644,8.403794
351746244952732,-2.612125,3.5574338,9.7817335
351746264808477,-2.8480368,1.7629629,11.746973
351746284664220,-2.9582293,-2.9810045,14.329537
351746304518610,-0.31151786,-2.7867959,11.264166
351746324374355,1.268587,0.19036622,11.26122
351746344230098,0.27903417,-0.50959164,10.419867
351746364085842,1.2710507,-0.7575964,8.533462
351746383941459,1.5001138,-0.2508501,8.549559
351746403801042,1.6210638,-0.30322602,9.095515
351746423656914,1.046793,-0.42969134,10.468353
351746443512787,0.11681138,-0.30525094,11.285596
351746463368658,-0.36861238,1.5488983,11.042869
351746483224530,-0.15529841,0.20068866,9.214525
351746503080403,1.8194098,-0.51113385,8.398947
351746522937067,0.6838588,-0.058678873,9.722498
351746542793067,-0.4992169,-0.17638679,11.154987
351746562648940,0.025895655,-0.06337154,12.357123
351746582504939,1.3088247,-1.2100801,11.955063
351746602353667,0.5962602,-1.0595634,10.304015
351746622209412,0.9017939,0.8855403,8.770143
351746642065155,1.3178289,1.2367762,8.88044
351746661920899,0.9512905,1.2738515,9.018476
351746681776644,0.8888354,1.2047821,8.823119
351746701632259,0.9907328,-0.86672384,9.516241
351746721486467,1.2081555,-2.3866298,10.070949
351746741342084,0.97648054,-1.7697511,10.661207
351746761197699,0.55684054,-0.17346376,10.250922
351746781053315,0.716653,0.051524825,9.753778
351746800908932,1.0956062,-0.33462444,9.5655365
351746820769320,1.1359056,-0.19864869,9.451969
351746840625064,1.1420738,0.054114588,9.28173
351746860480809,1.1450976,0.3713642,9.040828
351746880336552,1.0527058,0.092957,9.110734
351746900191248,0.9000374,-0.3353237,9.430975
351746920046865,0.8049635,-0.5537279,9.946241
351746939905438,0.83698666,-0.3156407,10.048266
351746959761182,0.89541894,-0.21025674,9.5102415
351746979616799,0.8518784,-0.129649,9.66523
351746999472414,0.731496,-0.02785893,10.072706
351747019328830,0.8580023,-0.68623185,10.2132435
351747039184575,1.1125689,-0.9825738,10.0111265
351747059040190,1.0772887,-0.33114883,9.607471
351747078895934,0.89773226,-0.034076,9.658783
351747098751679,0.9734873,-0.09452851,9.676289
351747118601415,1.1695321,-0.37343064,9.44377
351747138457031,0.9413489,-0.30344045,9.551472
351747158312520,0.72833633,0.14984629,9.60987
351747178168135,0.7059651,0.20941553,9.643205
351747198020675,0.50094986,0.4085178,9.679213
351747217876164,0.3891939,0.45815557,9.849128
351747237731651,0.92130536,-0.20062698,9.318024
351747257587139,1.057697,-0.41793922,9.110015
351747277442756,0.846296,-0.43995267,9.695589
351747297298243,0.98106575,-0.31783623,9.474881
351747317154375,0.6044864,0.5788755,9.291585
351747337009864,0.504552,-0.14187482,9.834683
351747356865479,0.80953825,-1.0137007,10.403981
351747376720967,0.83448434,-1.0256581,11.29878
351747396576584,0.94199204,-0.6837485,10.677919
