UPTIMENANO,Ax,Ay,Az
82515919553814,-1.5112573999999999,9.639954,-0.77359134
82515939411222,-1.5280225,9.608819,-0.80233157
82515959268630,-1.4729371,9.592053,-0.9148975
82515979126463,-1.4609618999999998,9.565708,-0.9627979
82515998985121,-1.4226416000000002,9.568104,-0.9364527
82516018842657,-1.4370118,9.618399,-0.8669971
82516038700065,-1.463357,9.6615095,-0.8143066999999999
82516058557601,-1.465752,9.678274,-0.8669971
82516078409675,-1.4801221000000002,9.565708,-0.98435307
82516098267083,-1.453777,9.568104,-0.9963281999999999
82516118124363,-1.4226416000000002,9.553733,-0.88376224
82516137981771,-1.4418018,9.5489435,-0.88376224
82516157839051,-1.4178516,9.625584,-0.92208254
82516177704602,-1.4681469999999999,9.6615095,-0.9651929
82516197562138,-1.4585668999999999,9.651928999999999,-0.9196875
82516217419674,-1.5040723,9.639954,-0.79993653
82516237277210,-1.4753321000000001,9.5489435,-0.9364527
82516257134746,-1.4106666,9.544153,-1.0011181999999998
82516276991966,-1.4968873,9.572892999999999,-0.87897223
82516296849502,-1.5064673000000002,9.608819,-0.80712163
82516316707038,-1.4920973,9.627979,-0.8262818000000001
82516336564446,-1.4992822000000001,9.666299,-0.9196875
82516356421982,-1.3771361999999998,9.651928999999999,-0.91010743
82516376280805,-1.3675561999999999,9.606423,-0.8885523000000001
82516396138341,-1.3651612,9.589659,-0.9651929
82516415995877,-1.4441968,9.582474000000001,-0.92208254
82516435853285,-1.5208374,9.601633999999999,-0.9148975
82516455710821,-1.5016773,9.596844,-0.91010743
82516475566685,-1.4992822000000001,9.608819,-0.9196875
82516495424221,-1.463357,9.630374,-0.9053174
82516515281757,-1.4753321000000001,9.68067,-0.88376224
82516535139165,-1.4346168,9.613608000000001,-0.91250247
82516554996701,-1.4801221000000002,9.613608000000001,-0.9484278
82516574845356,-1.4825171,9.524992999999998,-0.9388476999999998
82516594702636,-1.5016773,9.618399,-0.8813671999999999
82516614559916,-1.4753321000000001,9.620794,-0.8262818000000001
82516634417196,-1.4825171,9.625584,-0.9268726
82516654274476,-1.4825171,9.592053,-0.974773
82516674128848,-1.4825171,9.594449000000001,-0.91729254
82516693986128,-1.4465919,9.663903999999999,-0.8861573
82516713843280,-1.4322218,9.64714,-0.8813671999999999
82516733700560,-1.5136524,9.656719,-0.9412427
82516753557712,-1.5447876,9.623189,-0.9627979
82516773417217,-1.5016773,9.572892999999999,-0.94603276
82516793274497,-1.4322218,9.575289,-0.9388476999999998
82516813131777,-1.3699511999999998,9.656719,-0.98195803
82516832989057,-1.456172,9.678274,-1.0106983
82516852846337,-1.5160475,9.599238,-0.93405765
82516872702172,-1.6070582,9.582474000000001,-0.93405765
82516892559452,-1.4920973,9.649534,-1.0226734
82516912416732,-1.3364209999999999,9.620794,-0.9532178
82516932274012,-1.4513819,9.608819,-0.87178713
82516952131292,-1.453777,9.546548,-1.0083033000000001
82516971982020,-1.4226416000000002,9.599238,-1.0274634
82516991839044,-1.4202466,9.625584,-0.9053174
82517011696068,-1.4250367,9.659114,-0.9436377
82517031553220,-1.4729371,9.697434,-1.0059083
82517051410244,-1.4250367,9.553733,-1.0298585
82517071267372,-1.4992822000000001,9.522598,-1.1304493
82517091124396,-1.5280225,9.541758999999999,-1.1615845
82517110981548,-1.4681469999999999,9.639954,-0.8598120000000001
82517130838572,-1.4920973,9.589659,-0.8167017
82517150695724,-1.4130616000000003,9.616004,-1.094524
82517170555229,-1.3651612,9.580078,-1.1735597
82517190412253,-1.4465919,9.659114,-1.0106983
82517210269405,-1.4274316999999999,9.6686945,-0.8813671999999999
82517230126557,-1.4465919,9.663903999999999,-0.9029224
82517249983709,-1.4370118,9.572892999999999,-0.99393314
82517269837789,-1.4202466,9.522598,-1.1376343
82517289694941,-1.4394068000000002,9.620794,-1.0849438999999999
82517309551965,-1.3771361999999998,9.623189,-0.8382569
82517329409117,-1.4202466,9.659114,-0.8885523000000001
82517349266269,-1.3986914,9.616004,-1.0418334999999999
82517369118148,-1.4202466,9.601633999999999,-1.0753639
82517388975044,-1.4226416000000002,9.608819,-1.0202783000000002
82517408832068,-1.4178516,9.6686945,-0.8382569
82517428688964,-1.3843212999999999,9.683064,-0.91250247
82517448545988,-1.3555812,9.64714,-1.0585986
82517468402884,-1.3531861,9.524992999999998,-1.1208692
82517488260670,-1.3603711,9.589659,-1.0394385
82517508117694,-1.3244458000000001,9.560919,-0.8909473
82517527974590,-1.3747413,9.580078,-0.9053174
82517547831614,-1.3172607,9.632769,-1.0106983
82517567688510,-1.2549903,9.673484,-0.9508228000000001
82517587535440,-1.2741505,9.635164,-0.8646021
82517607392208,-1.2166698999999999,9.616004,-0.8334668
82517627248976,-1.2669654,9.663903999999999,-0.9987232
82517647105616,-1.22146,9.702225,-1.0154883
82517666962384,-1.2358301999999999,9.649534,-0.85023195
82517686818012,-1.2813355,9.618399,-0.91729254
82517706674652,-1.2454101999999998,9.620794,-1.1543995
82517726531292,-1.22625,9.513017999999999,-1.0011181999999998
82517746387932,-1.2909156000000002,9.5633135,-0.8167017
82517766244444,-1.2621753,9.635164,-0.95561284
82517786114681,-1.2454101999999998,9.735755000000001,-1.0394385
82517805971578,-1.2406201000000001,9.742939999999999,-0.85023195
82517825828473,-1.3124708,9.683064,-0.79754156
82517845685497,-1.2813355,9.72378,-0.87178713
82517865542394,-1.1472143999999997,9.6615095,-0.96758795
82517885405792,-1.1855347,9.572892999999999,-1.1424243
82517905262816,-1.2430152,9.546548,-1.0154883
82517925119969,-1.2789403999999998,9.584868,-0.7759864000000001
82517944976992,-1.2669654,9.695039999999999,-0.8167017
82517964838831,-1.22625,9.656719,-1.0011181999999998
82517984696112,-1.2478052,9.580078,-1.0849438999999999
82518004553263,-1.2286451,9.651928999999999,-0.9244776
82518024405558,-1.2070899,9.6686945,-0.87418216
82518044262711,-1.1615845,9.716595,-0.9484278
82518064119990,-1.2406201000000001,9.635164,-0.9316626
82518083980165,-1.2741505,9.589659,-0.8933423
82518103837446,-1.2885206,9.642349000000001,-0.8765772
82518123694725,-1.1927198,9.604028999999999,-0.9364527
82518143552133,-1.1208692,9.692644,-0.9699829
82518163409414,-1.1472143999999997,9.663903999999999,-0.8933423
82518183268447,-1.2382251,9.642349000000001,-0.92926764
82518203125855,-1.2046948999999998,9.639954,-0.85023195
82518222983136,-1.1807446000000001,9.6686945,-0.8262818000000001
82518242840415,-1.1160791,9.6686945,-0.8933423
82518262707069,-1.1663746000000002,9.611214,-0.8813671999999999
82518282564478,-1.1400293,9.551338000000001,-0.89573735
82518302422013,-1.1999048,9.589659,-0.9915381
82518322279549,-1.2981006000000002,9.750125,-0.8813671999999999
82518342137086,-1.2382251,9.843531,-0.60833496
82518361994493,-1.1352394,9.843531,-0.5891748
82518381854156,-1.099314,9.7142,-0.90052736
82518401711821,-1.1352394,9.64714,-1.0729688
82518421569484,-1.1663746000000002,9.575289,-0.95561284
82518441427020,-1.2118799999999998,9.625584,-0.8214916999999999
82518461284685,-1.1304493,9.611214,-0.85023195
82518481137581,-1.1543995,9.575289,-1.0226734
82518500995245,-1.1759547,9.558523,-1.0729688
82518520852782,-1.1639795,9.659114,-0.9915381
82518540710317,-1.1136841999999998,9.6758795,-0.8669971
82518560561250,-1.1064991000000002,9.654325,-0.91729254
82518580418659,-1.2070899,9.623189,-1.1088941
82518600276066,-1.1879296999999998,9.596844,-1.0609937
82518620133474,-1.1831397,9.625584,-0.8598120000000001
82518639990883,-1.1975098,9.7621,-0.8143066999999999
82518659848418,-1.0226734,9.702225,-0.8885523000000001
82518679699852,-1.0538087,9.656719,-1.0011181999999998
82518699557133,-1.1280543,9.604028999999999,-1.0370435
82518719414540,-1.099314,9.5633135,-1.0466236
82518739271820,-1.1783496,9.6615095,-0.96758795
82518759129101,-1.219065,9.6758795,-0.86939216
82518778983320,-1.2310401000000002,9.6615095,-0.96758795
82518798840600,-1.22146,9.637559,-1.0825489
82518818697881,-1.1999048,9.618399,-1.1639795
82518838555160,-1.2717555,9.733359,-1.094524
82518858412568,-1.2454101999999998,9.72857,-0.8646021
82518878269849,-1.2478052,9.618399,-0.91010743
82518898121019,-1.2549903,9.592053,-1.1304493
82518917978171,-1.2502003000000002,9.527389,-1.2118799999999998
82518937835324,-1.2549903,9.594449000000001,-1.1088941
82518957692475,-1.2382251,9.654325,-0.94603276
82518977545417,-1.2717555,9.637559,-1.0346485
82518997402570,-1.2909156000000002,9.616004,-1.1543995
82519017259593,-1.3220508,9.572892999999999,-1.089734
82519037116617,-1.3004956,9.702225,-1.0442286
82519056973642,-1.2478052,9.730965,-1.0322535
82519076827908,-1.3244458000000001,9.649534,-1.0681788
82519096684804,-1.334026,9.644744000000001,-1.089734
82519116541829,-1.2525953,9.541758999999999,-1.1160791
82519136398852,-1.2837305,9.618399,-1.0633887
82519156255748,-1.2861254999999998,9.64714,-0.99393314
82519176112773,-1.2837305,9.654325,-1.0705738
82519195962969,-1.2741505,9.637559,-1.0753639
82519215819737,-1.2525953,9.580078,-1.0753639
82519235676378,-1.2933106,9.656719,-1.1927198
82519255533145,-1.331631,9.721385,-1.0801538
82519275393197,-1.3627661,9.64714,-0.92926764
82519295249838,-1.2933106,9.642349000000001,-0.96758795
82519315106605,-1.2573853000000002,9.5489435,-1.2022998
82519334963245,-1.2909156000000002,9.618399,-1.2478052
82519354820014,-1.2430152,9.639954,-0.9436377
82519374676848,-1.3148658000000002,9.613608000000001,-0.96758795
82519394533616,-1.3148658000000002,9.644744000000001,-1.1448194
82519414390385,-1.2813355,9.620794,-1.1064991000000002
82519434247026,-1.3124708,9.616004,-1.0777588
82519454103792,-1.2525953,9.72857,-0.9987232
82519473960561,-1.2573853000000002,9.64714,-1.1376343
82519493818791,-1.3555812,9.560919,-1.2022998
82519513675559,-1.4106666,9.551338000000001,-1.0083033000000001
82519533532328,-1.1999048,9.596844,-1.0106983
82519553389095,-1.1903248,9.627979,-1.0921290000000001
82519573244351,-1.3507911,9.604028999999999,-1.1663746000000002
82519593100992,-1.3292358999999998,9.73815,-1.094524
82519612957761,-1.2693603999999998,9.580078,-0.92208254
82519632814402,-1.2909156000000002,9.570497999999999,-1.1376343
82519652671171,-1.2813355,9.627979,-1.1400293
82519672527812,-1.2765454,9.620794,-1.0274634
82519692392193,-1.2765454,9.582474000000001,-1.0250684
82519712249090,-1.3436059999999999,9.632769,-1.0394385
82519732105859,-1.3579761000000001,9.687855,-1.0585986
82519751962748,-1.3100758,9.64714,-1.0394385
82519771819517,-1.2789403999999998,9.493857,-1.0729688
82519791679923,-1.2837305,9.604028999999999,-1.0705738
82519811536819,-1.2478052,9.613608000000001,-0.977168
82519831393844,-1.2909156000000002,9.649534,-0.9651929
82519851250739,-1.3196558,9.704619000000001,-0.98435307
82519871111755,-1.2909156000000002,9.666299,-1.0633887
82519890968908,-1.2861254999999998,9.644744000000001,-1.0083033000000001
82519910826059,-1.2957056999999998,9.654325,-0.93405765
82519930683083,-1.2597803,9.589659,-1.0442286
82519950540236,-1.2693603999999998,9.637559,-0.97237796
82519970397387,-1.2813355,9.620794,-0.98195803
82519990253503,-1.3052857,9.651928999999999,-1.1088941
82520010110656,-1.3076807,9.613608000000001,-0.974773
82520029967807,-1.3052857,9.642349000000001,-0.9436377
82520049820277,-1.2837305,9.654325,-0.9436377
82520069677430,-1.2789403999999998,9.707015,-0.86220706
82520089531771,-1.2430152,9.663903999999999,-0.9699829
82520109388795,-1.2406201000000001,9.625584,-1.0490186000000001
82520129245948,-1.2813355,9.659114,-1.0154883
82520149102971,-1.2094848999999999,9.639954,-0.86220706
82520168967248,-1.2909156000000002,9.577683,-0.87178713
82520188824529,-1.2957056999999998,9.517808,-1.0825489
82520208681808,-1.2286451,9.572892999999999,-1.0178833
82520228538960,-1.223855,9.683064,-0.7664063
82520248396241,-1.1927198,9.704619000000001,-0.8669971
82520268253520,-1.2358301999999999,9.685459,-1.0538087
82520288114634,-1.2885206,9.635164,-0.9963281999999999
82520307971915,-1.2070899,9.584868,-0.9316626
82520327829194,-1.1903248,9.541758999999999,-0.9412427
82520347686602,-1.2837305,9.611214,-0.9963281999999999
82520367543883,-1.2765454,9.702225,-0.8310718
82520387402191,-1.3076807,9.730965,-0.79035646
82520407259599,-1.2430152,9.6686945,-0.81191164
82520427116880,-1.1711646,9.683064,-0.9436377
82520446974287,-1.1591895,9.6758795,-0.94603276
82520466830739,-1.1999048,9.685459,-0.7592211999999999
82520486688020,-1.2382251,9.654325,-0.7041358
82520506545299,-1.2741505,9.613608000000001,-0.8286768
82520526402579,-1.3627661,9.64714,-0.90771246
82520546259860,-1.346001,9.695039999999999,-0.92208254
82520566117269,-1.2789403999999998,9.659114,-0.8669971
82520585968028,-1.2573853000000002,9.625584,-0.9029224
82520605825181,-1.2645704,9.620794,-0.92926764
82520625682462,-1.2549903,9.580078,-0.8885523000000001
82520645539609,-1.2861254999999998,9.644744000000001,-0.8286768
82520665396762,-1.2741505,9.656719,-0.8262818000000001
82520685246897,-1.2765454,9.6758795,-0.8765772
82520705103921,-1.2957056999999998,9.630374,-0.8765772
82520724960946,-1.334026,9.630374,-0.852627
82520744818097,-1.3412110000000002,9.613608000000001,-0.84065187
82520764678949,-1.2813355,9.572892999999999,-0.8334668
82520784536102,-1.2933106,9.70941,-0.8861573
82520804393125,-1.3076807,9.721385,-0.91250247
82520824250277,-1.3364209999999999,9.611214,-0.79754156
82520844107302,-1.3436059999999999,9.587264,-0.85023195
82520863964453,-1.2406201000000001,9.623189,-0.92926764
82520883817186,-1.2478052,9.697434,-0.91010743
82520903674339,-1.2741505,9.642349000000001,-0.70174074
82520923531362,-1.3531861,9.620794,-0.8095166
82520943388386,-1.3699511999999998,9.64714,-0.9268726
82520963245411,-1.3028906999999998,9.644744000000001,-0.79035646
82520983096174,-1.3004956,9.649534,-0.73527104
82521002953070,-1.2981006000000002,9.618399,-0.80233157
82521022809967,-1.3292358999999998,9.601633999999999,-0.8286768
82521042666862,-1.3651612,9.726174,-0.78556645
82521062523759,-1.2981006000000002,9.72857,-0.7113208000000001
82521082380784,-1.331631,9.711803999999999,-0.7568262
82521102233430,-1.3052857,9.580078,-0.8214916999999999
82521122090198,-1.3004956,9.491463000000001,-0.91729254
82521141946967,-1.3436059999999999,9.570497999999999,-0.8981324
82521161803862,-1.3244458000000001,9.618399,-0.74724615
82521181654409,-1.3555812,9.77168,-0.6658155
82521201511050,-1.3364209999999999,9.730965,-0.7759864000000001
82521221367689,-1.3196558,9.601633999999999,-0.96758795
82521241224330,-1.3986914,9.611214,-0.9053174
82521261080971,-1.331631,9.580078,-0.732876
82521280941022,-1.346001,9.620794,-0.7927515
82521300797663,-1.3986914,9.695039999999999,-0.84065187
82521320654432,-1.4034815,9.587264,-0.85741705
82521340511073,-1.4513819,9.685459,-0.8047266
82521360367842,-1.3747413,9.716595,-0.79035646
82521380224611,-1.3579761000000001,9.726174,-0.88376224
82521400085414,-1.3939015,9.5489435,-0.8095166
82521419942183,-1.4489869,9.546548,-0.8334668
82521439798952,-1.465752,9.654325,-0.8765772
82521459655721,-1.453777,9.730965,-0.7568262
82521479515440,-1.4801221000000002,9.632769,-0.72569096
82521499372337,-1.4489869,9.611214,-0.8430469
82521519229106,-1.334026,9.5561285,-0.94603276
82521539085875,-1.3627661,9.6615095,-0.8095166
82521558942772,-1.3723463,9.654325,-0.7759864000000001
82521578804015,-1.4034815,9.635164,-0.8047266
82521598660912,-1.3962965,9.697434,-0.81191164
82521618517681,-1.3723463,9.663903999999999,-0.7807764
82521638374578,-1.3891114,9.582474000000001,-0.8430469
82521658231347,-1.3268408999999999,9.568104,-0.80233157
82521678088244,-1.3819263000000002,9.678274,-0.8262818000000001
82521697946166,-1.3843212999999999,9.695039999999999,-0.7664063
82521717802935,-1.3986914,9.582474000000001,-0.76161623
82521737659832,-1.4298267,9.582474000000001,-0.9196875
82521757516601,-1.3244458000000001,9.659114,-0.855022
82521777383356,-1.3388159,9.582474000000001,-0.7232959
82521797240381,-1.3867163999999998,9.644744000000001,-0.7209009
82521817097532,-1.3388159,9.599238,-0.87418216
82521836954556,-1.3819263000000002,9.601633999999999,-0.8813671999999999
82521856811581,-1.3795313,9.687855,-0.7041358
82521876668732,-1.4082716,9.862691,-0.68018556
82521896525811,-1.3555812,9.78605,-0.74724615
82521916382964,-1.3603711,9.596844,-0.7879615
82521936239987,-1.3699511999999998,9.539363,-0.98914313
82521956097139,-1.3004956,9.560919,-0.8765772
82521975954292,-1.3268408999999999,9.498648,-0.62989014
82521995818361,-1.4513819,9.565708,-0.728086
82522015675769,-1.4226416000000002,9.70941,-0.8885523000000001
82522035533050,-1.3388159,9.74773,-0.7089258
82522055390329,-1.3268408999999999,9.663903999999999,-0.76401126
82522075250779,-1.3124708,9.594449000000001,-0.91250247
82522095108316,-1.3723463,9.678274,-0.83586186
82522114965159,-1.3483961000000002,9.604028999999999,-0.6610254
82522134822567,-1.3220508,9.505833,-0.728086
82522154679976,-1.2358301999999999,9.592053,-0.855022
82522174537511,-1.2621753,9.6686945,-0.81909674
82522194395260,-1.2933106,9.697434,-0.6610254
82522214252669,-1.3004956,9.637559,-0.6322852
82522234110204,-1.3531861,9.639954,-0.79993653
82522253967613,-1.3100758,9.716595,-0.6825806
82522273825150,-1.3220508,9.690249,-0.62031007
82522293682503,-1.3052857,9.685459,-0.7448511
82522313539912,-1.3124708,9.7142,-0.74724615
82522333397449,-1.3028906999999998,9.642349000000001,-0.70174074
82522353254858,-1.2813355,9.582474000000001,-0.76401126
82522373117137,-1.2549903,9.616004,-0.8286768
82522392974802,-1.2885206,9.659114,-0.76880133
82522412832467,-1.3052857,9.671089,-0.6610254
82522432690004,-1.346001,9.627979,-0.74724615
82522452547669,-1.2957056999999998,9.685459,-0.8214916999999999
82522472405334,-1.2957056999999998,9.6686945,-0.74724615
82522492259359,-1.2669654,9.6758795,-0.7161109
82522512116896,-1.2909156000000002,9.75252,-0.7209009
82522531974433,-1.2861254999999998,9.718989,-0.852627
82522551831970,-1.3076807,9.70941,-0.9244776
82522571689635,-1.3483961000000002,9.608819,-0.76880133
82522591535314,-1.3196558,9.608819,-0.72569096
82522611392723,-1.1520045,9.697434,-0.8598120000000001
82522631250004,-1.2430152,9.489068,-1.0059083
82522651107285,-1.3483961000000002,9.522598,-0.8598120000000001
82522670964694,-1.3028906999999998,9.7142,-0.6993457
82522690821975,-1.223855,9.795630000000001,-0.83586186
82522710672848,-1.2430152,9.685459,-0.87897223
82522730530129,-1.3771361999999998,9.587264,-0.91010743
82522750387282,-1.3220508,9.604028999999999,-0.9364527
82522770244435,-1.2981006000000002,9.623189,-0.81909674
82522790096166,-1.3028906999999998,9.627979,-0.83586186
82522809953191,-1.2909156000000002,9.687855,-0.93405765
82522829810214,-1.2621753,9.611214,-0.8981324
82522849667238,-1.2765454,9.616004,-0.81909674
82522869524135,-1.2981006000000002,9.618399,-0.92208254
82522889379977,-1.3100758,9.716595,-1.0011181999999998
82522909236873,-1.3172607,9.73815,-0.80233157
82522929093898,-1.3603711,9.6758795,-0.74724615
82522948950793,-1.3388159,9.606423,-0.8813671999999999
82522968807689,-1.2693603999999998,9.639954,-0.91250247
82522988664714,-1.2406201000000001,9.649534,-0.89573735
82523008524456,-1.2549903,9.611214,-0.92926764
82523028381480,-1.3627661,9.582474000000001,-0.90771246
82523048238377,-1.2933106,9.613608000000001,-0.81909674
82523068095400,-1.2981006000000002,9.623189,-0.81909674
82523087952394,-1.3268408999999999,9.637559,-0.96040285
82523107809291,-1.3220508,9.74773,-0.8598120000000001
82523127666314,-1.2837305,9.671089,-0.8214916999999999
82523147523210,-1.2789403999999998,9.637559,-0.9148975
82523167380107,-1.3124708,9.6758795,-0.92926764
82523187241075,-1.2789403999999998,9.620794,-0.8286768
82523207098099,-1.3388159,9.654325,-0.80233157
82523226955124,-1.3412110000000002,9.596844,-0.90052736
82523246812147,-1.2789403999999998,9.683064,-0.8478370000000001
82523266669171,-1.22625,9.584868,-0.73527104
82523286526196,-1.2549903,9.592053,-1.0011181999999998
82523306378780,-1.2765454,9.74773,-1.0154883
82523326235676,-1.2981006000000002,9.74773,-0.76880133
82523346092573,-1.3412110000000002,9.536968,-0.79035646
82523365949596,-1.3292358999999998,9.577683,-1.0106983
82523385809723,-1.2693603999999998,9.6615095,-0.9627979
82523405666748,-1.2382251,9.601633999999999,-0.76161623
82523425523773,-1.3028906999999998,9.616004,-0.79754156
82523445380798,-1.22625,9.637559,-0.9364527
82523465237823,-1.2046948999999998,9.644744000000001,-0.91729254
82523485090562,-1.2382251,9.72378,-0.8262818000000001
82523504947459,-1.2981006000000002,9.75252,-0.76880133
82523524804484,-1.3364209999999999,9.623189,-0.89573735
82523544661381,-1.3436059999999999,9.5633135,-0.977168
82523564518278,-1.2693603999999998,9.580078,-0.96040285
82523584375175,-1.2478052,9.718989,-0.87178713
82523604231230,-1.2454101999999998,9.802814999999999,-0.7185059
82523624088127,-1.3292358999999998,9.651928999999999,-0.8981324
82523643945024,-1.3771361999999998,9.606423,-1.1304493
82523663801921,-1.2957056999999998,9.599238,-0.92208254
82523683653594,-1.22625,9.601633999999999,-0.74724615
82523703510491,-1.3100758,9.620794,-0.8478370000000001
82523723367260,-1.3531861,9.659114,-0.9987232
82523743224012,-1.3100758,9.75252,-0.85741705
82523763080781,-1.2430152,9.726174,-0.6945557
82523782937548,-1.3004956,9.666299,-0.9699829
82523802802284,-1.2813355,9.659114,-0.98195803
82523822659309,-1.2645704,9.584868,-0.80712163
82523842516204,-1.2861254999999998,9.515413,-0.9196875
82523862373100,-1.2837305,9.627979,-0.95561284
82523882230125,-1.2430152,9.690249,-0.7232959
82523902084619,-1.2454101999999998,9.75731,-0.7209009
82523921941515,-1.22625,9.678274,-0.9029224
82523941798540,-1.2334352,9.671089,-1.0202783000000002
82523961655435,-1.22146,9.6758795,-0.9388476999999998
82523981517427,-1.2334352,9.604028999999999,-0.8933423
82524001374580,-1.2837305,9.604028999999999,-0.83586186
82524021231603,-1.3364209999999999,9.699829,-0.79993653
82524041088627,-1.2693603999999998,9.649534,-0.95561284
82524060945780,-1.2046948999999998,9.558523,-0.8813671999999999
82524080802803,-1.1496094,9.551338000000001,-0.83586186
82524100659602,-1.0681788,9.666299,-0.79035646
82524120516627,-1.101709,9.750125,-0.66342044
82524140373778,-1.1352394,9.6758795,-0.6466553
82524160230802,-1.1448194,9.695039999999999,-0.8765772
82524180087955,-1.1328443000000001,9.673484,-1.0083033000000001
82524199944646,-1.1184741000000002,9.663903999999999,-0.7759864000000001
82524219801671,-1.1999048,9.64714,-0.68976563
82524239658696,-1.214275,9.551338000000001,-0.90052736
82524259515721,-1.2382251,9.604028999999999,-0.9436377
82524279382892,-1.2573853000000002,9.6686945,-0.9364527
82524299240045,-1.2166698999999999,9.74773,-0.85741705
82524319097198,-1.1663746000000002,9.707015,-0.85741705
82524338954351,-1.1735597,9.532178,-0.96758795
82524358811504,-1.1879296999999998,9.565708,-0.88376224
82524378668785,-1.2022998,9.575289,-0.8765772
82524398525230,-1.1136841999999998,9.699829,-0.9053174
82524418382383,-1.0801538,9.814791,-0.73048097
82524438239525,-1.099314,9.807606,-0.6346801999999999
82524458096677,-0.9987232,9.718989,-0.7544312
82524477953830,-0.9436377,9.678274,-0.8669971
82524497804465,-0.9987232,9.620794,-0.8478370000000001
82524517661489,-1.096919,9.683064,-0.73048097
82524537518514,-1.2549903,9.687855,-0.6466553
82524557375537,-1.2549903,9.632769,-0.70174074
82524577232562,-1.2286451,9.644744000000001,-0.855022
82524597089587,-1.1328443000000001,9.666299,-0.9364527
82524616939590,-1.1041040000000002,9.745335,-0.7209009
82524636796615,-1.1208692,9.711803999999999,-0.6849755999999999
82524656653512,-1.1304493,9.692644,-0.79754156
82524676510409,-1.2022998,9.644744000000001,-0.855022
82524696360790,-1.1448194,9.649534,-0.75203615
82524716217687,-1.1136841999999998,9.6758795,-0.7807764
82524736074447,-1.1328443000000001,9.596844,-0.9508228000000001
82524755931343,-1.1400293,9.6686945,-0.8813671999999999
82524775788112,-1.2094848999999999,9.637559,-0.7568262
82524795648908,-1.1807446000000001,9.704619000000001,-0.8885523000000001
82524815505804,-1.223855,9.711803999999999,-0.98195803
82524835362701,-1.2454101999999998,9.654325,-0.95561284
82524855219596,-1.2382251,9.699829,-0.8310718
82524875076492,-1.22146,9.654325,-0.8143066999999999
82524894933517,-1.1520045,9.64714,-0.9268726
82524914786135,-1.1759547,9.601633999999999,-0.9699829
82524934642903,-1.1855347,9.750125,-0.9196875
82524954499800,-1.0585986,9.778865,-0.76161623
82524974356567,-1.1400293,9.666299,-0.75203615
82524994216048,-1.2094848999999999,9.604028999999999,-0.96040285
82525014072945,-1.1639795,9.704619000000001,-0.8765772
82525033929840,-1.1591895,9.742939999999999,-0.7185059
82525053786736,-1.101709,9.611214,-0.8861573
82525073643505,-1.22625,9.577683,-1.1328443000000001
82525093502028,-1.22625,9.64714,-0.9651929
82525113358924,-1.1208692,9.7812605,-0.6227050999999999
82525133215821,-1.1663746000000002,9.632769,-0.84065187
82525153072716,-1.2454101999999998,9.587264,-1.1759547
82525172929612,-1.3292358999999998,9.608819,-0.9651929
82525192786509,-1.2310401000000002,9.6615095,-0.7232959
82525212647575,-1.1232642,9.6615095,-0.85023195
82525232504471,-1.1663746000000002,9.718989,-1.089734
82525252361496,-1.1615845,9.618399,-0.98435307
82525272218391,-1.2406201000000001,9.570497999999999,-0.8598120000000001
82525292077655,-1.1927198,9.620794,-0.94603276
82525311934552,-1.1783496,9.754914999999999,-0.98195803
82525331791449,-1.2358301999999999,9.656719,-0.84065187
82525351648346,-1.223855,9.649534,-0.80712163
82525371505243,-1.1567944,9.577683,-0.9316626
82525391362268,-1.1472143999999997,9.74773,-0.9316626
82525411220532,-1.1663746000000002,9.702225,-0.8047266
82525431077557,-1.2310401000000002,9.649534,-0.88376224
82525450934580,-1.22625,9.594449000000001,-0.95561284
82525470791476,-1.2478052,9.642349000000001,-0.8861573
82525490648501,-1.1807446000000001,9.70941,-0.8286768
82525510511644,-1.2022998,9.678274,-0.80712163
82525530368668,-1.2861254999999998,9.570497999999999,-1.0298585
82525550225693,-1.2430152,9.623189,-0.98914313
82525570082844,-1.1975098,9.654325,-0.8047266
82525589944080,-1.1903248,9.623189,-0.8334668
82525609801233,-1.1783496,9.678274,-0.89573735
82525629658384,-1.1807446000000001,9.654325,-0.8334668
82525649515664,-1.1256591999999999,9.68067,-0.73527104
82525669372817,-1.1687696,9.7142,-0.8095166
82525689229968,-1.1759547,9.601633999999999,-0.83586186
82525709086145,-1.1927198,9.5561285,-0.80712163
82525728943298,-1.2885206,9.625584,-0.8310718
82525748800449,-1.331631,9.778865,-0.8262818000000001
82525768657601,-1.3579761000000001,9.70941,-0.6227050999999999
82525788514754,-1.3915064,9.659114,-0.72569096
82525808373088,-1.334026,9.721385,-0.9029224
82525828230240,-1.2669654,9.594449000000001,-0.7879615
82525848087521,-1.1400293,9.587264,-0.6610254
82525867944672,-1.1879296999999998,9.64714,-0.80233157
82525887805708,-1.1591895,9.608819,-0.92208254
82525907663117,-1.1424243,9.78605,-0.67539555
82525927520524,-1.2094848999999999,9.78605,-0.5412744
82525947377932,-1.2094848999999999,9.651928999999999,-0.8095166
82525967235341,-1.2454101999999998,9.599238,-0.8334668
82525987092748,-1.2286451,9.642349000000001,-0.6730005
82526006952178,-1.1663746000000002,9.683064,-0.64186525
82526026809715,-1.2454101999999998,9.663903999999999,-0.69695073
82526046667250,-1.2358301999999999,9.740545,-0.7951465
82526066524786,-1.1328443000000001,9.742939999999999,-0.78556645
82526086382323,-1.1448194,9.678274,-0.7041358
82526106236642,-1.1759547,9.659114,-0.6825806
82526126094178,-1.219065,9.644744000000001,-0.7448511
82526145951587,-1.223855,9.639954,-0.84544194
82526165808994,-1.2573853000000002,9.632769,-0.70174074
82526185664957,-1.2813355,9.594449000000001,-0.7496411000000001
82526205522366,-1.2166698999999999,9.702225,-0.83586186
82526225379773,-1.2885206,9.704619000000001,-0.85023195
82526245237053,-1.3244458000000001,9.606423,-0.79754156
82526265094462,-1.3723463,9.587264,-0.70174074
82526284951869,-1.2813355,9.584868,-0.81909674
82526304807533,-1.22146,9.740545,-0.71371585
82526324664814,-1.2837305,9.671089,-0.6562354
82526344522602,-1.3124708,9.644744000000001,-0.7927515
82526364379883,-1.3172607,9.6758795,-0.7424561
82526384237164,-1.2549903,9.666299,-0.7424561
82526404096745,-1.3124708,9.711803999999999,-0.76161623
82526423954026,-1.3052857,9.599238,-0.7807764
82526443811435,-1.3172607,9.565708,-0.7232959
82526463668716,-1.2861254999999998,9.592053,-0.7759864000000001
82526483526125,-1.22146,9.539363,-0.9053174
82526503383406,-1.22146,9.740545,-0.80233157
82526523230837,-1.1615845,9.635164,-0.7664063
82526543087990,-1.3244458000000001,9.656719,-0.7879615
82526562945015,-1.3364209999999999,9.74773,-0.5724097
82526582802168,-1.2885206,9.654325,-0.76401126
82526602653889,-1.3412110000000002,9.644744000000001,-0.8310718
82526622510914,-1.3579761000000001,9.608819,-0.67539555
82526642367939,-1.2310401000000002,9.673484,-0.7232959
82526662224964,-1.1376343,9.618399,-0.72569096
82526682081989,-1.2933106,9.568104,-0.78556645
82526701931808,-1.3076807,9.685459,-0.7807764
82526721788561,-1.2909156000000002,9.845925,-0.6825806
82526741645458,-1.2573853000000002,9.778865,-0.7113208000000001
82526761502225,-1.3172607,9.683064,-0.7879615
82526781359121,-1.3412110000000002,9.584868,-0.82388675
82526801216018,-1.2478052,9.623189,-0.7807764
82526821065648,-1.1879296999999998,9.616004,-0.85741705
82526840922288,-1.2813355,9.565708,-0.87897223
82526860779057,-1.331631,9.623189,-0.7424561
82526880635696,-1.2717555,9.632769,-0.81909674
82526900486249,-1.223855,9.697434,-0.90052736
82526920342890,-1.2502003000000002,9.695039999999999,-0.81909674
82526940199401,-1.3028906999999998,9.683064,-0.7113208000000001
82526960055913,-1.2693603999999998,9.754914999999999,-0.7209009
82526979912554,-1.2430152,9.6615095,-0.83586186
82526999770854,-1.2645704,9.663903999999999,-0.88376224
82527019627366,-1.2502003000000002,9.692644,-0.85023195
82527039484007,-1.2502003000000002,9.673484,-0.81191164
82527059340518,-1.219065,9.644744000000001,-0.71371585
82527079197030,-1.2310401000000002,9.532178,-0.84065187
82527099053543,-1.2525953,9.632769,-0.8933423
82527118912474,-1.2406201000000001,9.692644,-0.69695073
82527138769115,-1.214275,9.683064,-0.79035646
82527158625628,-1.2693603999999998,9.721385,-0.8646021
82527178482269,-1.2478052,9.6758795,-0.79754156
82527198340844,-1.2549903,9.6615095,-0.74006104
82527218197485,-1.1807446000000001,9.766891000000001,-0.7831714
82527238054124,-1.2094848999999999,9.692644,-0.87897223
82527257910764,-1.2717555,9.671089,-0.72569096
82527277767405,-1.2645704,9.558523,-0.7496411000000001
82527297632949,-1.1472143999999997,9.620794,-0.89573735
82527317489845,-1.1591895,9.651928999999999,-0.68976563
82527337346614,-1.1615845,9.587264,-0.76880133
82527357203383,-1.1927198,9.707015,-0.8813671999999999
82527377060152,-1.2046948999999998,9.833950999999999,-0.6490503000000001
82527396916921,-1.2022998,9.788445,-0.5604346
82527416779298,-1.2046948999999998,9.697434,-0.732876
82527436636067,-1.22625,9.639954,-0.8478370000000001
82527456492964,-1.1352394,9.678274,-0.75203615
82527476349861,-1.1184741000000002,9.587264,-0.7065308000000001
82527496209408,-1.1639795,9.565708,-0.6825806
82527516066305,-1.2046948999999998,9.623189,-0.6825806
82527535923330,-1.1831397,9.690249,-0.62749517
82527555780227,-1.1328443000000001,9.850716,-0.44307864
82527575637124,-1.0346485,9.6686945,-0.7113208000000001
82527595494021,-1.1136841999999998,9.594449000000001,-0.84065187
82527615344730,-1.1615845,9.6686945,-0.6514453
82527635201627,-1.1232642,9.687855,-0.62031007
82527655058396,-1.2118799999999998,9.742939999999999,-0.50774413
82527674915165,-1.1687696,9.654325,-0.5029541000000001
82527694771934,-1.1543995,9.649534,-0.62031007
82527714631567,-1.096919,9.711803999999999,-0.6586304000000001
82527734488464,-1.0370435,9.635164,-0.6777906
82527754345361,-1.101709,9.687855,-0.62510014
82527774202130,-1.0825489,9.683064,-0.64186525
82527794068039,-1.1232642,9.692644,-0.5987549
82527813925064,-1.1711646,9.802814999999999,-0.54366946
82527833782215,-1.0849438999999999,9.671089,-0.60833496
82527853639239,-1.1783496,9.68067,-0.6059399999999999
82527873496264,-1.1064991000000002,9.683064,-0.613125
82527893353415,-1.0777588,9.6615095,-0.66342044
82527913216614,-1.1807446000000001,9.733359,-0.58677983
82527933073895,-1.0801538,9.64714,-0.5125342
82527952931174,-1.1496094,9.845925,-0.52690434
82527972788454,-1.0154883,9.79084,-0.6442603
82527992645735,-1.1088941,9.922566,-0.7161109
82528012513086,-1.2094848999999999,10.049502,-0.6586304000000001
82528032370622,-1.0753639,9.936936,-0.4766089
82528052228159,-1.1543995,10.027947,-0.32572266
82528072085694,-1.0777588,9.891430999999999,-0.5412744
82528091941774,-1.0178833,9.948912,-0.6706055000000001
82528111799311,-1.0442286,9.922566,-0.44786867
82528131656846,-1.0538087,9.802814999999999,-0.49337405
82528151514382,-1.2070899,10.032737,-0.7185059
82528171371919,-1.1879296999999998,10.059082,-0.488584
82528191229454,-1.1088941,9.989627,-0.51732427
82528211082407,-1.0825489,9.896221,-1.0202783000000002
82528230939944,-1.0490186000000001,9.716595,-1.0011181999999998
82528250797351,-1.094524,9.735755000000001,-0.7209009
82528270654887,-1.2334352,9.683064,-0.42870852
82528290512424,-1.2765454,9.872271000000001,-0.44068359999999995
82528310370787,-1.1567944,9.929751,-0.5340894
82528330228323,-0.9148975,9.848321,-0.71371585
82528350085860,-1.0801538,10.044711999999999,-0.87418216
82528369943267,-1.0705738,9.917776,-0.7759864000000001
82528389798120,-1.0801538,9.795630000000001,-0.7807764
82528409655529,-1.3819263000000002,9.788445,-0.48139894
82528429513064,-1.2645704,9.745335,-0.49337405
82528449370472,-1.1256591999999999,10.085427000000001,-0.5676197
82528469227881,-1.0346485,10.092611999999999,-0.41194338
82528489085288,-1.0322535,9.958491,-0.53169435
82528508929713,-1.2430152,9.843531,-0.5292993
82528528786738,-1.1687696,9.896221,-0.57719976
82528548643889,-1.1615845,9.941727,-0.6227050999999999
82528568501041,-1.1639795,9.798025,-0.5963599
82528588358066,-1.1304493,9.850716,-0.5891748
82528608206807,-1.096919,9.934542,-0.40715334
82528628063831,-1.0466236,9.989627,-0.32093263
82528647920728,-1.1424243,10.025552000000001,-0.34488282
82528667774761,-1.1064991000000002,9.953702,-0.37362307
82528687631658,-1.0250684,10.039923,-0.35925296
82528707488555,-0.99393314,10.229128999999999,-0.15567628
82528727334602,-1.1400293,10.267449000000001,0.28740236
82528747191371,-1.465752,10.413546,0.7232959
82528767048012,-1.7004639,10.617122,0.7711963000000001
82528786904781,-1.9160157,10.471025,0.613125
82528806757282,-2.0285816000000003,10.346485000000001,1.1184741000000002
82528826613923,-1.7363893,10.176438000000001,1.4130616000000003
82528846470436,-1.2382251,10.229128999999999,0.7807764
82528866327069,-0.62989014,10.686577999999999,-1.3148658000000002
82528886183581,-0.4023633,11.637400999999999,-1.8561403000000003
82528906040093,-0.47900394,11.361972999999999,-1.7292042
82528925896581,-0.7592211999999999,10.7943535,-0.5340894
82528945753221,-0.23710695,10.188414,0.014370117
82528965609733,-0.6059399999999999,9.802814999999999,2.3878345000000003
82528985466373,-0.98435307,9.433982,2.095642
82529005322885,-1.3244458000000001,9.558523,1.2693603999999998
82529025181025,-0.9244776,8.775352,1.5112573999999999
82529045037665,-0.7927515,8.669971,2.1746778
82529064894305,-1.2358301999999999,9.002879,2.4333397999999997
82529084750817,-1.2382251,8.974138,3.168611
82529104607457,-1.214275,9.424402,3.417693
82529124460990,-1.1759547,9.417216999999999,3.027305
82529144317502,-1.2310401000000002,8.938213000000001,3.4536182999999996
82529164174014,-1.5088624,8.423283999999999,4.6918435
82529184030654,-1.7315991999999998,8.279583,4.631968
82529203887166,-1.3939015,8.54543,4.387676
82529223747098,-0.8981324,8.432864,4.5768824
82529243603610,-0.38080812,7.8844047,5.0367265
82529263460122,-0.5364844,7.802973700000001,5.376819
82529283316635,-0.92208254,7.438931,6.1312504
82529303173020,-0.9412427,7.0245923999999995,6.976692
82529323028577,-1.4346168,6.840176,6.8832865000000005
82529342885089,-2.4764502,6.794670599999999,6.1599903
82529362741473,-3.1973512000000004,7.3143899999999995,4.9624805
82529382597985,-2.6273365,8.202942,3.6739602
82529402454369,-0.9148975,8.133486999999999,6.8952613
82529422315970,1.0585986,9.489068,3.2739917999999997
82529442172483,-0.79754156,12.600199,-1.6022681
82529462029124,-5.5324955000000005,13.2420635,-0.33769777
82529481885637,-10.808722999999999,9.718989,6.251001400000001
82529501742150,-4.912185,7.8868,3.9134622
82529521605319,-1.4968873,8.969349000000001,0.8430469
82529541461960,-1.0202783000000002,8.851992999999998,-0.8669971
82529561318729,-0.38320315,8.253238,-0.9244776
82529581175370,-1.3699511999999998,8.610096,0.43110353
82529601032011,-2.3638844,9.386082,0.46463382
82529620891084,-1.4920973,9.438772,-0.09101075
82529640747853,-0.20597169,9.517808,-1.7818946
82529660604622,0.99393314,9.21364,-3.3434474
82529680461391,2.047742,8.3179035,-3.7003052000000003
82529700318160,2.1124072,8.770562,-0.7209009
82529720182939,0.364043,9.256751,3.046465
82529740039964,0.54366946,10.121353,1.0418334999999999
82529759896845,1.1472143999999997,9.8938265,-0.43589357
82529779753869,0.12454102,9.544153,0.44307864
82529799610765,-1.0130934,8.789722,0.19639161
82529819468868,-0.55324954,8.145462,-0.12454102
82529839325892,-0.65384036,8.727451,0.488584
82529859182788,-0.28740236,10.217153999999999,0.43589357
82529879039812,0.5508545,11.0051155,1.465752
82529898896836,0.5388794,11.64219,1.2597803
82529918761802,1.2046948999999998,11.996654,-0.119750984
82529938619082,2.3590944,12.691208999999999,-0.24189699
82529958476234,2.8644435,12.760665,0.47900394
82529978333514,1.4082716,13.134288,-1.1184741000000002
82529998190666,-1.5016773,14.841937,-3.7386258000000003
82530018057581,-2.4333397999999997,14.178516,-3.5398389999999997
82530037915117,-3.7242556,11.455378999999999,-0.06706055
82530057772525,-4.25595,10.851834,-2.0094216
82530077630061,-5.647456,13.450429999999999,-4.88584
82530097487597,-13.021722,14.319822,-3.8128712
82530117339940,-9.129814999999999,11.179952,2.6441016
82530137197476,-3.5110989000000004,8.583751,6.495293
82530157054884,-3.7050953,7.2808595,2.4692652
82530176912292,-3.9206470999999996,7.0581226,-1.4968873
82530196769701,-0.32093263,7.522756599999999,-6.638994
82530216631946,3.2763869999999997,7.800578999999999,-6.6461797
82530236489480,2.1722827000000002,6.394702400000001,-2.9530592
82530256347016,2.2369482999999994,4.296665,0.3305127
82530276204552,0.8598120000000001,3.8416114,4.1314087
82530296062088,-1.6693287,4.200864299999999,4.9552955999999995
82530315918144,-1.9160157,4.775669000000001,2.9889846
82530335775680,-1.1112891000000003,5.024751,0.9699829
82530355633089,-0.62510014,6.2965064,-0.61552006
82530375490626,-0.51013917,8.315508,-0.70174074
82530395348035,-1.1376343,11.860137,1.2837305
82530415205280,1.5687379,15.7113285,13.642032
82530435062817,5.609136,14.573694,18.520687
82530454920226,3.4057178,10.94045,8.59333
82530474777763,-3.2739917999999997,8.672366,0.20118165
82530494635172,-5.669011599999999,5.9037232,-2.9674294
82530514487435,-2.4908203999999996,6.4426026,2.7303224
82530534344844,-3.5422339999999997,13.117522,4.3493557
82530554202125,-8.456814999999999,21.090544,1.2406201000000001
82530574059534,-5.518125,16.645386,-4.040398000000001
82530593916943,-2.3375392,5.640271,-2.5243506
82530613764062,-2.3135889,4.524192,-1.8561403000000003
82530633621215,-1.6597486000000001,7.9347,-1.2502003000000002
82530653478368,-1.8465601000000003,10.686577999999999,-0.76880133
82530673335649,-2.9099487999999996,10.490186,-3.5853443
82530693192802,-1.1711646,9.354947,-5.8175025
82530713043145,0.728086,8.135881,-5.233118
82530732900042,0.974773,8.265213000000001,-0.80233157
82530752757067,0.91010743,9.663903999999999,2.0716919999999996
82530772614092,0.031135255,8.727451,-0.5484595
82530792470968,0.5843848,8.650811000000001,-0.48379397
82530812334894,0.85741705,11.728411,-2.2968237
82530832192046,2.0213966,9.896221,-2.9770092999999997
82530852049274,1.5663428,7.237749000000001,-2.8716285
82530871906426,1.6597486000000001,9.477093,1.3699511999999998
82530891763578,1.0106983,10.202784,0.94603276
82530911614854,0.67539555,8.310719,-1.6597486000000001
82530931471878,0.34009278,8.171807000000001,-0.9053174
82530951328774,0.11256592,9.929751,-0.366438
82530971185798,0.2778223,12.331956,-0.44547364
82530991042822,-0.44547364,12.470867,0.55803955
82531010898280,-0.95561284,12.202625,1.7651293999999997
82531030755304,0.28500733,12.746294,0.31374758
82531050612200,1.4897022,12.822935000000001,-0.43589357
82531070469224,1.0202783000000002,13.266014000000002,-0.5388794
82531090326120,0.244292,14.113851,-2.703977
82531110179787,-0.05269043,13.026512,-4.138594
82531130036683,-1.7459692999999998,10.993139999999999,-1.0083033000000001
82531149893579,-3.3338672999999996,9.275911,1.101709
82531169750475,-3.9565725,11.50328,-1.8058448
82531189607372,-6.7467704,15.474222,-3.6404297
82531209464269,-9.263936,14.877862,-0.73048097
82531229313831,-3.9589673999999997,10.94045,4.385281
82531249170599,-2.5315359,9.73815,2.929109
82531269027239,-3.4536182999999996,10.092611999999999,1.7507593999999997
82531288884007,-2.9985645,8.689131,-1.6381934999999999
82531308740647,3.2452517000000003,7.846083999999999,-9.6758795
82531328594030,3.899092,6.912027,-7.089258
82531348450670,2.8093581000000003,4.849914599999999,-3.04886
82531368307311,1.9375708999999999,3.1374757,1.3052857
82531388163952,-1.8537452,2.5818312000000003,6.739585400000001
82531408020593,-1.7603394,2.799778,4.346960500000001
82531427875532,-0.5245093000000001,3.8535866999999997,2.4740553
82531447732045,-0.23471193,4.3110349999999995,2.555486
82531467588558,-0.8646021,4.397256,3.1326857000000006
82531487445193,-0.32332766,5.9635987,3.8775367999999997
82531507301705,0.14130616,12.9259205,9.345366499999999
82531527163172,3.1087356,22.855673,12.638518
82531547019684,10.341695,17.85008,9.261541000000001
82531566876324,4.6750784,10.475816,4.4475513
82531586732964,-4.9696655,13.069622,-4.3445654000000005
82531606589604,-6.926397,10.566827,-10.209969000000001
82531626447894,-7.041357499999999,4.4858720000000005,-2.4716603999999998
82531646304662,-6.440208,3.5733693,12.882811
82531666161302,-5.0487013,8.840017,8.298743
82531686017942,-5.8127127,13.953384,-8.375383
82531705874710,-1.5783178999999998,12.303216,-12.044554
82531725694291,2.5195606,10.300980000000001,-7.230564
82531745550291,1.5399976,10.336905,-4.6750784
82531765406163,-0.26584718,10.818304,-3.1470559
82531785262163,0.50774413,10.842253999999999,3.7098854
82531805118035,0.6849755999999999,11.189531,3.1422658
82531824985585,1.4418018,9.992022,-3.0177248
82531844841713,-0.24668702,8.954978,-1.8800903999999998
82531864697841,-0.8598120000000001,7.1275783,-0.6490503000000001
82531884553969,-0.46702883,7.632927400000001,2.440525
82531904410098,1.0322535,9.984836999999999,3.0847852000000002
82531924278685,0.9508228000000001,8.818462,0.97956306
82531944135068,0.0071850587,6.0258694,-0.12933107
82531963991452,0.28261232,6.466553,2.4357349999999998
82531983847836,0.9436377,9.316627,2.191443
82532003704220,1.8920655,10.748847999999999,0.38320315
82532023577104,2.4836354,11.441009,-0.7879615
82532043433873,-0.92208254,15.5987625,0.43589357
82532063290514,-3.1398706,17.17229,0.7568262
82532083147283,-3.8727467000000004,13.251643,-0.18681154
82532103004052,-4.054768,11.802657,-1.4441968
82532122860151,-9.536968,13.443245000000001,1.0729688
82532142716920,-8.792117,10.140513,5.1373169999999995
82532162573561,-1.8896705000000003,9.812395,2.4908203999999996
82532182430330,0.6227050999999999,11.232642,-3.3266823
82532202286971,3.2668068,10.241104,-1.8800903999999998
82532222145568,1.6286133999999999,8.619676,0.60833496
82532242002209,-2.4333397999999997,7.762258500000001,1.575923
82532261858978,-3.2620167999999996,5.8438478,1.3292358999999998
82532281715619,-3.0919703999999997,5.520519999999999,1.5783178999999998
82532301572388,-1.8848804,5.49178,1.4585668999999999
82532321430653,-1.8561403000000003,5.3552637,0.46463382
82532341287422,-1.8226098999999998,5.0415163,0.7568262
82532361144063,-1.5998731000000002,5.0894165000000005,0.5412744
82532381000832,0.031135255,6.5048733,-0.88376224
82532400857601,3.2021412999999996,9.230406,-0.40715334
82532420725402,4.773274,11.306888,5.0989965999999995
82532440582427,1.2118799999999998,12.499607000000001,6.753955400000001
82532460439452,-0.8933423,11.074571,5.592371
82532480296477,-1.8872755,9.429193,6.246211
82532500153353,-2.6057813,10.435101,6.047425
82532520012862,-1.7603394,11.991863,4.390071
82532539870015,0.7807764,12.760665,1.8441651000000001
82532559727040,0.119750984,13.218113,-3.8631665999999996
82532579584193,-1.9064356,11.316467999999999,-5.247488
82532599441218,-2.680027,9.77168,-1.4082716
82532619297285,-2.2585034,8.768167,0.38559815
82532639154438,-1.7435743000000001,7.860454600000001,1.575923
82532659011463,-1.7124390999999999,8.303533,-1.214275
82532678868616,-0.91250247,10.502161,-3.0967603
82532698725769,0.0023950195999999997,11.903248,-3.9685476000000004
82532718587374,-0.37601808,11.285333,-3.0943654
82532738444527,-0.6059399999999999,10.736873,-0.5029541000000001
82532758301808,-0.5125342,9.936936,0.59156984
82532778159077,-0.83586186,9.582474000000001,0.62031007
82532798016229,-0.5364844,9.618399,0.5029541000000001
82532817874806,-0.81191164,8.768167,-0.50774413
82532837732086,0.19878663,8.978928999999999,-1.5687379
82532857592735,-0.07664063,9.83874,-2.1531227000000004
82532877450015,-0.34488282,9.527389,-1.5783178999999998
82532897307295,-0.80712163,10.193204,0.014370117
82532917164161,-1.2933106,10.916499,1.1352394
82532937021441,-1.6046631000000002,10.142908,1.6022681
82532956878721,-2.4788454,9.316627,1.3436059999999999
82532976736001,-2.2896388,9.204061,-0.040715333
82532996593409,-1.3723463,9.953702,-0.852627
82533016455809,-0.6227050999999999,11.141631,-0.43110353
82533036313217,-0.32572266,10.851834,-0.59156984
82533056170753,-0.84544194,9.1202345,-0.7209009
82533076028161,-1.3771361999999998,8.600515,-0.73048097
82533095885569,-1.0729688,9.15137,-1.1975098
82533115742977,-0.83586186,9.7740755,-1.4274316999999999
82533135598032,-0.86220706,9.778865,-1.3124708
82533155455441,-1.101709,9.206455,-1.3148658000000002
82533175312978,-1.2597803,8.820857,-1.2286451
82533195170512,-1.4441968,8.828042,-0.92926764
82533215027920,-1.5663428,9.319021000000001,-0.33769777
82533234879976,-1.4226416000000002,9.884246000000001,0.2682422
82533254737384,-1.0849438999999999,10.025552000000001,0.25387207
82533274594792,-0.6658155,9.75252,-0.93405765
82533294452328,-0.9484278,9.924961,-1.1496094
82533314309736,-1.4370118,9.939331,-0.53169435
82533334141245,-1.1663746000000002,9.544153,-0.13651612
82533353997885,-0.99393314,9.620794,-0.23231691
82533373854525,-1.2765454,9.82437,0.2562671
82533393711165,-1.346001,9.565708,-0.17962648
82533413567805,-1.2406201000000001,9.395662,-1.0394385
82533433431022,-1.0346485,9.513017999999999,-0.6179150999999999
82533453287790,-0.7065308000000001,9.493857,-0.26105714
82533473144430,-0.7161109,9.592053,-0.23950197
82533493001198,-1.0921290000000001,9.654325,-0.16525635
82533512857966,-1.5088624,9.541758999999999,-0.18441652
82533532720226,-1.6597486000000001,9.347761,-0.57001466
82533552576994,-1.6836988000000002,9.359736,-0.5963599
82533572433890,-1.4609618999999998,9.501043,-0.19399660000000002
82533592290658,-1.1783496,9.544153,-0.102985844
82533612147554,-1.099314,9.558523,-0.22034179999999998
82533632009351,-1.0514137,9.479486999999999,-0.29937744
82533651866376,-0.8981324,9.381292,-0.22513184
82533671723401,-0.9963281999999999,9.374106,-0.050295413
82533691580423,-1.2669654,9.606423,-0.52690434
82533711437447,-1.2693603999999998,9.649534,-0.51013917
82533731295867,-0.85023195,9.711803999999999,0.5005590999999999
82533751152891,-1.0202783000000002,9.829161000000001,0.51732427
82533771009915,-1.0729688,9.7812605,0.16765137
82533790866811,-1.1855347,9.635164,0.05508545
82533810723835,-1.2789403999999998,9.570497999999999,0.102985844
82533830577124,-1.2717555,9.575289,0.2682422
82533850434020,-1.2573853000000002,9.613608000000001,0.014370117
82533870291044,-1.2310401000000002,9.5489435,-0.13172609
82533890147940,-1.2166698999999999,9.383687,-0.37122804
82533910004836,-1.1328443000000001,9.405242,-0.57719976
82533929865432,-0.96040285,9.594449000000001,-0.32093263
82533949722456,-1.0825489,9.616004,0.08622070400000001
82533969579352,-1.3172607,9.467513,0.28261232
82533989436376,-1.2909156000000002,9.390872,0.0047900393
82534009293400,-1.1591895,9.472302,-0.28261232
82534029154530,-1.1184741000000002,9.606423,-0.09580079
82534049011554,-1.1256591999999999,9.707015,0.16765137
82534068868706,-1.0921290000000001,9.580078,-0.009580079
82534088725858,-1.1280543,9.596844,-0.16765137
82534108583010,-1.2669654,9.735755000000001,-0.06227051
82534128439431,-1.2909156000000002,9.666299,-0.05269043
82534148296584,-1.2573853000000002,9.604028999999999,-0.06227051
82534168153607,-1.2741505,9.599238,-0.043110352000000005
82534188010759,-1.223855,9.551338000000001,-0.102985844
82534207867911,-1.2118799999999998,9.529783,-0.19399660000000002
82534227732335,-1.0705738,9.572892999999999,-0.39278322
82534247589487,-0.9268726,9.625584,-0.50534916
82534267446767,-1.1328443000000001,9.692644,-0.34248779999999995
82534287303919,-1.331631,9.654325,-0.23471193
82534307161199,-1.334026,9.558523,-0.3903882
82534327017672,-1.334026,9.481883,-0.39278322
82534346874952,-1.1759547,9.457932000000001,-0.4382886
82534366732232,-1.0729688,9.568104,-0.39996827
82534386589512,-1.1352394,9.663903999999999,-0.35925296
82534406446664,-1.1424243,9.604028999999999,-0.33530274
82534426304285,-1.0753639,9.544153,-0.39517823
82534446161565,-1.0921290000000001,9.620794,-0.46463382
82534466018845,-1.0681788,9.649534,-0.52690434
82534485876125,-0.9412427,9.601633999999999,-0.5963599
82534505733405,-0.9915381,9.544153,-0.5843848
82534525589868,-1.0657837,9.496253,-0.4526587
82534545447148,-0.9508228000000001,9.529783,-0.5939649
82534565304428,-0.9364527,9.637559,-0.6442603
82534585161709,-0.9867481,9.568104,-0.57959473
82534605018990,-1.0346485,9.630374,-0.51492923
82534624874047,-1.0346485,9.651928999999999,-0.6849755999999999
82534644731328,-1.0873389,9.697434,-0.62510014
82534664588604,-1.0274634,9.697434,-0.58677983
82534684445884,-0.98914313,9.740545,-0.55803955
82534704303164,-1.0466236,9.879456,-0.5388794
82534724154701,-0.9699829,9.742939999999999,-0.64186525
82534744011853,-0.977168,9.539363,-0.8095166
82534763869005,-1.0729688,9.462723,-0.84544194
82534783726157,-1.0849438999999999,9.510622999999999,-0.74006104
82534803583309,-1.0298585,9.575289,-0.7424561
82534823434884,-1.0106983,9.642349000000001,-0.7065308000000001
82534843291908,-0.974773,9.659114,-0.7711963000000001
82534863145519,-0.95561284,9.7740755,-0.79993653
82534883002543,-0.8598120000000001,9.716595,-0.84544194
82534902859567,-0.9268726,9.577683,-0.9268726
82534922709947,-1.0538087,9.479486999999999,-0.9244776
82534942566715,-1.0202783000000002,9.527389,-0.9268726
82534962423483,-0.9867481,9.651928999999999,-0.85741705
82534982280379,-1.0609937,9.733359,-0.8047266
82535002137147,-0.98435307,9.73815,-0.8646021
82535022001052,-0.9148975,9.745335,-0.87418216
82535041858076,-0.93405765,9.750125,-0.80712163
82535061714973,-0.9412427,9.704619000000001,-0.97237796
82535081571996,-0.96758795,9.721385,-1.0154883
82535101428892,-0.977168,9.726174,-0.89573735
82535121288415,-1.0346485,9.78605,-0.73527104
82535141145439,-1.0226734,9.783655,-0.79993653
82535161002463,-1.1615845,9.783655,-0.7879615
82535180859487,-1.0442286,9.79084,-0.85741705
82535200716511,-0.8598120000000001,9.800421,-1.0370435
82535220578016,-1.0035132,9.64714,-1.0083033000000001
82535240435041,-1.0466236,9.651928999999999,-0.9244776
82535260292066,-1.0370435,9.6686945,-0.91010743
82535280149219,-1.0466236,9.644744000000001,-0.96758795
82535300006244,-1.0705738,9.625584,-1.0130934
82535319861371,-1.0418334999999999,9.6758795,-1.0346485
82535339718396,-1.0633887,9.611214,-0.97956306
82535359575421,-1.101709,9.639954,-0.9029224
82535379432574,-1.096919,9.783655,-0.9316626
82535399289599,-1.0083033000000001,9.711803999999999,-1.1136841999999998
82535419141844,-0.9627979,9.5561285,-1.1352394
82535438998741,-1.0202783000000002,9.6615095,-0.9436377
82535458855638,-1.0609937,9.68067,-0.8669971
82535478712535,-1.101709,9.685459,-0.9867481
82535498569432,-1.0202783000000002,9.733359,-1.0633887
82535518430735,-0.9987232,9.699829,-1.096919
82535538287760,-0.99393314,9.627979,-1.0370435
82535558144785,-0.98914313,9.644744000000001,-0.9436377
82535578001810,-0.9316626,9.685459,-0.9699829
82535597858835,-0.8933423,9.663903999999999,-1.0466236
82535617716476,-0.9196875,9.611214,-1.0681788
82535637573501,-1.0346485,9.635164,-1.0394385
82535657430526,-1.0466236,9.690249,-0.977168
82535677287531,-0.96758795,9.73815,-0.9699829
82535697144556,-0.977168,9.671089,-1.0322535
82535717001581,-1.0226734,9.639954,-1.0106983
82535736857436,-0.95561284,9.623189,-0.98914313
82535756714457,-0.9651929,9.766891000000001,-0.9508228000000001
82535776571481,-0.9532178,9.663903999999999,-1.0322535
82535796428505,-0.92208254,9.654325,-1.0298585
82535816285401,-0.974773,9.608819,-1.0130934
82535836143917,-0.9508228000000001,9.659114,-1.0035132
82535856001069,-0.87178713,9.730965,-1.0346485
82535875858093,-0.9316626,9.697434,-1.0394385
82535895715245,-0.9436377,9.642349000000001,-1.0035132
82535915572397,-0.86220706,9.659114,-0.9484278
82535935436052,-0.91729254,9.7621,-1.0250684
82535955293332,-0.90052736,9.72857,-1.0178833
82535975150484,-0.855022,9.671089,-0.9412427
82535995007764,-0.93405765,9.649534,-0.9508228000000001
82536014864916,-0.8933423,9.589659,-0.98195803
82536034720873,-0.9053174,9.678274,-0.9963281999999999
82536054578153,-0.9627979,9.690249,-1.0178833
82536074435433,-0.96758795,9.678274,-0.9436377
82536094292585,-0.9508228000000001,9.663903999999999,-0.92926764
82536114149865,-0.9532178,9.651928999999999,-0.9867481
82536134001373,-0.96758795,9.639954,-1.0130934
82536153858525,-1.0059083,9.639954,-0.9244776
82536173715677,-0.9963281999999999,9.687855,-0.8981324
82536193572830,-1.0106983,9.73815,-0.9484278
82536213429855,-0.96040285,9.721385,-0.97237796
82536233291944,-1.0178833,9.649534,-0.94603276
82536253149222,-1.0801538,9.716595,-0.8646021
82536273006374,-0.9651929,9.7740755,-0.8669971
82536292863654,-0.96040285,9.800421,-0.92208254
82536312720806,-0.9651929,9.704619000000001,-1.0274634
82536332574063,-0.9651929,9.627979,-0.93405765
82536352431215,-0.9987232,9.673484,-0.8598120000000001
82536372288239,-1.0274634,9.6615095,-0.87418216
82536392145391,-0.98914313,9.642349000000001,-0.8885523000000001
82536412002544,-0.96758795,9.68067,-0.9484278
82536431862725,-0.96758795,9.70941,-1.0011181999999998
82536451719878,-0.93405765,9.687855,-0.9412427
82536471577031,-0.9148975,9.683064,-0.9436377
82536491434180,-0.9148975,9.637559,-0.977168
82536511291332,-0.92926764,9.639954,-1.0059083
82536531140260,-0.9867481,9.673484,-0.9388476999999998
82536550997284,-0.94603276,9.697434,-0.9268726
82536570854180,-0.92926764,9.685459,-0.85023195
82536590711204,-0.95561284,9.695039999999999,-0.9532178
82536610568100,-0.98435307,9.678274,-1.0083033000000001
82536630417334,-0.96040285,9.639954,-0.93405765
82536650274102,-0.92208254,9.618399,-0.9364527
82536670130998,-0.9484278,9.568104,-1.0059083
82536689987766,-0.977168,9.618399,-0.9651929
82536709844662,-1.0154883,9.644744000000001,-0.9029224
82536729703350,-1.0106983,9.740545,-0.87897223
82536749560246,-0.94603276,9.766891000000001,-0.9196875
82536769417142,-0.95561284,9.697434,-0.9316626
82536789274038,-1.0106983,9.671089,-0.91250247
82536809130806,-0.98914313,9.716595,-0.85023195
82536828987300,-1.0106983,9.702225,-0.8765772
82536848844196,-1.0801538,9.635164,-0.91729254
82536868701092,-1.0514137,9.517808,-0.9196875
82536888552124,-1.0083033000000001,9.639954,-0.8167017
82536908409021,-1.0130934,9.77647,-0.82388675
82536928267230,-0.977168,9.70941,-0.92208254
82536948124124,-1.0849438999999999,9.6686945,-0.9532178
82536967981020,-1.1232642,9.687855,-0.91010743
82536987837916,-1.0609937,9.70941,-0.82388675
82537007694812,-1.089734,9.678274,-0.8669971
82537027550977,-1.0849438999999999,9.64714,-0.9627979
82537047407873,-1.0801538,9.618399,-0.92208254
82537067264641,-1.101709,9.6758795,-0.89573735
82537087121537,-1.0609937,9.74773,-0.88376224
82537106978433,-1.0011181999999998,9.730965,-0.9699829
82537126837865,-1.0298585,9.671089,-0.9580079
82537146694761,-1.0681788,9.685459,-0.87897223
82537166551657,-0.9987232,9.620794,-0.9053174
82537186408553,-1.0011181999999998,9.627979,-0.9867481
82537206265449,-0.98914313,9.637559,-0.97237796
82537226122859,-0.9915381,9.639954,-0.9867481
82537245979755,-1.0346485,9.611214,-0.99393314
82537265836651,-1.0849438999999999,9.644744000000001,-0.977168
82537285693547,-1.0681788,9.654325,-0.98914313
82537305550443,-1.0370435,9.671089,-0.98435307
82537325406777,-1.0466236,9.683064,-0.96758795
82537345263674,-1.0394385,9.637559,-1.0250684
82537365120569,-1.0873389,9.683064,-0.95561284
82537384977465,-1.0825489,9.735755000000001,-0.9268726
82537404834361,-1.0538087,9.70941,-0.96758795
82537424691257,-1.0777588,9.639954,-0.96758795
82537444543225,-1.0705738,9.589659,-0.98435307
82537464399993,-1.099314,9.683064,-0.98914313
82537484256762,-1.1232642,9.663903999999999,-1.0274634
82537504113531,-1.1903248,9.642349000000001,-0.9627979
82537523970300,-1.1088941,9.604028999999999,-0.9627979
82537543833107,-1.0011181999999998,9.649534,-1.0106983
82537563690132,-1.096919,9.72378,-1.0083033000000001
82537583547029,-1.1520045,9.704619000000001,-0.974773
82537603403926,-1.1376343,9.656719,-0.96758795
82537623260823,-1.089734,9.632769,-0.9651929
82537643115190,-1.0466236,9.671089,-1.0106983
82537662972087,-1.1112891000000003,9.692644,-1.0514137
82537682828984,-1.1711646,9.656719,-0.98914313
82537702685753,-1.0633887,9.565708,-0.96040285
82537722542650,-1.0849438999999999,9.601633999999999,-1.0370435
82537742403869,-1.1424243,9.692644,-1.0346485
82537762260752,-1.0681788,9.6686945,-0.9987232
82537782117649,-1.0681788,9.616004,-0.98195803
82537801974544,-1.1591895,9.642349000000001,-1.0130934
82537821831440,-1.0657837,9.666299,-0.9436377
82537841694120,-1.0346485,9.687855,-0.9627979
82537861551272,-1.0753639,9.707015,-0.9915381
82537881408296,-1.0418334999999999,9.68067,-1.0011181999999998
82537901265448,-1.0562036,9.68067,-1.0394385
82537921122472,-1.1184741000000002,9.635164,-1.0370435
82537940981904,-1.0921290000000001,9.635164,-0.92926764
82537960839056,-1.0130934,9.635164,-0.9388476999999998
82537980696208,-1.0801538,9.690249,-1.0394385
82538000553360,-1.0418334999999999,9.695039999999999,-1.0106983
82538020410512,-1.0346485,9.687855,-0.9316626
82538040276374,-1.0777588,9.735755000000001,-0.9963281999999999
82538060133654,-0.97956306,9.630374,-1.0274634
82538079991062,-1.0394385,9.611214,-1.0059083
82538099848470,-1.1184741000000002,9.635164,-0.96758795
82538119705879,-1.0370435,9.613608000000001,-0.94603276
82538139561958,-1.0753639,9.623189,-0.98435307
82538159419239,-1.101709,9.716595,-1.0106983
82538179276648,-1.0011181999999998,9.685459,-0.9532178
82538199134053,-0.9867481,9.683064,-0.9580079
82538218988078,-1.0777588,9.75731,-0.9651929
82538238845359,-1.0466236,9.690249,-0.9963281999999999
82538258702638,-1.0705738,9.651928999999999,-0.9388476999999998
82538278559790,-1.0777588,9.553733,-0.9388476999999998
82538298417071,-1.0442286,9.630374,-0.9651929
82538318265853,-1.0538087,9.683064,-0.98195803
82538338123006,-1.1088941,9.75252,-0.9364527
82538357980031,-1.0777588,9.718989,-0.92208254
82538377837184,-1.0585986,9.673484,-1.0298585
82538397694337,-1.1328443000000001,9.659114,-1.0035132
82538417551362,-1.0705738,9.601633999999999,-0.96040285
82538437405047,-1.0705738,9.623189,-0.9316626
82538457262072,-1.094524,9.649534,-1.0178833
82538477119097,-1.1376343,9.685459,-0.92208254
82538496976122,-1.1543995,9.695039999999999,-0.87418216
82538516831579,-1.1304493,9.666299,-0.9148975
82538536688604,-1.0538087,9.740545,-0.97237796
82538556545501,-1.1112891000000003,9.704619000000001,-1.0250684
82538576402526,-1.1735597,9.690249,-0.9388476999999998
82538596259551,-1.1328443000000001,9.623189,-0.91010743
82538616116576,-1.1496094,9.577683,-0.97237796
82538635967273,-1.1639795,9.592053,-0.9388476999999998
82538655824170,-1.1543995,9.64714,-0.8861573
82538675681067,-1.1041040000000002,9.740545,-0.90052736
82538695537836,-1.1136841999999998,9.7621,-0.9963281999999999
82538715394733,-1.099314,9.651928999999999,-1.0274634
82538735249410,-1.1687696,9.7142,-0.9053174
82538755106307,-1.1472143999999997,9.68067,-0.9484278
82538774963076,-1.1951148999999999,9.606423,-0.9580079
82538794819951,-1.1711646,9.508227999999999,-1.0059083
82538814676556,-1.1400293,9.544153,-0.9196875
82538834533453,-1.0753639,9.620794,-0.8310718
82538854390220,-1.094524,9.74773,-0.8861573
82538874246988,-1.1232642,9.754914999999999,-1.0083033000000001
82538894103885,-1.1663746000000002,9.733359,-0.98435307
82538913960652,-1.1807446000000001,9.70941,-0.8310718
82538933814459,-1.1879296999999998,9.718989,-0.90771246
82538953671228,-1.1735597,9.604028999999999,-0.9867481
82538973525345,-1.099314,9.546548,-1.0059083
82538993381985,-1.2118799999999998,9.587264,-0.85741705
82539013238754,-1.1088941,9.654325,-0.86939216
82539033099154,-1.0921290000000001,9.697434,-0.89573735
82539052955794,-1.1328443000000001,9.6758795,-0.99393314
82539072812563,-1.1376343,9.659114,-0.8933423
82539092669330,-1.1041040000000002,9.711803999999999,-0.85023195
82539112521655,-1.1543995,9.7142,-0.9244776
82539132378296,-1.1041040000000002,9.616004,-0.9388476999999998
82539152234935,-1.1639795,9.613608000000001,-0.9053174
82539172091575,-1.1496094,9.630374,-0.8885523000000001
82539191948216,-1.1041040000000002,9.64714,-0.8909473
82539211804855,-1.1424243,9.671089,-0.84065187
82539231661410,-1.1496094,9.718989,-0.86220706
82539251518051,-1.0873389,9.692644,-0.8813671999999999
82539271374562,-1.1112891000000003,9.656719,-0.9029224
82539291231202,-1.2022998,9.6758795,-0.8813671999999999
82539311087715,-1.1112891000000003,9.651928999999999,-0.87178713
82539330949289,-1.1256591999999999,9.625584,-0.84065187
82539350806057,-1.1687696,9.613608000000001,-0.90052736
82539370662698,-1.1064991000000002,9.683064,-0.86220706
82539390519465,-1.099314,9.651928999999999,-0.8765772
82539410376105,-1.1376343,9.687855,-0.8861573
82539430232746,-1.1064991000000002,9.70941,-0.87178713
82539450090561,-1.0585986,9.6686945,-0.8933423
82539469947329,-1.0777588,9.6686945,-0.87178713
82539489803970,-1.0538087,9.702225,-0.8669971
82539509660737,-1.0873389,9.6758795,-0.8598120000000001
82539529522460,-1.096919,9.632769,-0.855022
82539549379229,-1.0585986,9.618399,-0.8167017
82539569236124,-1.0394385,9.618399,-0.86939216
82539589092892,-1.0657837,9.685459,-0.84065187
82539608949789,-1.0346485,9.874666,-0.852627
82539628806556,-1.0059083,9.685459,-0.86220706
82539648666165,-1.0226734,9.623189,-0.98435307
82539668523062,-1.1520045,9.611214,-0.8646021
82539688379957,-1.0729688,9.699829,-0.83586186
82539708236981,-1.0202783000000002,9.673484,-0.7544312
82539728093878,-1.0609937,9.613608000000001,-0.94603276
82539747955797,-1.0106983,9.604028999999999,-0.91729254
82539767812821,-0.9484278,9.639954,-0.81909674
82539787669974,-1.0442286,9.70941,-0.79993653
82539807526997,-1.0466236,9.78605,-0.7951465
82539827387569,-1.0059083,9.7621,-0.855022
82539847244850,-1.0274634,9.671089,-0.91010743
82539867102001,-1.0562036,9.580078,-0.9268726
82539886959153,-1.0849438999999999,9.642349000000001,-0.8214916999999999
82539906816434,-1.0035132,9.654325,-0.8286768
82539926673585,-1.0250684,9.707015,-0.8310718
82539946527818,-1.096919,9.7621,-0.7927515
82539966384843,-0.98195803,9.690249,-0.7927515
82539986241994,-0.9436377,9.716595,-0.8095166
82540006099146,-0.9651929,9.687855,-0.9244776
82540025956171,-1.0035132,9.616004,-0.91010743
82540045822503,-1.0562036,9.654325,-0.7951465
82540065679783,-1.0106983,9.659114,-0.8430469
82540085537064,-0.8861573,9.635164,-0.8478370000000001
82540105394471,-0.8382569,9.616004,-0.85741705
82540125255116,-0.9484278,9.683064,-0.8598120000000001
82540145112525,-0.98435307,9.740545,-0.8430469
82540164969932,-0.9580079,9.75252,-0.8047266
82540184827340,-0.97956306,9.711803999999999,-0.76401126
82540204684621,-0.9508228000000001,9.683064,-0.7592211999999999
82540224542028,-0.85023195,9.656719,-0.8095166
82540244400942,-0.8478370000000001,9.64714,-0.7783814
82540264258351,-0.86939216,9.7142,-0.76161623
82540284115758,-0.8861573,9.769285,-0.71371585
82540303973166,-0.9580079,9.788445,-0.77359134
82540323830575,-0.96758795,9.707015,-0.80712163
82540343682878,-0.92208254,9.685459,-0.7951465
82540363540158,-0.86939216,9.642349000000001,-0.80712163
82540383397567,-0.9148975,9.589659,-0.88376224
82540403254846,-0.9627979,9.625584,-0.87897223
82540423103056,-1.0705738,9.817185,-0.81909674
82540442960209,-0.98914313,9.7740755,-0.76161623
82540462817360,-0.9651929,9.7621,-0.84065187
82540482674512,-1.0274634,9.7621,-0.96758795
82540502531665,-1.0059083,9.750125,-0.9316626
82540522388816,-0.99393314,9.644744000000001,-0.79754156
82540542244822,-1.0514137,9.577683,-0.87178713
82540562101975,-1.0394385,9.620794,-0.94603276
82540581959126,-0.9388476999999998,9.6686945,-0.9196875
82540601816150,-0.977168,9.685459,-0.855022
82540621673303,-1.0035132,9.716595,-0.8933423
82540641531228,-0.9627979,9.695039999999999,-0.9963281999999999
82540661388380,-1.0322535,9.656719,-0.97956306
82540681245533,-1.0657837,9.6615095,-0.9627979
82540701102684,-0.9244776,9.6686945,-0.974773
82540720959964,-0.92926764,9.594449000000001,-1.0490186000000001
82540740817117,-1.0538087,9.572892999999999,-1.0035132
82540760669863,-1.0538087,9.673484,-0.8861573
82540780527015,-0.97237796,9.759705,-0.91250247
82540800384040,-0.9651929,9.733359,-1.0394385
82540820241063,-1.0322535,9.6758795,-1.0442286
82540840090608,-1.0418334999999999,9.716595,-0.91729254
82540859947505,-0.9987232,9.745335,-0.9436377
82540879804400,-1.0346485,9.68067,-1.0562036
82540899661296,-1.1088941,9.644744000000001,-1.094524
82540919518193,-1.1112891000000003,9.639954,-0.92926764
82540939371408,-0.9699829,9.616004,-0.91250247
82540959228304,-0.96758795,9.644744000000001,-1.0226734
82540979085073,-1.0442286,9.623189,-1.0562036
82540998941700,-1.0657837,9.690249,-0.9627979
82541018798468,-1.0226734,9.721385,-0.9580079
82541038655365,-1.0681788,9.716595,-1.0035132
82541058509127,-1.0681788,9.730965,-0.99393314
82541078365767,-1.0825489,9.702225,-0.974773
82541098222536,-1.0705738,9.649534,-0.8813671999999999
82541118079175,-1.0106983,9.632769,-0.94603276
82541137933829,-1.0921290000000001,9.685459,-0.9651929
82541157790470,-1.0705738,9.651928999999999,-0.96758795
82541177647109,-1.0418334999999999,9.685459,-0.8885523000000001
82541197503749,-1.0609937,9.6615095,-0.9699829
82541217360390,-1.0394385,9.613608000000001,-0.9963281999999999
82541237219224,-1.0849438999999999,9.73815,-0.9364527
82541257075864,-1.1041040000000002,9.733359,-0.9699829
82541276932505,-1.0753639,9.644744000000001,-0.974773
82541296789144,-1.1088941,9.608819,-0.93405765
82541316645784,-1.0849438999999999,9.613608000000001,-0.9627979
82541336502425,-1.0394385,9.642349000000001,-0.9053174
82541356354164,-1.0346485,9.671089,-0.9388476999999998
82541376210676,-1.0873389,9.68067,-0.977168
82541396067189,-1.1208692,9.726174,-0.9627979
82541415923828,-1.0729688,9.68067,-0.9244776
82541435787898,-1.1160791,9.666299,-0.9196875
82541455644539,-1.1304493,9.685459,-0.8933423
82541475501178,-1.0801538,9.649534,-0.9364527
82541495357818,-1.0538087,9.587264,-0.9508228000000001
82541515214459,-1.101709,9.673484,-0.9268726
82541535071098,-1.0370435,9.656719,-0.9436377
82541554924148,-1.1041040000000002,9.721385,-0.9029224
82541574780661,-1.1160791,9.671089,-0.8885523000000001
82541594637172,-1.0562036,9.649534,-0.9412427
82541614493684,-1.0633887,9.649534,-0.9508228000000001
82541634350197,-1.101709,9.635164,-0.9436377
82541654211639,-1.0442286,9.589659,-0.84544194
82541674068279,-1.0585986,9.637559,-0.91729254
82541693925048,-1.0729688,9.656719,-0.9651929
82541713781687,-1.0825489,9.64714,-0.8813671999999999
82541733643599,-1.094524,9.716595,-0.8143066999999999
82541753500368,-1.0562036,9.72857,-0.86939216
82541773357135,-1.0633887,9.7142,-0.9508228000000001
82541793214031,-1.1232642,9.644744000000001,-0.96040285
82541813070800,-1.0873389,9.599238,-0.86939216
82541832927567,-1.0202783000000002,9.639954,-0.85023195
82541852786188,-1.101709,9.639954,-0.974773
82541872643085,-1.1256591999999999,9.613608000000001,-0.9148975
82541892499980,-1.1304493,9.623189,-0.8262818000000001
82541912356876,-1.0849438999999999,9.644744000000001,-0.8214916999999999
82541932213773,-1.0514137,9.697434,-0.89573735
82541952071741,-1.0346485,9.6686945,-0.90771246
82541971928765,-1.0490186000000001,9.687855,-0.8765772
82541991785662,-1.1064991000000002,9.730965,-0.81191164
82542011642557,-1.0370435,9.656719,-0.8646021
82542031505170,-1.0849438999999999,9.659114,-0.8861573
82542051362195,-1.1232642,9.673484,-0.85741705
82542071219218,-1.0346485,9.656719,-0.79754156
82542091076242,-1.0298585,9.663903999999999,-0.84544194
82542110933139,-1.0849438999999999,9.730965,-0.88376224
82542130790162,-1.0729688,9.70941,-0.8143066999999999
82542150649289,-1.0562036,9.6758795,-0.8334668
82542170506314,-1.0130934,9.659114,-0.9029224
82542190363465,-1.0418334999999999,9.683064,-0.88376224
82542210220489,-1.0921290000000001,9.666299,-0.8478370000000001
82542230077642,-1.1328443000000001,9.64714,-0.8214916999999999
82542249937572,-1.0585986,9.702225,-0.85741705
82542269794724,-1.0609937,9.695039999999999,-0.86939216
82542289651877,-1.0490186000000001,9.64714,-0.92926764
82542309509028,-1.0514137,9.6686945,-0.8598120000000001
82542329371278,-1.0873389,9.663903999999999,-0.9268726
82542349228559,-1.1136841999999998,9.6686945,-0.9316626
82542369085966,-1.096919,9.639954,-0.91729254
82542388943246,-1.1160791,9.642349000000001,-0.9580079
82542408800527,-1.1352394,9.72378,-0.9532178
82542428657806,-1.089734,9.663903999999999,-0.9316626
82542448512666,-1.0394385,9.637559,-0.9388476999999998
82542468369819,-1.1543995,9.685459,-1.0106983
82542488227098,-1.1615845,9.642349000000001,-1.0418334999999999
82542508084378,-1.1879296999999998,9.616004,-0.92208254
82542527941659,-1.1448194,9.572892999999999,-0.9987232
82542547796963,-1.1112891000000003,9.6758795,-1.0035132
82542567654243,-1.1136841999999998,9.620794,-1.0083033000000001
82542587511396,-1.1735597,9.642349000000001,-0.9963281999999999
82542607368675,-1.1951148999999999,9.6686945,-0.92926764
82542627225827,-1.1160791,9.750125,-0.92926764
82542647083108,-1.1448194,9.718989,-0.96758795
82542666928617,-1.1711646,9.639954,-1.1064991000000002
82542686785641,-1.1543995,9.620794,-0.97237796
82542706642666,-1.1112891000000003,9.625584,-0.855022
82542726499689,-1.1328443000000001,9.616004,-0.9388476999999998
82542746351837,-1.1687696,9.642349000000001,-1.1088941
82542766208734,-1.219065,9.616004,-1.0059083
82542786065629,-1.1112891000000003,9.685459,-0.855022
82542805922525,-1.1160791,9.690249,-0.9627979
82542825779422,-1.1807446000000001,9.70941,-1.1184741000000002
82542845631910,-1.223855,9.742939999999999,-0.97237796
82542865488678,-1.1400293,9.611214,-0.9029224
82542885345575,-1.1376343,9.663903999999999,-1.0106983
82542905202342,-1.101709,9.611214,-1.099314
82542925059110,-1.1615845,9.553733,-1.0442286
82542944916007,-1.219065,9.627979,-0.91010743
82542964769458,-1.1328443000000001,9.72378,-0.9580079
82542984626098,-1.1328443000000001,9.695039999999999,-1.0729688
82543004482867,-1.2166698999999999,9.68067,-1.1041040000000002
82543024342847,-1.1687696,9.620794,-0.9627979
82543044203634,-1.0801538,9.625584,-0.98195803
82543064060531,-1.1496094,9.663903999999999,-1.0394385
82543083917298,-1.1927198,9.6615095,-1.0418334999999999
82543103774066,-1.1280543,9.627979,-0.89573735
82543123630963,-1.1088941,9.630374,-0.96040285
82543143486984,-1.0873389,9.651928999999999,-1.0777588
82543163343752,-1.1376343,9.6758795,-0.98195803
82543183200521,-1.1591895,9.745335,-0.88376224
82543203057288,-1.1280543,9.72857,-0.98435307
82543222914056,-1.1328443000000001,9.654325,-1.0921290000000001
82543242770697,-1.214275,9.678274,-1.0059083
82543262625733,-1.1041040000000002,9.604028999999999,-0.9580079
82543282482373,-1.0777588,9.589659,-1.0130934
82543302339142,-1.1807446000000001,9.606423,-1.1136841999999998
82543322195781,-1.2022998,9.692644,-0.98435307
82543342046868,-1.1088941,9.704619000000001,-0.9244776
82543361903509,-1.1136841999999998,9.639954,-1.0226734
82543381760020,-1.1208692,9.639954,-1.099314
82543401616660,-1.1496094,9.716595,-1.0035132
82543421473173,-1.1136841999999998,9.649534,-0.91729254
82543441329812,-1.1256591999999999,9.632769,-0.97237796
82543461196151,-1.1136841999999998,9.599238,-1.0154883
82543481052920,-1.1208692,9.6615095,-0.94603276
82543500909559,-1.0753639,9.711803999999999,-0.86939216
82543520766199,-1.0274634,9.718989,-0.96040285
82543540622968,-1.1208692,9.654325,-1.0298585
82543560488701,-1.1591895,9.651928999999999,-0.98914313
82543580345597,-1.1184741000000002,9.651928999999999,-0.87897223
82543600202494,-1.0825489,9.663903999999999,-0.9148975
82543620059261,-1.0657837,9.625584,-1.0202783000000002
82543639924410,-1.0705738,9.575289,-1.0250684
82543659781563,-1.099314,9.630374,-0.85741705
82543679638586,-1.0753639,9.783655,-0.81909674
82543699495738,-1.0226734,9.740545,-1.0130934
82543719352763,-1.1639795,9.666299,-1.0466236
82543739209786,-1.1376343,9.642349000000001,-0.8765772
82543759072247,-1.0226734,9.637559,-0.8167017
82543778929528,-0.9699829,9.522598,-1.0202783000000002
82543798786679,-1.1879296999999998,9.654325,-0.9412427
82543818643831,-1.0777588,9.764495,-0.84065187
82543838500984,-0.98435307,9.750125,-0.7807764
82543858360323,-1.0609937,9.663903999999999,-0.9412427
82543878217603,-1.1041040000000002,9.678274,-0.97956306
82543898074884,-1.0011181999999998,9.635164,-0.7711963000000001
82543917932163,-1.0250684,9.654325,-0.82388675
82543937789443,-1.0753639,9.678274,-0.8981324
82543957646724,-1.0729688,9.707015,-0.89573735
82543977511365,-1.0011181999999998,9.627979,-0.79754156
82543997368901,-0.9915381,9.618399,-0.8214916999999999
82544017226438,-1.0178833,9.6615095,-0.81191164
82544037083845,-1.0035132,9.70941,-0.8214916999999999
82544056938609,-1.0657837,9.721385,-0.7807764
82544076796146,-1.0178833,9.711803999999999,-0.8382569
82544096653681,-1.0202783000000002,9.659114,-0.8430469
82544116511217,-1.0370435,9.604028999999999,-0.8382569
82544136368754,-1.0514137,9.659114,-0.8143066999999999
82544156229069,-0.99393314,9.697434,-0.7831714
82544176086733,-0.98914313,9.702225,-0.8262818000000001
82544195944398,-1.0274634,9.692644,-0.8765772
82544215801933,-1.0154883,9.671089,-0.8598120000000001
82544235659597,-0.98435307,9.699829,-0.74724615
82544255517262,-1.0035132,9.673484,-0.8214916999999999
82544275371938,-1.0083033000000001,9.685459,-0.8478370000000001
82544295229474,-1.0633887,9.716595,-0.86220706
82544315087011,-1.0370435,9.6758795,-0.8167017
82544334944546,-0.9915381,9.659114,-0.81191164
82544354797029,-1.0418334999999999,9.673484,-0.86939216
82544374654438,-1.0490186000000001,9.7142,-0.8933423
82544394511845,-1.0490186000000001,9.685459,-0.7759864000000001
82544414369381,-0.977168,9.589659,-0.85023195
82544434226790,-1.0585986,9.608819,-0.9412427
82544454068916,-1.0466236,9.671089,-0.9196875
82544473926068,-1.0370435,9.704619000000001,-0.8478370000000001
82544493783093,-1.1088941,9.671089,-0.91729254
82544513640244,-1.1041040000000002,9.6758795,-0.9532178
82544533497396,-1.0609937,9.73815,-0.8646021
82544553354549,-1.0801538,9.704619000000001,-0.8646021
82544573202301,-1.0849438999999999,9.644744000000001,-0.9532178
82544593059197,-1.0753639,9.635164,-1.0035132
82544612916094,-1.099314,9.625584,-1.0011181999999998
82544632773117,-1.0921290000000001,9.673484,-0.8334668
82544652627876,-1.0538087,9.690249,-0.83586186
82544672484645,-1.0250684,9.6686945,-0.9963281999999999
82544692341540,-1.0705738,9.611214,-1.0442286
82544712198436,-1.1280543,9.572892999999999,-0.9148975
82544732055205,-1.1136841999999998,9.651928999999999,-0.84544194
82544751901238,-1.0705738,9.7812605,-0.9196875
82544771757879,-1.0777588,9.778865,-1.0130934
82544791614520,-1.1591895,9.718989,-0.9532178
82544811471158,-1.099314,9.656719,-0.8885523000000001
82544831327798,-1.0346485,9.639954,-0.9364527
82544851184311,-1.1232642,9.606423,-1.0705738
82544871017703,-1.1424243,9.630374,-0.9915381
82544890873831,-1.0633887,9.6758795,-0.85741705
82544910729832,-1.089734,9.623189,-1.0035132
82544930585959,-1.1520045,9.702225,-1.0633887
82544950441791,-1.1280543,9.690249,-0.9364527
82544970297664,-1.0418334999999999,9.639954,-0.93405765
82544990153663,-1.0873389,9.671089,-0.98435307
82545010009535,-1.0490186000000001,9.639954,-1.0298585
82545029865408,-1.0873389,9.7740755,-0.9316626
82545049718845,-1.1041040000000002,9.726174,-0.86939216
82545069575708,-1.0322535,9.654325,-0.98435307
82545089431581,-1.0921290000000001,9.630374,-1.0394385
82545109287452,-1.099314,9.632769,-0.977168
82545129143452,-1.0298585,9.649534,-0.91010743
82545148999325,-1.0609937,9.68067,-1.0154883
82545168869599,-1.1088941,9.651928999999999,-1.0298585
82545188725727,-1.0849438999999999,9.637559,-0.974773
82545208581856,-1.101709,9.659114,-0.95561284
82545228438113,-1.0466236,9.642349000000001,-0.974773
82545248303735,-1.0633887,9.666299,-0.9651929
82545268160120,-1.0849438999999999,9.7142,-0.9627979
82545288016503,-1.0250684,9.685459,-0.90771246
82545307872759,-1.0370435,9.692644,-0.9532178
82545327729144,-1.094524,9.627979,-0.9915381
82545347585527,-1.1304493,9.707015,-0.92926764
82545367446714,-1.0394385,9.685459,-0.86939216
82545387303227,-1.0777588,9.649534,-0.9508228000000001
82545407159610,-1.0849438999999999,9.635164,-0.9196875
82545427016122,-0.9987232,9.654325,-0.91729254
82545446872635,-1.0178833,9.745335,-0.8095166
82545466740241,-1.0346485,9.711803999999999,-0.95561284
82545486597009,-1.0394385,9.632769,-0.9651929
82545506453650,-1.0657837,9.630374,-0.9388476999999998
82545526310289,-1.0346485,9.733359,-0.84544194
82545546170848,-0.9987232,9.726174,-0.9316626
82545566027745,-1.0729688,9.568104,-1.0705738
82545585884512,-1.1927198,9.642349000000001,-0.93405765
82545605741280,-0.98914313,9.70941,-0.7592211999999999
82545625598177,-0.9364527,9.72857,-0.8334668
82545645454944,-1.0514137,9.685459,-0.9580079
82545665317283,-1.0466236,9.692644,-0.9029224
82545685174308,-1.0466236,9.77168,-0.79754156
82545705031203,-0.98914313,9.70941,-0.8095166
82545724888099,-1.0106983,9.651928999999999,-0.91250247
82545744745124,-1.0657837,9.601633999999999,-0.9651929
82545764612716,-1.096919,9.6615095,-0.82388675
82545784469868,-1.0226734,9.678274,-0.8310718
82545804327149,-1.0490186000000001,9.692644,-0.96758795
82545824184300,-1.0801538,9.611214,-0.96040285
82545844046139,-1.0370435,9.649534,-0.82388675
82545863903548,-0.9867481,9.75252,-0.7759864000000001
82545883760955,-1.0083033000000001,9.702225,-0.8909473
82545903618363,-1.0466236,9.659114,-0.8765772
82545923475772,-1.0130934,9.6615095,-0.8286768
82545943333179,-1.0106983,9.72857,-0.69695073
82545963199669,-0.9532178,9.699829,-0.76401126
82545983057334,-1.0035132,9.687855,-0.84544194
82546002914997,-1.0250684,9.740545,-0.8095166
82546022772789,-0.8933423,9.704619000000001,-0.77359134
82546042630454,-0.97237796,9.64714,-0.7927515
82546062481266,-1.0705738,9.651928999999999,-0.7927515
82546082338802,-0.974773,9.742939999999999,-0.70174074
82546102196467,-0.95561284,9.726174,-0.73048097
82546122054002,-1.0035132,9.642349000000001,-0.852627
82546141911538,-0.95561284,9.616004,-0.8047266
82546161769075,-0.91250247,9.718989,-0.73048097
82546181621734,-0.9867481,9.7740755,-0.7544312
82546201479270,-0.977168,9.654325,-0.80233157
82546221336807,-0.98914313,9.659114,-0.7807764
82546241194216,-0.9532178,9.733359,-0.7759864000000001
82546261057259,-0.85741705,9.656719,-0.7711963000000001
82546280915052,-0.93405765,9.707015,-0.77359134
82546300772717,-1.0011181999999998,9.70941,-0.78556645
82546320630382,-0.9436377,9.718989,-0.76880133
82546340488047,-0.9532178,9.6686945,-0.7783814
82546360344084,-1.0442286,9.7142,-0.80712163
82546380201621,-0.9484278,9.663903999999999,-0.71371585
82546400059286,-0.91729254,9.644744000000001,-0.77359134
82546419916951,-1.0657837,9.711803999999999,-0.7927515
82546439774616,-0.9148975,9.690249,-0.7951465
82546459632281,-0.92926764,9.651928999999999,-0.7927515
82546479473434,-1.0059083,9.623189,-0.8095166
82546499330587,-0.95561284,9.754914999999999,-0.6610254
82546519187740,-0.8310718,9.707015,-0.7376661
82546539044893,-1.0202783000000002,9.644744000000001,-0.84065187
82546558897300,-0.99393314,9.654325,-0.75203615
82546578754325,-0.9053174,9.7142,-0.7376661
82546598611478,-0.9412427,9.704619000000001,-0.76880133
82546618468503,-0.977168,9.649534,-0.8478370000000001
82546638325528,-0.97956306,9.627979,-0.7592211999999999
82546658182681,-0.98435307,9.7142,-0.73048097
82546678028987,-0.9412427,9.7142,-0.7376661
82546697885884,-0.9484278,9.6686945,-0.8430469
82546717742653,-1.0418334999999999,9.707015,-0.82388675
82546737599422,-0.9316626,9.764495,-0.70174074
82546757456191,-0.90052736,9.663903999999999,-0.7927515
82546777317874,-1.0178833,9.644744000000001,-0.85023195
82546797174642,-0.98914313,9.663903999999999,-0.76161623
82546817031539,-0.92208254,9.759705,-0.69695073
82546836888434,-0.98195803,9.742939999999999,-0.7496411000000001
82546856742898,-0.9651929,9.695039999999999,-0.8861573
82546876599795,-0.96040285,9.6615095,-0.855022
82546896456562,-0.9987232,9.6686945,-0.74724615
82546916313458,-0.97956306,9.702225,-0.6730005
82546936170355,-0.9196875,9.673484,-0.855022
82546956027122,-1.0657837,9.704619000000001,-0.8143066999999999
82546975879032,-0.9915381,9.750125,-0.728086
82546995735673,-0.86220706,9.7142,-0.7951465
82547015592440,-0.91729254,9.644744000000001,-0.96040285
82547035448910,-0.9963281999999999,9.649534,-0.9268726
82547055305551,-1.0274634,9.707015,-0.728086
82547075155991,-0.9532178,9.7142,-0.852627
82547095012631,-0.97237796,9.673484,-0.96758795
82547114869272,-1.0562036,9.627979,-0.94603276
82547134725911,-1.0083033000000001,9.656719,-0.8286768
82547154583010,-0.9508228000000001,9.695039999999999,-0.8669971
82547174439523,-0.9867481,9.721385,-0.9412427
82547194296036,-1.0370435,9.697434,-0.9196875
82547214152674,-1.0059083,9.721385,-0.87418216
82547234009187,-1.0106983,9.673484,-0.9364527
82547253865698,-1.0681788,9.704619000000001,-0.89573735
82547273726062,-1.0250684,9.716595,-0.855022
82547293582703,-0.95561284,9.651928999999999,-0.9316626
82547313439342,-1.0585986,9.663903999999999,-0.9436377
82547333295854,-1.0442286,9.656719,-0.977168
82547353152495,-0.99393314,9.623189,-0.9244776
82547373014894,-1.094524,9.695039999999999,-0.92208254
82547392871662,-1.0801538,9.730965,-0.8981324
82547412728431,-0.9436377,9.613608000000001,-0.9699829
82547432585198,-1.0657837,9.678274,-0.9508228000000001
82547452448037,-1.0298585,9.72378,-0.9388476999999998
82547472304806,-1.0154883,9.7142,-0.8813671999999999
82547492161701,-1.0873389,9.618399,-0.97237796
82547512018469,-1.096919,9.594449000000001,-1.0298585
82547531875366,-1.0226734,9.642349000000001,-0.84065187
82547551732261,-0.9532178,9.77168,-0.78556645
82547571585616,-0.91729254,9.7142,-0.9412427
82547591442385,-1.0130934,9.627979,-1.094524
82547611299152,-1.1112891000000003,9.678274,-0.8598120000000001
82547631156048,-1.0274634,9.759705,-0.7424561
82547651012817,-0.9388476999999998,9.735755000000001,-0.9316626
82547670871757,-1.0825489,9.620794,-1.0562036
82547690728525,-1.0801538,9.704619000000001,-0.8909473
82547710585422,-0.9436377,9.692644,-0.79754156
82547730442317,-0.98195803,9.594449000000001,-1.0059083
82547750299085,-1.1232642,9.627979,-0.97237796
82547770155982,-0.98435307,9.611214,-0.88376224
82547790018824,-1.0178833,9.718989,-0.7783814
82547809875720,-0.9867481,9.666299,-0.9508228000000001
82547829732745,-0.9627979,9.656719,-1.0130934
82547849589640,-1.0657837,9.6758795,-0.8598120000000001
82547869452516,-1.0130934,9.690249,-0.81191164
82547889309669,-0.9580079,9.651928999999999,-0.89573735
82547909166692,-1.0490186000000001,9.604028999999999,-1.0178833
82547929023844,-1.0274634,9.73815,-0.80712163
82547948880997,-0.9244776,9.817185,-0.81191164
82547968745542,-0.9580079,9.690249,-0.977168
82547988602822,-1.0370435,9.627979,-0.97237796
82548008460231,-1.0466236,9.606423,-0.9244776
82548028317510,-1.0178833,9.704619000000001,-0.8334668
82548048174790,-0.95561284,9.697434,-0.8861573
82548068032199,-0.9627979,9.582474000000001,-0.9508228000000001
82548087885219,-0.9915381,9.604028999999999,-0.88376224
82548107742499,-1.0226734,9.730965,-0.8143066999999999
82548127599652,-0.9915381,9.77168,-0.81909674
82548147456931,-0.9699829,9.718989,-0.8598120000000001
82548167319480,-0.9627979,9.733359,-0.86939216
82548187176761,-0.9436377,9.699829,-0.8214916999999999
82548207034168,-0.95561284,9.70941,-0.7544312
82548226891576,-0.977168,9.690249,-0.78556645
82548246748985,-0.96758795,9.754914999999999,-0.8167017
82548266609394,-0.9508228000000001,9.663903999999999,-0.79993653
82548286466802,-0.9508228000000001,9.606423,-0.855022
82548306324211,-0.9915381,9.623189,-0.81191164
82548326181618,-0.9987232,9.683064,-0.76880133
82548346039026,-0.9268726,9.6686945,-0.7568262
82548365896435,-0.95561284,9.64714,-0.87418216
82548385760077,-0.9867481,9.644744000000001,-0.87178713
82548405617613,-0.9532178,9.716595,-0.73048097
82548425475278,-0.92208254,9.795630000000001,-0.71371585
82548445332813,-0.92208254,9.685459,-0.8598120000000001
82548465180280,-0.9867481,9.620794,-0.8598120000000001
82548485037817,-1.0130934,9.685459,-0.74724615
82548504895224,-0.9268726,9.795630000000001,-0.732876
82548524752632,-0.8813671999999999,9.678274,-0.8646021
82548544610041,-1.0442286,9.623189,-0.88376224
82548564456836,-0.9867481,9.642349000000001,-0.7807764
82548584314116,-0.8430469,9.716595,-0.7209009
82548604171269,-0.9699829,9.70941,-0.7448511
82548624028548,-0.9651929,9.649534,-0.7711963000000001
82548643885700,-0.90771246,9.692644,-0.7376661
82548663742981,-0.9268726,9.75252,-0.74006104
82548683591125,-0.87897223,9.644744000000001,-0.81909674
82548703448021,-0.98195803,9.575289,-0.7544312
82548723305046,-1.0514137,9.764495,-0.7209009
82548743161941,-0.8861573,9.841136,-0.6706055000000001
82548763015709,-0.8861573,9.695039999999999,-0.78556645
82548782872606,-1.0442286,9.632769,-0.8262818000000001
82548802729501,-0.9244776,9.651928999999999,-0.7376661
82548822586269,-0.8382569,9.70941,-0.6562354
82548842443166,-0.8813671999999999,9.630374,-0.7544312
82548862300061,-0.9867481,9.7142,-0.732876
82548882156262,-0.8765772,9.754914999999999,-0.6442603
82548902013159,-0.8382569,9.73815,-0.7161109
82548921869926,-0.87418216,9.582474000000001,-0.82388675
82548941726822,-0.974773,9.604028999999999,-0.8262818000000001
82548961583719,-0.98914313,9.754914999999999,-0.62510014
82548981441304,-0.8286768,9.718989,-0.7113208000000001
82549001298200,-0.9364527,9.659114,-0.86939216
82549021154969,-1.0035132,9.72378,-0.8286768
82549041011864,-0.86220706,9.73815,-0.69695073
82549060866780,-0.8646021,9.651928999999999,-0.7879615
82549080723549,-0.9651929,9.644744000000001,-0.8669971
82549100580444,-0.96040285,9.699829,-0.7376661
82549120437212,-0.91729254,9.64714,-0.6849755999999999
82549140294109,-0.8646021,9.604028999999999,-0.76401126
82549160151004,-0.8334668,9.651928999999999,-0.86939216
82549179999269,-0.8669971,9.70941,-0.83586186
82549199855910,-0.8981324,9.663903999999999,-0.79035646
82549219712421,-0.9987232,9.817185,-0.7664063
82549239569061,-0.9196875,9.687855,-0.78556645
82549259425574,-0.92208254,9.644744000000001,-0.85741705
82549279288323,-0.974773,9.702225,-0.7711963000000001
82549299144963,-0.9508228000000001,9.699829,-0.85023195
82549319001604,-0.9196875,9.671089,-0.8143066999999999
82549338858243,-0.9436377,9.678274,-0.7424561
82549358717607,-0.86939216,9.81,-0.74724615
82549378574376,-0.7783814,9.683064,-0.84544194
82549398431015,-0.9508228000000001,9.565708,-0.9316626
82549418287783,-1.0130934,9.64714,-0.74724615
82549438144424,-0.8214916999999999,9.733359,-0.73048097
82549458001191,-0.7831714,9.7142,-0.87897223
82549477866035,-0.94603276,9.678274,-0.90052736
82549497722932,-0.84065187,9.666299,-0.82388675
82549517579699,-0.90771246,9.666299,-0.8214916999999999
82549537436595,-0.974773,9.6615095,-0.8765772
82549557293492,-0.96758795,9.699829,-0.83586186
82549577150499,-0.9508228000000001,9.73815,-0.78556645
82549597007393,-0.88376224,9.659114,-0.84544194
82549616864290,-0.8214916999999999,9.620794,-0.9412427
82549636721185,-0.9412427,9.730965,-0.87178713
82549656574314,-0.9244776,9.807606,-0.79035646
82549676431083,-0.9029224,9.800421,-0.7879615
82549696287850,-0.9244776,9.692644,-0.92208254
82549716144618,-0.91729254,9.692644,-0.93405765
82549736001387,-0.87897223,9.687855,-0.8430469
82549755858154,-0.84544194,9.673484,-0.9148975
82549775721139,-0.9508228000000001,9.599238,-0.9963281999999999
82549795578036,-1.0585986,9.735755000000001,-0.9148975
82549815435059,-0.9436377,9.735755000000001,-0.81909674
82549835291955,-0.86939216,9.685459,-0.94603276
82549855148852,-0.97956306,9.663903999999999,-1.0705738
82549875008941,-0.98435307,9.6686945,-0.93405765
82549894865965,-0.86939216,9.654325,-0.9053174
82549914723118,-0.9915381,9.649534,-1.0562036
82549934580141,-1.0825489,9.635164,-1.0442286
82549954437293,-0.9532178,9.73815,-0.86220706
82549974294318,-0.92208254,9.704619000000001,-0.8646021
82549994155504,-0.8646021,9.704619000000001,-1.0250684
82550014012784,-0.8813671999999999,9.766891000000001,-1.0322535
82550033870065,-0.92926764,9.750125,-0.9508228000000001
82550053727218,-0.8933423,9.642349000000001,-0.91010743
82550073582454,-0.85741705,9.616004,-0.9699829
82550093439607,-0.9412427,9.6686945,-0.9651929
82550113296886,-0.83586186,9.697434,-0.84065187
82550133154038,-0.86220706,9.699829,-0.89573735
82550153011191,-0.8909473,9.639954,-0.97237796
82550172871286,-0.8981324,9.70941,-0.92208254
82550192728567,-0.8765772,9.769285,-0.81909674
82550212585720,-0.79993653,9.6686945,-0.852627
82550232443001,-0.87897223,9.685459,-0.9244776
82550252300154,-0.87897223,9.726174,-0.8598120000000001
82550272157435,-0.85741705,9.742939999999999,-0.79754156
82550292015990,-0.84065187,9.77647,-0.8214916999999999
82550311873271,-0.8981324,9.599238,-0.9268726
82550331730424,-0.98195803,9.627979,-0.85023195
82550351587705,-0.8861573,9.788445,-0.73048097
82550371446508,-0.852627,9.733359,-0.8478370000000001
82550391303661,-0.9532178,9.639954,-0.8885523000000001
82550411160942,-1.0442286,9.704619000000001,-0.85023195
82550431018223,-0.9436377,9.704619000000001,-0.728086
82550450875504,-0.85023195,9.644744000000001,-0.8095166
82550470726543,-1.0011181999999998,9.73815,-0.855022
82550490583696,-0.9196875,9.745335,-0.7759864000000001
82550510440849,-0.81191164,9.740545,-0.7161109
82550530298002,-0.9196875,9.699829,-0.8669971
82550550155155,-0.8981324,9.659114,-0.8765772
82550570012308,-0.96040285,9.678274,-0.62989014
82550589858453,-0.9532178,9.826766000000001,-0.62749517
82550609715478,-0.86220706,9.656719,-0.85741705
82550629572375,-0.89573735,9.663903999999999,-0.73048097
82550649429377,-0.90771246,9.651928999999999,-0.6682104999999999
82550669284476,-0.91250247,9.795630000000001,-0.6849755999999999
82550689141245,-0.8909473,9.848321,-0.7185059
82550708998142,-0.8861573,9.580078,-0.7807764
82550728855035,-0.95561284,9.68067,-0.6777906
82550748711932,-0.8765772,9.716595,-0.7592211999999999
82550768568827,-0.8167017,9.635164,-0.81909674
82550788424870,-1.0873389,9.78605,-0.6993457
82550808281639,-1.0609937,9.70941,-0.6322852
82550828138534,-0.9651929,9.666299,-0.62031007
82550847995302,-0.9699829,9.778865,-0.6227050999999999
82550867852071,-0.8813671999999999,9.75731,-0.70174074
82550887703334,-0.7376661,9.853110000000001,-0.68737066
82550907559974,-0.72569096,10.126142999999999,-0.6777906
82550927416743,-0.7783814,9.912986,-0.6610254
82550947273510,-0.93405765,9.872271000000001,-0.61552006
82550967129607,-1.0825489,10.008787,-0.6059399999999999
82550986986248,-0.93405765,9.730965,-0.63707525
82551006842887,-0.87418216,9.898616,-0.5939649
82551026699655,-0.8382569,9.939331,-0.59156984
82551046556296,-0.6849755999999999,9.78605,-0.68737066
82551066412935,-0.7783814,10.039923,-0.5412744
82551086264102,-0.86220706,9.898616,-0.59156984
82551106120743,-0.8765772,9.735755000000001,-0.728086
82551125975713,-0.9867481,10.142908,-0.45744875
82551145832354,-0.85023195,9.946517,-0.5340894
82551165688995,-0.6682104999999999,9.587264,-0.6179150999999999
82551185545080,-0.9699829,10.037527,-0.57001466
82551205401590,-0.9532178,10.008787,-0.5843848
82551225258231,-0.77359134,9.7812605,-0.61552006
82551245114742,-1.0035132,9.946517,-0.30416748
82551264976837,-0.92926764,9.807606,-0.5221143
82551284833350,-0.8286768,10.085427000000001,-0.6706055000000001
82551304689989,-0.8047266,10.1189575,-0.4167334
82551324546629,-0.7759864000000001,9.656719,-0.50534916
82551344403270,-1.0035132,9.821976,-0.49337405
82551364259909,-0.9268726,9.769285,-0.4167334
82551384121224,-0.855022,9.7740755,-0.4143384
82551403977993,-0.8981324,10.224339,-0.2562671
82551423834632,-0.8310718,9.941727,-0.364043
82551443691400,-0.9580079,9.8866415,-0.42152345
82551463548041,-1.0274634,10.130933,-0.21794678
82551483408039,-0.89573735,10.066267999999999,-0.15328126
82551503264807,-0.90052736,10.229128999999999,-0.14370118
82551523121576,-0.91729254,10.3440895,-0.014370117
82551542978343,-0.9436377,9.948912,0.22273682
82551562834983,-1.0633887,10.250684,0.45984375
82551582691752,-1.0083033000000001,10.40157,0.8909473
82551602541657,-0.855022,10.032737,1.089734
82551622398297,-1.0753639,10.133328,1.2909156000000002
82551642254938,-0.98195803,10.356065,0.728086
82551662111579,-0.74724615,10.732083,0.5388794
82551681969948,-0.34009278,11.433824000000001,-0.21076173
82551701826589,-0.28261232,11.429033,-0.18681154
82551721683228,-0.6059399999999999,10.305769999999999,0.732876
82551741539868,-1.1472143999999997,9.917776,0.16525635
82551761396508,-1.7244141,9.910591,1.2933106
82551781253148,-1.6118482,8.566985,0.10538086
82551801106180,-1.3915064,8.662786500000001,-0.05269043
82551820962820,-0.3903882,9.096285,0.1460962
82551840819460,-0.33290774,9.982442,1.4465919
82551860676100,-0.36164796,9.903406,2.0453467
82551880532740,-0.5891748,9.5489435,1.710044
82551900401060,-0.42870852,9.577683,1.1951148999999999
82551920257956,-0.3065625,9.848321,1.7555493999999998
82551940114724,-0.13651612,9.553733,3.051255
82551959971620,-0.33769777,8.787327000000001,4.0044727
82551979828516,-0.8598120000000001,8.669971,4.363725700000001
82551999691843,-1.0274634,9.316627,5.163662400000001
82552019548867,-0.60833496,10.540482,5.599556
82552039406019,-0.13172609,10.308164999999999,4.960086
82552059263043,-0.19160157,9.220825,5.192402400000001
82552079120067,-0.32093263,8.533455,5.6905665
82552098976805,-0.5987549,8.686736,5.1085769999999995
82552118833958,-0.41912845,8.851992999999998,5.407954
82552138690983,0.098195806,8.602911,5.166057599999999
82552158548005,0.5364844,8.073611,5.384004
82552178405157,1.3555812,7.503596300000001,5.3097587
82552198259781,1.9112256999999997,7.2616997,4.8523097
82552218116677,0.23710695,9.074729,3.151846
82552237973701,-5.0750465,14.022839999999999,-5.8198977
82552257830597,-4.984036,13.613292000000001,-3.5398389999999997
82552277687622,-3.9517824999999998,6.550379,4.2200246
82552297552477,-5.2091675,4.030818,-0.3784131
82552317409630,-3.9110669999999996,7.350314999999999,-1.6334034
82552337266783,-2.7590625,11.596685,-1.5998731000000002
82552357123932,-1.3771361999999998,13.680352,-5.599556
82552376981084,2.7015822,10.588382000000001,-1.9160157
82552396842386,2.1698877999999997,10.032737,1.4585668999999999
82552416699794,0.28500733,9.788445,-0.53169435
82552436557074,0.95561284,8.198153,-1.0729688
82552456414354,0.6394701999999999,8.473578999999999,1.0921290000000001
82552476271634,0.9987232,9.8866415,1.4825171
82552496125397,2.1722827000000002,10.777588,1.5040723
82552515982549,2.2848487,9.479486999999999,0.21315674
82552535839701,1.3795313,7.482041400000001,-1.7483643
82552555696981,-0.44786867,7.7814190000000005,0.038320314
82552575554133,-2.0142113999999998,9.553733,1.7220191000000002
82552595404495,-2.4237599999999997,9.522598,1.5064673000000002
82552615261647,-2.2249732000000004,9.153765,1.4082716
82552635118671,-1.8274,9.501043,0.22992188
82552654975823,0.50774413,10.653048,-0.7065308000000001
82552674832847,2.9889846,10.763218,-2.323169
82552694682291,3.9661524,10.181229,-1.1448194
82552714539188,4.8714699999999995,10.609937,1.8369801
82552734395955,2.6201515,12.351116000000001,0.6682104999999999
82552754252851,-1.5064673000000002,14.597645000000002,-0.488584
82552774109747,-4.184099,14.528189000000001,-0.6730005
82552793972301,-2.8333082000000003,12.77743,-3.2021412999999996
82552813829325,-2.6129665,11.843372,-3.4775686
82552833686221,-3.65959,12.387041,-3.166216
82552853543245,-4.782854,14.856307000000001,-4.471502
82552873400141,-8.116721,16.681313,-1.7411792000000001
82552893251167,-12.566668,14.595248999999999,4.6511283
82552913108063,-5.740862,8.914263,4.567302
82552932964959,-2.2896388,6.9551373,1.5783178999999998
82552952821855,-3.3051271,7.0748880000000005,-0.55803955
82552972678751,0.24189699,7.90117,-1.575923
82552992542120,1.9255958,7.922724700000001,-5.575606
82553012399144,2.9362939999999997,5.2091675,-4.049978299999999
82553032256168,3.06802,2.8093581000000003,-0.2682422
82553052113008,0.728086,3.544629,3.3506324
82553071970033,-2.5004005,4.5960426,2.6728419999999997
82553091820630,-3.899092,4.3493557,3.2165112000000002
82553111677652,-1.3483961000000002,3.9493873,3.8511915
82553131534676,-1.1208692,3.3099171999999997,3.6116896
82553151391572,-2.6129665,3.8368216,5.1684523
82553171248596,-1.8321900000000002,6.789880800000001,8.713080999999999
82553191103133,0.5676197,15.586788,15.067067999999999
82553210960030,5.012776000000001,20.036734,17.742306
82553230816799,3.8416114,10.164463,8.020921000000001
82553250673696,-3.6811452000000005,4.2080493,-4.7636943
82553270530593,-3.2189064,9.764495,-0.48139894
82553290395548,-2.3998096,16.623829999999998,-0.8143066999999999
82553310252573,-12.030184,23.305937,-10.87818
82553330109598,-5.752837,11.646980000000001,3.7194655
82553349966623,-3.6332447999999995,3.0847852000000002,1.6932789000000001
82553369823520,-3.0847852000000002,7.513176400000001,-1.5160475
82553389672931,-2.6776318999999997,10.571617,-1.9591261000000002
82553409529700,-2.0190015,9.635164,-3.5877394999999996
82553429386469,-0.09101075,8.966953,-8.167017
82553449243238,0.57719976,7.879614999999999,-7.8652444
82553469100007,1.4992822000000001,6.70366,-4.8115945
82553488966326,2.4237599999999997,7.5012016,0.90052736
82553508823223,1.4178516,11.845767,7.817344
82553528680248,1.4058765,10.013577,-1.81782
82553548537145,3.2380664,8.241261999999999,-2.9937747000000003
82553568394170,3.7146754,11.024275999999999,0.8214916999999999
82553588247707,2.8309132999999997,9.544153,0.9484278
82553608104604,0.8813671999999999,6.976692,-1.7244141
82553627961501,0.7879615,8.945397999999999,3.63564
82553647818398,0.34727785,11.045831,1.8250049
82553667675274,-0.17962648,10.9069195,-1.3220508
82553687537057,-0.122146,10.9069195,0.364043
82553707394082,0.43589357,11.431429,1.1328443000000001
82553727251107,0.7209009,12.140353999999999,0.5604346
82553747108132,0.016765138,12.983400999999999,-1.0202783000000002
82553766965153,-1.9399658,14.612015,0.05269043
82553786829589,-4.0595584,15.843055,2.3854396
82553806686741,-3.8679566,14.561719,-1.3651612
82553826543893,-3.2380664,13.251643,-4.6583133000000005
82553846401045,-8.56938,14.085110999999998,-3.5973196000000005
82553866258197,-10.554852,14.338982999999999,-1.3962965
82553886121474,-6.2270513,9.910591,1.7148341
82553905978882,-1.7411792000000001,8.954978,5.822293
82553925836162,-0.8598120000000001,11.153606,1.0226734
82553945693570,1.6860938,11.452983999999999,-2.6417067000000003
82553965550850,4.749324,8.327483,-3.180586
82553985412707,2.064507,5.376819,-3.3482375
82554005270115,-1.6357985000000002,6.052214599999999,0.031135255
82554025127651,-2.8668384999999996,3.7697608,0.5604346
82554044985059,-0.38559815,1.829795,1.0298585
82554064842595,0.62749517,1.9998415,2.2608986
82554084700131,-0.91010743,2.818938,3.8320315000000003
82554104548463,-1.2070899,3.1566357999999997,5.0343313
82554124405872,-0.48379397,4.184099,7.661668
82554144263151,0.4382886,12.209810000000001,15.361656
82554164120559,2.9171337999999998,22.462889,15.730489000000002
82554183977839,3.4560134,15.84066,4.5792775
82554203836241,-0.62510014,7.32397,-4.2200246
82554223693521,-3.3410523000000003,8.329877999999999,-2.0429518
82554243550929,-5.1373169999999995,10.106983,-4.152964
82554263408209,-10.818304,13.330679,-0.20118165
82554283265618,-1.5256275,9.860296,7.640112400000001
82554303122165,-2.9003687,7.786208599999999,-2.5842261000000004
82554322979446,-3.5566041,11.088941,-6.1049050000000005
82554342836727,1.583108,11.53202,-4.981641000000001
82554362694136,2.2058132,11.043435,-5.647456
82554382551417,1.2118799999999998,10.782378,-4.126619
82554402405924,0.9508228000000001,9.829161000000001,2.6417067000000003
82554422263205,-0.79035646,8.923843,0.21315674
82554442120486,-0.2802173,8.969349000000001,-2.3710694
82554461977895,-0.53169435,9.390872,0.035925295
82554481835176,-0.9364527,8.250843,1.2645704
82554501685209,-0.0023950195999999997,8.957374,1.0777588
82554521542362,0.3305127,9.19927,-0.57959473
82554541399515,-0.0023950195999999997,8.231683,0.14849122
82554561256540,1.8896705000000003,8.566985,1.8154249
82554581113693,3.7889209999999998,9.611214,1.2406201000000001
82554600964264,3.06323,9.541758999999999,-1.9687061000000001
82554620821289,2.1171973,10.023157000000001,0.5460645000000001
82554640678314,0.25866213,11.218272,3.3889527000000004
82554660535339,-1.1496094,10.990746000000001,1.9711011999999999
82554680392364,-2.0190015,10.375225,1.3436059999999999
82554700242135,-4.061953,11.254197,-0.51971924
82554720098904,-4.406836,13.170213,-3.1159205
82554739955653,-2.2345533,14.473104000000001,-3.4703834000000002
82554759812550,-0.41194338,12.327166,-2.8955786
82554779669319,-0.85741705,10.181229,-4.169729
82554799526317,-2.095642,11.994258,-3.9901028
82554819383085,-3.3410523000000003,13.500726,-0.38080812
82554839239853,-4.3445654000000005,11.5895,3.0823902999999997
82554859096621,-2.5195606,10.633887,2.8740237
82554878953389,-1.2621753,10.202784,0.7759864000000001
82554898806488,-1.8800903999999998,10.056687,1.1543995
82554918663256,-2.1507277,9.0076685,-0.102985844
82554938519896,-0.61073,7.939490299999999,-1.1591895
82554958376664,-0.51013917,6.8952613,-1.6070582
82554978233432,-0.49337405,6.1240654,-1.710044
82554998086404,0.40954837,7.110813,0.62989014
82555017942916,-0.016765138,5.3935843,-1.1136841999999998
82555037799556,-0.22513184,2.8141482000000004,-0.38559815
82555057656068,0.18441652,3.9781277000000004,0.6658155
82555077512708,0.62989014,7.232959299999999,0.45744875
82555097369775,0.34727785,8.58854,0.64186525
82555117226415,-1.1256591999999999,9.228010000000001,0.86220706
82555137087068,-1.9040406000000003,10.791959,3.5973196000000005
82555156943709,-1.0035132,11.682906,10.483001
82555176800348,-1.7028589,10.894944,7.719148
82555196654087,-0.30895755,11.053016,-0.6777906
82555216510599,2.2585034,12.12838,-5.352869
82555236366983,-0.21315674,14.053975,-5.1732426
82555256223495,-1.8561403000000003,14.3749075,-1.453777
82555276079879,-2.0261867,12.078084,0.68018556
82555295940748,-1.6956740000000001,8.765772,2.4093897
82555315797261,-2.3255641,7.5299416,1.951941
82555335653774,-3.4560134,9.366921000000001,0.62510014
82555355510287,-2.2129982000000004,11.270963,-1.3819263000000002
82555375366800,0.10538086,11.381133,-3.1278956
82555395230243,0.6346801999999999,10.27224,-3.1039455
82555415087012,0.4167334,8.976534,-1.089734
82555434943653,-0.95561284,8.787327000000001,0.22513184
82555454800422,-1.6741188000000002,8.660391,-0.2921924
82555474657063,-1.7890796999999998,9.026829,-0.6777906
82555494523632,-1.8968556,9.663903999999999,-0.2562671
82555514380529,-1.5471827,10.468631,-0.28979737
82555534237426,-0.974773,9.764495,-0.8286768
82555554094323,-0.43349856,9.398057000000001,-0.76161623
82555573951220,-0.5388794,10.135722999999999,-0.19160157
82555593811165,-0.95561284,10.27224,0.28261232
82555613668190,-1.1184741000000002,10.281819,-0.083825685
82555633525215,-1.0490186000000001,10.150093,-0.8765772
82555653382240,-1.0226734,9.992022,-1.0250684
82555673239265,-0.9268726,10.312955,-0.9436377
82555693095966,-1.089734,9.498648,-0.7113208000000001
82555712952863,-1.4992822000000001,9.045989,-0.3903882
82555732809888,-1.4034815,9.369317,-0.023950197000000003
82555752666762,-1.0609937,10.047108,0.011975098
82555772523786,-0.6993457,10.200389,-0.7592211999999999
82555792392563,-0.44307864,9.575289,-1.6884888
82555812249715,-0.6945557,9.163345,-2.2489235
82555832106995,-1.1496094,9.101074,-1.7315991999999998
82555851964275,-1.2310401000000002,9.189691,-0.8430469
82555871821555,-1.1520045,9.783655,0.27303225
82555891683413,-1.1184741000000002,9.795630000000001,0.3520679
82555911540821,-0.58677983,9.75731,-0.9364527
82555931398229,-1.1400293,9.80521,-1.2454101999999998
82555951255637,-1.096919,9.398057000000001,-1.8561403000000003
82555971113045,-0.9915381,9.304651,-1.3100758
82555990966583,-1.1160791,9.340575999999999,-0.37601808
82556010823863,-1.223855,9.228010000000001,-0.07185059
82556030681271,-1.1639795,9.261541000000001,-0.6227050999999999
82556050538551,-1.0394385,9.398057000000001,-1.3076807
82556070395959,-1.0154883,9.465117,-1.6525636000000001
82556090248474,-1.5088624,9.623189,-0.79993653
82556110105754,-1.8513502,10.035132,-0.05748047
82556129963162,-1.8250049,10.042317,-0.0071850587
82556149820442,-1.6693287,9.8866415,-0.3065625
82556169677722,-1.4274316999999999,9.635164,-0.7185059
82556189525183,-1.2789403999999998,9.565708,-0.76161623
82556209382336,-1.2454101999999998,9.577683,-0.70174074
82556229239361,-1.22146,9.424402,-0.73527104
82556249096511,-1.1400293,9.352551,-0.73527104
82556268953536,-1.1424243,9.513017999999999,-0.6945557
82556288810687,-1.0873389,9.510622999999999,-0.8167017
82556308668916,-1.0274634,9.462723,-1.0178833
82556328525940,-1.2166698999999999,9.544153,-0.95561284
82556348383092,-1.3819263000000002,9.472302,-0.7544312
82556368240244,-1.4154567,9.445957,-0.72569096
82556388097269,-1.3364209999999999,9.570497999999999,-0.7879615
82556407947612,-1.1831397,9.568104,-0.88376224
82556427804637,-1.1184741000000002,9.493857,-0.79035646
82556447661662,-1.0442286,9.462723,-0.68976563
82556467518687,-0.9580079,9.558523,-0.7089258
82556487375584,-0.9196875,9.568104,-0.8598120000000001
82556507229499,-0.9580079,9.5633135,-1.0250684
82556527086396,-1.0154883,9.604028999999999,-0.9651929
82556546943293,-1.1855347,9.690249,-0.6466553
82556566800190,-1.214275,9.678274,-0.5221143
82556586657087,-1.0681788,9.611214,-0.5556446
82556606508180,-0.8478370000000001,9.587264,-0.7664063
82556626364949,-0.728086,9.5633135,-1.0609937
82556646221718,-0.71371585,9.532178,-1.1424243
82556666078487,-0.8765772,9.565708,-0.97237796
82556685935256,-1.0106983,9.493857,-0.7951465
82556705786383,-0.9651929,9.508227999999999,-0.8981324
82556725643024,-0.98195803,9.565708,-1.0466236
82556745499537,-1.0106983,9.582474000000001,-1.0154883
82556765356160,-1.0202783000000002,9.572892999999999,-0.9436377
82556785212800,-1.0729688,9.565708,-0.96758795
82556805066429,-1.1232642,9.534574000000001,-1.0011181999999998
82556824922941,-1.0729688,9.613608000000001,-0.96758795
82556844779453,-1.099314,9.592053,-0.84065187
82556864635965,-1.0849438999999999,9.608819,-0.8095166
82556884492477,-1.0562036,9.630374,-0.8909473
82556904344028,-1.1064991000000002,9.599238,-0.94603276
82556924200412,-1.0657837,9.553733,-0.9627979
82556944056796,-1.0083033000000001,9.544153,-0.9699829
82556963913180,-1.096919,9.596844,-1.0011181999999998
82556983769436,-1.1208692,9.589659,-0.9388476999999998
82557003627906,-1.0873389,9.498648,-0.9244776
82557023484290,-1.094524,9.534574000000001,-1.0106983
82557043340674,-1.0657837,9.568104,-1.0154883
82557063197058,-1.0346485,9.606423,-1.0729688
82557083053442,-1.0921290000000001,9.553733,-1.0370435
82557102878564,-1.0873389,9.536968,-0.977168
82557122735548,-1.0250684,9.520203,-0.977168
82557142591420,-1.0202783000000002,9.517808,-1.0346485
82557162447164,-1.0298585,9.522598,-0.9915381
82557182302908,-1.0466236,9.623189,-0.9532178
82557202170655,-1.0562036,9.649534,-1.0250684
82557222026528,-0.99393314,9.575289,-1.0154883
82557241882529,-0.96758795,9.469908,-1.0083033000000001
82557261738398,-1.0106983,9.469908,-0.977168
82557281594398,-1.0083033000000001,9.572892999999999,-0.9436377
82557301463770,-0.92208254,9.551338000000001,-0.99393314
82557321319898,-0.9268726,9.493857,-1.0130934
82557341176026,-0.9915381,9.508227999999999,-1.0035132
82557361032154,-1.0035132,9.620794,-0.9627979
82557380888282,-0.98435307,9.616004,-0.9029224
82557400758441,-0.9484278,9.541758999999999,-0.8669971
82557420614953,-0.9651929,9.577683,-0.90771246
82557440471337,-0.98914313,9.635164,-0.92208254
82557460327849,-0.93405765,9.704619000000001,-0.8861573
82557480184361,-0.977168,9.673484,-0.8669971
82557500056055,-1.0777588,9.604028999999999,-0.87897223
82557519912823,-1.0729688,9.6615095,-0.84065187
82557539769591,-0.98195803,9.733359,-0.8286768
82557559626487,-0.9627979,9.704619000000001,-0.8646021
82557579483255,-0.9484278,9.601633999999999,-0.8646021
82557599343241,-1.0250684,9.5633135,-0.80712163
82557619200137,-0.9963281999999999,9.541758999999999,-0.8143066999999999
82557639057033,-0.95561284,9.637559,-0.8981324
82557658913930,-1.0418334999999999,9.718989,-0.84544194
82557678770955,-1.1112891000000003,9.742939999999999,-0.7544312
82557698631666,-0.9987232,9.718989,-0.7089258
82557718488690,-0.9316626,9.750125,-0.7089258
82557738345586,-0.9987232,9.70941,-0.7185059
82557758202610,-1.0250684,9.697434,-0.613125
82557778059634,-0.97237796,9.764495,-0.5987549
82557797925589,-0.9484278,9.778865,-0.6322852
82557817782741,-0.96758795,9.711803999999999,-0.5508545
82557837639893,-0.96758795,9.678274,-0.49097902
82557857497173,-0.91250247,9.707015,-0.5340894
82557877354325,-0.8765772,9.671089,-0.5939649
82557897221082,-0.8885523000000001,9.663903999999999,-0.6179150999999999
82557917078618,-0.9364527,9.601633999999999,-0.61073
82557936936026,-0.977168,9.611214,-0.63707525
82557956793434,-0.9484278,9.625584,-0.62031007
82557976650970,-0.9580079,9.711803999999999,-0.62749517
82557996510836,-1.0011181999999998,9.707015,-0.62031007
82558016368372,-1.0466236,9.70941,-0.6466553
82558036225908,-1.0681788,9.697434,-0.6227050999999999
82558056083444,-1.0921290000000001,9.644744000000001,-0.6514453
82558075940980,-1.1352394,9.6615095,-0.60833496
82558095801497,-1.1088941,9.72857,-0.5556446
82558115659161,-1.0921290000000001,9.726174,-0.55324954
82558135516826,-1.1232642,9.721385,-0.60354495
82558155374491,-1.1064991000000002,9.687855,-0.5556446
82558175232156,-1.1136841999999998,9.704619000000001,-0.5388794
82558195092804,-1.0562036,9.673484,-0.5125342
82558214950596,-1.0226734,9.635164,-0.51732427
82558234808388,-1.101709,9.707015,-0.54366946
82558254666052,-1.1496094,9.769285,-0.5292993
82558274523844,-1.1208692,9.7142,-0.5005590999999999
82558294386823,-1.1232642,9.718989,-0.55324954
82558314244872,-1.1041040000000002,9.601633999999999,-0.5676197
82558334102793,-1.0753639,9.611214,-0.51013917
82558353960714,-1.1064991000000002,9.635164,-0.45984375
82558373818635,-1.0825489,9.649534,-0.55324954
82558393673256,-1.0729688,9.730965,-0.5029541000000001
82558413531177,-1.0083033000000001,9.721385,-0.53169435
82558433389098,-0.9508228000000001,9.75731,-0.55324954
82558453247019,-1.0753639,9.77647,-0.5460645000000001
82558473104940,-1.099314,9.671089,-0.45026368
82558492956363,-1.0705738,9.690249,-0.45026368
82558512814284,-1.0346485,9.673484,-0.45505372
82558532672077,-1.0083033000000001,9.630374,-0.5484595
82558552529870,-1.0633887,9.596844,-0.49097902
82558572387791,-1.0825489,9.683064,-0.45744875
82558592230436,-0.9196875,9.766891000000001,-0.44547364
82558612088101,-0.8430469,9.75731,-0.68976563
82558631945766,-0.9580079,9.695039999999999,-0.7568262
82558651803303,-0.9963281999999999,9.697434,-0.64186525
82558671660968,-1.0106983,9.6758795,-0.57001466
82558691518633,-1.1472143999999997,9.64714,-0.62989014
82558711352240,-1.2022998,9.654325,-0.62510014
82558731209137,-1.1376343,9.733359,-0.51492923
82558751065885,-1.1136841999999998,9.742939999999999,-0.50774413
82558770922782,-1.0106983,9.702225,-0.51013917
82558790779549,-0.8669971,9.754914999999999,-0.59156984
82558810635069,-0.8167017,9.72378,-0.5556446
82558830491837,-0.91250247,9.77647,-0.51013917
82558850348605,-1.0011181999999998,9.721385,-0.5340894
82558870205373,-1.0418334999999999,9.6686945,-0.5412744
82558890062269,-1.0849438999999999,9.642349000000001,-0.52690434
82558909914909,-0.98914313,9.721385,-0.4742139
82558929771677,-0.89573735,9.695039999999999,-0.54366946
82558949628317,-0.9627979,9.726174,-0.5843848
82558969485085,-1.0442286,9.754914999999999,-0.55803955
82558989341725,-1.0274634,9.77168,-0.46942386
82559009195500,-0.9699829,9.716595,-0.53169435
82559029052140,-0.98914313,9.740545,-0.5364844
82559048908780,-0.9987232,9.740545,-0.5676197
82559068765420,-1.0154883,9.695039999999999,-0.5364844
82559088621932,-1.0083033000000001,9.671089,-0.49337405
82559108479157,-0.87418216,9.740545,-0.5340894
82559128329351,-0.84544194,9.711803999999999,-0.7209009
82559148185991,-0.99393314,9.639954,-0.7711963000000001
82559168042503,-1.0370435,9.68067,-0.6825806
82559187899143,-0.9699829,9.654325,-0.6777906
82559207750513,-0.9987232,9.685459,-0.7113208000000001
82559227607026,-1.0011181999999998,9.7142,-0.7568262
82559247463409,-0.97237796,9.742939999999999,-0.76161623
82559267319921,-0.96758795,9.759705,-0.72569096
82559287176433,-1.0394385,9.75252,-0.7089258
82559307037650,-1.0657837,9.695039999999999,-0.6849755999999999
82559326894034,-1.0059083,9.630374,-0.76401126
82559346750546,-1.0178833,9.6686945,-0.8669971
82559366607059,-1.0514137,9.730965,-0.8095166
82559386463572,-1.0059083,9.704619000000001,-0.75203615
82559406327691,-0.9316626,9.754914999999999,-0.8478370000000001
82559426184332,-0.9196875,9.695039999999999,-0.92208254
82559446040973,-0.98195803,9.625584,-0.8909473
82559465897614,-1.0921290000000001,9.697434,-0.9364527
82559485754255,-1.1783496,9.683064,-0.91010743
82559505618532,-1.1496094,9.620794,-0.9029224
82559525475301,-1.0466236,9.666299,-0.9508228000000001
82559545332198,-0.99393314,9.685459,-0.9436377
82559565188967,-0.977168,9.666299,-0.9963281999999999
82559585045736,-1.099314,9.6686945,-1.0011181999999998
82559604908617,-1.1208692,9.68067,-0.9580079
82559624765514,-1.0633887,9.704619000000001,-0.95561284
82559644622411,-1.0514137,9.616004,-1.0202783000000002
82559664479308,-1.1041040000000002,9.618399,-1.0466236
82559684336333,-1.0490186000000001,9.64714,-0.9316626
82559704196990,-1.0633887,9.704619000000001,-0.9412427
82559724054015,-1.089734,9.742939999999999,-1.0538087
82559743911040,-1.1041040000000002,9.637559,-1.0849438999999999
82559763767937,-1.0633887,9.635164,-1.0106983
82559783624943,-1.0298585,9.644744000000001,-0.97237796
82559803491311,-1.0370435,9.632769,-0.97237796
82559823348591,-1.089734,9.627979,-1.0154883
82559843205743,-1.1064991000000002,9.68067,-0.9963281999999999
82559863063023,-1.099314,9.7621,-0.8813671999999999
82559882920303,-1.0705738,9.74773,-0.9148975
82559902782430,-1.0322535,9.651928999999999,-1.0370435
82559922639966,-1.089734,9.656719,-1.0106983
82559942497374,-1.0825489,9.663903999999999,-0.87418216
82559962354782,-1.0562036,9.683064,-0.9029224
82559982212318,-1.0777588,9.613608000000001,-0.9915381
82560002070025,-1.1088941,9.627979,-0.9915381
82560021927561,-1.0250684,9.6686945,-0.87178713
82560041785097,-1.0083033000000001,9.690249,-0.9244776
82560061642633,-1.096919,9.687855,-0.9627979
82560081500169,-1.0921290000000001,9.685459,-0.9244776
82560101357937,-1.0394385,9.769285,-0.84065187
82560121215601,-1.0226734,9.699829,-0.88376224
82560141073137,-1.0873389,9.611214,-0.97237796
82560160930673,-0.96758795,9.587264,-0.8813671999999999
82560180788337,-0.9699829,9.769285,-0.91010743
82560200636560,-1.0346485,9.695039999999999,-0.91729254
82560220493841,-0.9867481,9.659114,-0.9316626
82560240351120,-1.0657837,9.6615095,-0.91729254
82560260208528,-1.0394385,9.666299,-0.977168
82560280065808,-0.974773,9.64714,-0.92208254
82560299923605,-1.0753639,9.618399,-0.9388476999999998
82560319781013,-1.0490186000000001,9.671089,-0.9508228000000001
82560339638421,-0.9867481,9.685459,-0.8981324
82560359495702,-0.9987232,9.630374,-0.91010743
82560379353111,-1.0274634,9.683064,-0.9148975
82560399211916,-1.0035132,9.659114,-0.91729254
82560419069325,-0.974773,9.697434,-0.92926764
82560438926734,-1.0394385,9.692644,-0.9148975
82560458784143,-1.0011181999999998,9.659114,-0.89573735
82560478641552,-1.0322535,9.659114,-0.9196875
82560498491869,-1.094524,9.711803999999999,-0.84544194
82560518349150,-0.98195803,9.788445,-0.852627
82560538206431,-0.9580079,9.690249,-0.95561284
82560558063712,-1.0011181999999998,9.649534,-0.96758795
82560577920865,-0.9699829,9.651928999999999,-0.84065187
82560597769820,-0.974773,9.6686945,-0.87897223
82560617626845,-1.0298585,9.651928999999999,-0.9244776
82560637483870,-1.0490186000000001,9.639954,-0.9244776
82560657340895,-1.0514137,9.642349000000001,-0.852627
82560677198048,-1.0154883,9.671089,-0.852627
82560697045399,-0.96040285,9.740545,-0.9196875
82560716902168,-1.0322535,9.687855,-0.974773
82560736759065,-1.0346485,9.685459,-0.8646021
82560756615834,-1.0178833,9.687855,-0.80712163
82560776472711,-1.0418334999999999,9.68067,-0.90771246
82560796328333,-1.0753639,9.673484,-0.977168
82560816185101,-1.0514137,9.68067,-0.91729254
82560836041741,-1.0202783000000002,9.685459,-0.85023195
82560855898509,-0.9915381,9.707015,-0.87178713
82560875755277,-1.0466236,9.625584,-0.9436377
82560895610296,-1.0657837,9.685459,-0.9268726
82560915466936,-1.0370435,9.697434,-0.85023195
82560935323704,-0.9651929,9.702225,-0.8933423
82560955180344,-1.0370435,9.654325,-0.97956306
82560975037222,-1.1208692,9.644744000000001,-0.88376224
82560994893863,-1.0059083,9.716595,-0.80233157
82561014750502,-1.0059083,9.735755000000001,-0.89573735
82561034607142,-1.0633887,9.74773,-0.98435307
82561054463783,-1.0346485,9.642349000000001,-0.9412427
82561074320422,-1.0298585,9.639954,-0.8598120000000001
82561094176977,-1.0130934,9.620794,-0.8981324
82561114033618,-1.0250684,9.630374,-0.96040285
82561133892335,-1.0585986,9.666299,-0.9244776
82561153748975,-1.0633887,9.745335,-0.84544194
82561173605616,-1.0298585,9.733359,-0.8981324
82561193465370,-1.0298585,9.637559,-0.96758795
82561213322011,-1.0178833,9.608819,-0.9412427
82561233178652,-1.0154883,9.654325,-0.8813671999999999
82561253035418,-1.0514137,9.702225,-0.855022
82561272892058,-1.0705738,9.649534,-0.90052736
82561292748827,-1.0490186000000001,9.654325,-0.9244776
82561312608275,-1.0274634,9.687855,-0.91010743
82561332465043,-1.0370435,9.75731,-0.92208254
82561352321812,-1.0250684,9.639954,-0.9029224
82561372178579,-1.0490186000000001,9.654325,-0.852627
82561392034236,-1.0921290000000001,9.687855,-0.8669971
82561411891005,-1.0538087,9.690249,-0.9268726
82561431747774,-1.1112891000000003,9.663903999999999,-0.8885523000000001
82561451604543,-1.0921290000000001,9.637559,-0.84544194
82561471461312,-1.0394385,9.654325,-0.8262818000000001
82561491327205,-1.0130934,9.721385,-0.78556645
82561511184230,-1.1041040000000002,9.750125,-0.91010743
82561531041127,-1.0873389,9.6686945,-0.87897223
82561550898024,-1.0777588,9.656719,-0.86220706
82561570755049,-1.0514137,9.651928999999999,-0.8310718
82561590611946,-1.1064991000000002,9.625584,-0.86939216
82561610466739,-1.1567944,9.654325,-0.8646021
82561630323636,-1.1208692,9.673484,-0.82388675
82561650180661,-1.0705738,9.702225,-0.855022
82561670037558,-1.0729688,9.704619000000001,-0.9388476999999998
82561689894393,-1.1304493,9.718989,-0.9196875
82561709751290,-1.0753639,9.627979,-0.8143066999999999
82561729608187,-1.0801538,9.678274,-0.8334668
82561749465196,-1.0729688,9.596844,-0.92208254
82561769322093,-1.1424243,9.644744000000001,-0.90771246
