UPTIMENANO,Ax,Ay,Az
82507817831469,0.34477195,0.06579046,9.636299
82507837688621,0.5638291,0.24372393,10.091385
82507857545774,0.50016963,0.20686771,10.247663
82507877404217,0.34346956,0.20945661,9.897697
82507897261369,0.10154126,0.025305497,9.528466
82507917118650,0.11609424,-0.016636178,9.447162
82507936975801,0.22961287,-0.032811943,9.836802
82507956842217,0.44792128,0.11457323,10.279289
82507976699754,0.58951056,0.123991944,10.141756
82507996557161,0.42303085,0.09617422,10.086581
82508016414569,0.38681135,0.0333469,9.868171
82508036271978,0.17941818,-0.10834586,9.53154
82508056129513,0.17160717,-0.22064838,10.346433
82508075985824,0.43245474,-0.11613816,11.275645
82508095843361,0.943835,0.050211214,10.727924
82508115700768,0.6389434,0.48688367,9.272146
82508135558304,-0.33059523,0.03369284,8.479215
82508155415841,-0.35297433,-0.015611407,9.512076
82508175271846,0.52651155,-0.44928557,10.958111
82508195129254,0.94904906,0.14784794,10.769379
82508214986663,1.840261,1.0904753,10.163377
82508234844198,1.4909462,1.0831054,9.97121
82508254705251,0.68525434,0.46728984,10.655917
82508274562660,-0.018024528,-0.50396836,10.943734
82508294420195,0.06824135,-1.2358654,10.20452
82508314277731,0.46867633,-0.4257407,9.149927
82508334135268,0.6195728,1.3804394,8.826713
82508353992803,0.6222372,1.5048504,9.00043
82508373845664,0.5741009,0.40367284,9.667449
82508393703073,0.35086024,-0.11478496,10.03772
82508413560608,0.26608047,0.45120075,8.880179
82508433418016,0.36492622,1.4964265,8.050325
82508453275553,0.4680666,0.9912261,8.997263
82508473125249,0.5323042,0.19395755,9.535728
82508492982529,1.1148542,0.18998735,9.694169
82508512839810,0.64382064,0.29819083,9.694552
82508532697089,-0.13721977,0.16860831,9.697334
82508552547527,0.2729513,-0.029239176,9.468674
82508572404680,0.20716894,0.32530305,9.130121
82508592261831,0.27821058,-0.014883703,9.546141
82508612118983,0.5794106,-0.3927362,10.203625
82508631976136,0.6623732,-0.1859888,10.054722
82508651833287,0.5039659,-0.09074574,9.808374
82508671681383,0.58986235,-0.6088211,10.196278
82508691538280,-0.02449551,-0.30165753,10.568276
82508711395175,0.5175312,0.5440238,9.798641
82508731252071,0.2784124,0.32189918,9.352489
82508751109096,-0.19399148,-0.3859622,9.686822
82508770966471,0.8586965,-0.43577766,9.969227
82508790823239,0.13284299,-0.13154796,9.882014
82508810680136,-0.6160058,0.15972473,9.382714
82508830537031,-0.18550926,0.18262868,9.358429
82508850393927,0.20664096,0.011906798,9.411234
82508870250824,0.902524,-0.21845092,9.687527
82508890068862,3.4706213,0.67815334,10.484287
82508909924990,-0.3838577,-0.39469877,10.292809
82508929781119,-1.0979203,0.3168371,8.785647
82508949637246,-0.21779586,0.25421068,9.004141
82508969504949,0.7700493,-0.925046,10.584385
82508989361206,0.15548426,-0.9620268,11.077784
82509009217589,-0.16430688,-0.41400567,10.097827
82509029073845,-0.25081468,-0.083167836,9.3763275
82509048930102,-0.7256056,0.94163305,9.141591
82509068786162,0.53472006,-0.020762583,10.38438
82509088642418,0.45295325,-1.522375,11.018106
82509108498675,-0.26377323,-0.05478105,10.149502
82509128354802,0.2669598,0.32439634,10.619234
82509148211058,0.2781491,-0.23744781,10.351842
82509168067315,0.054527134,0.21991387,9.283685
82509187934957,0.3326688,0.6539905,9.079788
82509207791341,0.51740855,0.69798106,9.758083
82509227647726,0.6935106,0.071425244,10.773719
82509247504109,0.09681986,-0.79130405,10.496237
82509267371334,-0.2907661,-1.329394,10.041742
82509287227975,0.4655534,-0.6645738,10.52916
82509307084486,0.8599341,0.33232194,10.26161
82509326941126,0.50825375,0.2696062,9.927709
82509346797639,0.460741,-0.05579246,10.4628935
82509366664319,0.66803485,-0.43563887,10.576903
82509386521087,0.5074493,-0.36442655,9.7849045
82509406377984,0.56699324,0.2897736,9.568387
82509426234751,0.66808593,0.78578496,9.617914
82509446091519,1.1067771,0.8078712,9.057833
82509465948288,2.3015475,0.17408232,8.711866
82509485809986,-0.6580889,-0.03260997,9.251592
82509505666882,-0.8217856,0.26232788,9.137913
82509525523779,0.60419726,0.64932853,9.679095
82509545380674,2.8615284,1.7004505,9.045995
82509565246158,3.444702,1.9836326,8.663669
82509585103311,-0.07165761,0.03554166,7.303675
82509604960462,-0.45419124,0.39240682,7.194704
82509624817486,0.73577,0.84154963,8.638842
82509644674639,1.4580587,-0.16895927,10.68621
82509664531790,2.7177317,-1.6203426,10.65649
82509684394513,3.7438147,-1.887886,10.321437
82509704251794,2.2075777,-3.230056,10.3242235
82509724108945,-0.6720138,-4.116406,9.6982765
82509743966225,-1.2507929,-3.5767305,8.755428
82509763823506,-0.17161755,-1.6902895,8.408578
82509783685326,0.34636614,0.11549378,8.122059
82509803542734,0.14466512,0.6650638,7.6991425
82509823400143,-1.8706543,1.7617837,6.483544
82509843257550,-5.1494284,1.233808,9.0818205
82509863116183,-4.1859984,-1.6553423,12.150955
82509882973720,1.9559222,-0.123149164,8.292621
82509902831255,1.8195238,3.0136445,8.13887
82509922688791,3.3643463,5.3149977,8.618268
82509942546328,3.854662,2.7903924,12.790067
82509962403863,3.6497355,-0.7533145,14.09628
82509982266286,1.0682169,-1.7870646,13.121653
82510002123951,-0.71581775,-1.6326944,10.544504
82510021981742,-0.68040925,-1.8821507,9.62556
82510041839406,-1.0673505,-1.9946512,10.676019
82510061697071,-0.8023109,-1.3599836,10.548058
82510081560293,0.5861644,-1.1887429,12.112103
82510101418213,0.14154233,-3.3460298,14.488758
82510121276134,-0.4954831,-0.19395871,7.2545238
82510141133925,1.1560459,0.9016691,8.048273
82510160989931,-0.52482235,1.9057769,8.403468
82510180847852,-0.88697475,1.7136319,10.690718
82510200705771,-1.5562419,2.0541716,11.488573
82510220563691,-2.5249119,2.3697095,11.369575
82510240421612,-2.5152783,-0.39878556,10.49089
82510260279531,-1.447275,-2.75139,9.879292
82510280143985,-0.30380866,-2.9703968,9.1994095
82510300002162,0.8222303,-1.283138,10.609415
82510319860209,0.66216326,-0.8244597,10.561091
82510339718257,2.458079,-0.6271421,6.663117
82510359576305,2.15287,1.2385408,3.8633418
82510379433446,0.7772784,0.9590936,5.011929
82510399291494,0.34563804,-1.4813813,6.183004
82510419149670,-1.8306973,-2.4082398,7.4030447
82510439007846,-3.869708,-3.461496,9.06439
82510458866022,-3.7317412,-3.5294142,10.217387
82510478698008,-1.8710748,-4.1506014,10.316254
82510498555288,-4.5968127,-3.2058547,14.386233
82510518412696,-4.9705014,-1.2247243,13.250546
82510538269976,-3.760896,2.2204003,9.246671
82510558127256,-3.9498742,6.283729,8.003039
82510577974046,-2.1552718,11.155023,9.020053
82510597831198,-4.343615,10.5971985,14.024701
82510617688350,-5.13787,5.404354,12.71205
82510637545502,-0.9884061,1.1789302,14.128994
82510657402654,0.33757982,-7.234862,15.09047
82510677251126,0.6153973,-5.72518,12.248494
82510697108022,2.7516594,1.823566,10.678842
82510716964918,3.5663826,5.48799,7.8212633
82510736821814,2.797486,4.846295,3.5971935
82510756678710,2.2169533,0.04341047,1.228133
82510776538623,1.8589543,-3.647981,0.6926855
82510796395519,1.0957028,-4.863217,0.109724246
82510816252543,3.049027,1.1832728,3.9746904
82510836109439,4.323286,3.7776127,5.166329
82510855966463,4.529383,3.431855,5.8109403
82510875822262,5.3898425,-0.90294576,6.6176863
82510895679286,4.6823816,-2.9031603,9.306451
82510915536182,3.037575,-2.5224292,13.989315
82510935393206,2.198362,-4.254736,16.301182
82510955250102,2.0660207,-3.964421,17.410988
82510975111356,-0.71263087,-4.294338,15.878215
82510994968380,-2.5109665,-3.7189984,14.794809
82511014825404,-3.1266477,-2.4269304,15.60472
82511034682428,-6.358297,-1.257667,18.1711
82511054539452,-9.190198,-2.607019,18.562807
82511074377514,-8.079952,-0.15130904,14.079416
82511094234154,-3.2272007,4.0989075,9.127895
82511114090794,-0.89757276,3.5124547,9.790643
82511133947434,-1.0564691,2.8584533,10.944509
82511153804074,-3.5650551,1.6613268,9.638231
82511173661720,-4.46982,0.91395617,8.34208
82511193518360,-1.5609968,1.5046774,6.6182475
82511213375000,-1.6167625,1.6014037,6.7092876
82511233231640,-2.0043051,1.406774,5.4479156
82511253088280,-0.7735994,1.7890747,3.5855176
82511272952934,-2.835991,2.204645,6.744216
82511292809702,-3.2678487,0.78742623,9.05532
82511312666470,-1.1787404,-0.8796973,9.931991
82511332523238,2.1116965,-0.9827865,10.914103
82511352380006,4.203739,-0.24928135,13.622335
82511372239450,1.7401721,-0.85904044,10.6894455
82511392096218,6.6715198,-3.186141,12.026318
82511411952986,3.8571777,-2.2271755,15.87937
82511431809754,2.9683635,1.3075609,14.593949
82511451666522,2.7169497,2.7569194,10.546583
82511471525411,-2.0693526,0.020023452,8.848863
82511491382179,-7.355739,-4.154374,9.888009
82511511238947,-8.521492,-5.7032847,11.33565
82511531095715,-8.980025,-3.221998,12.463415
82511550952483,-11.765964,-1.8891408,11.916129
82511570811116,-9.829777,3.2002964,11.997945
82511590667884,0.15661162,4.984637,9.4814825
82511610524780,7.474472,1.4184941,7.4785757
82511630381548,12.906598,0.2616084,-0.72392625
82511650238316,7.186344,8.104185,1.5227476
82511670103099,-0.30960226,2.0176418,6.3079185
82511689960123,-0.9139125,-0.96718895,8.787173
82511709817147,0.4103446,1.5263076,11.750537
82511729674171,-0.7656725,0.83835655,14.730573
82511749531195,-1.9630933,0.91348505,12.975559
82511769400531,-1.4455496,1.3285269,10.547787
82511789257811,1.1333423,0.2827128,10.573893
82511809115091,3.5306034,0.5462606,8.294127
82511828972371,1.8548654,1.2803605,8.054652
82511848829523,0.9735601,1.4714627,8.5435705
82511868698023,-0.0691017,2.4169483,8.71202
82511888555559,0.97892654,0.62357956,7.6349883
82511908413095,1.0172422,1.0068713,7.740485
82511928270759,1.8142257,-1.2456679,7.576953
82511948128295,4.109783,0.38135627,7.9364424
82511967987927,3.2984948,2.9619677,10.210872
82511987848704,2.6890934,2.8796327,11.862232
82512007706368,1.5389642,2.9034302,12.565181
82512027564160,0.7467993,0.92449385,13.08847
82512047421824,-0.11266419,-0.59223026,14.33501
82512067280114,0.93640214,-0.5554337,13.737409
82512087137906,1.1095238,-0.30738962,13.586577
82512106995698,0.47624534,-0.032696173,12.8145485
82512126853362,1.7785777,0.6149823,10.43592
82512146711154,4.033047,0.5259407,8.194665
82512166565855,2.5940814,0.8897472,8.929877
82512186423519,0.6774241,1.1768886,10.166948
82512206281183,0.9219021,0.72698957,9.97709
82512226138975,0.8158225,-0.7866369,9.048555
82512245996639,-0.86047876,-0.8329536,8.582751
82512265859148,-3.706863,-0.83498263,9.253543
82512285716940,-3.806555,-1.1466106,9.7344055
82512305574732,-1.9082886,0.26708516,8.5525055
82512325432396,-0.34738597,0.56751704,7.373146
82512345290188,0.34873435,0.42605305,7.506707
82512365149289,0.6334773,0.7503757,7.84558
82512385007081,1.2275252,0.14150576,7.5963354
82512404865001,0.06512466,-1.3740715,6.095395
82512424722793,-2.7750132,-2.1081734,4.1866946
82512444580713,-3.2666035,-0.9981099,4.101475
82512464432342,-0.15181251,-0.100631244,6.247677
82512484290134,2.450382,1.7525434,9.413931
82512504147926,3.7882614,1.6789529,10.737516
82512524005718,7.3516064,2.1564672,13.032922
82512543863510,7.1809077,3.1102984,19.3155
82512563713651,-1.1511482,2.8428645,15.315034
82512583571315,-2.6630144,0.4304986,12.9501095
82512603428979,-2.2192225,-0.19269407,11.932154
82512623286771,-2.0060554,0.55959755,11.490198
82512643144435,-0.98686534,1.0664637,11.477119
82512662987947,0.6804328,0.18011911,10.578482
82512682845099,1.2731347,-0.13423878,10.38173
82512702702379,-1.4158107,-0.89727134,11.05985
82512722559659,-6.7537975,-1.3828739,10.160325
82512742416939,-5.833807,-1.9567635,8.55906
82512762273134,-4.290649,-0.8776077,7.3762674
82512782130414,-0.21838497,0.048095204,4.1414747
82512801987566,4.9274263,2.7848036,1.863544
82512821844718,17.442064,13.738281,5.3963947
82512841701998,6.454089,-0.048021156,5.8556304
82512861556735,2.3973303,-7.9431543,5.3619967
82512881413887,2.7787116,-3.1027472,16.330196
82512901271039,0.6833462,-0.32885593,18.036411
82512921128191,-5.4838843,-0.7747152,7.1328397
82512940985215,-3.038638,0.67073953,8.287566
82512960842367,-2.0177674,0.45070383,11.81424
82512980702524,-1.2132344,0.6389218,11.481122
82513000559676,-0.7949492,-1.9755839,10.62851
82513020416828,1.2695817,-3.2900536,10.65821
82513040274108,1.7992382,3.6864579,9.39872
82513060131260,1.3684148,3.7674532,8.715884
82513079978940,0.59219396,0.41343433,8.053454
82513099835836,-1.3896571,-0.10713273,7.443454
82513119692860,-1.5918036,-0.14900288,8.45667
82513139549884,-3.0457826,2.275826,10.032486
82513159406780,-4.739343,5.6419773,10.309784
82513179257471,2.7277977,0.58869386,10.733259
82513199114239,7.040532,-6.106385,9.301934
82513218971007,3.3548803,-5.0160666,8.826888
82513238827775,-0.22203092,-1.3395637,9.114677
82513258684543,0.40183654,0.376485,9.51844
82513278545541,0.14629054,0.8180268,9.796436
82513298402437,-1.0091053,0.92687976,9.791157
82513318259205,-0.9686605,1.3057781,9.79473
82513338116101,-1.4536453,2.0974014,9.607537
82513357972869,-0.9304611,1.109742,9.601931
82513377835348,0.41997057,-0.5899911,9.800741
82513397692372,0.20883009,-1.0253181,9.824614
82513417549268,0.16768041,-0.6496025,9.689925
82513437406292,0.20771487,-0.22646649,9.539976
82513457263188,-0.061727904,-0.16483366,9.498897
82513477120614,0.12153047,-0.011669366,9.766542
82513496977638,0.31736657,0.024548687,9.724133
82513516834662,0.30098358,-0.24001786,9.727875
82513536691558,0.33990422,-0.2058866,9.970604
82513556548582,-0.14482193,-0.45236346,9.600414
82513576399320,-0.3981606,-0.30018064,9.519245
82513596256216,-0.61997014,-0.036196172,9.554926
82513616112984,-0.21347046,0.20139278,9.777675
82513635969880,0.1157361,0.04057322,9.714818
82513655826648,0.23042716,-0.14103451,9.827633
82513675687999,-0.2306019,-0.4334872,9.605994
82513695544895,-0.2706598,-0.6680867,9.671503
82513715401791,-0.34642655,-0.43389362,9.668918
82513735258815,-0.29400563,-0.08973549,9.691469
82513755115711,-0.2646783,-0.006596208,9.728718
82513774973314,-0.21634598,0.0057420935,9.8353
82513794830210,-0.13009226,-0.011746642,9.931004
82513814687234,-0.13802446,-0.16422567,9.733883
82513834544130,-0.108965136,-0.35926133,9.52936
82513854401026,-0.08137129,-0.50753367,9.631658
82513874264785,-0.039034627,-0.35124916,9.802303
82513894121809,-0.0948678,-0.041344862,9.851626
82513913978961,-0.11577637,0.15683131,9.863607
82513933836113,-0.0029123544,0.058132168,9.827272
82513953693265,0.051212292,-0.17765313,9.774393
82513973555616,-0.029548783,-0.18978576,9.794299
82513993402250,-0.15729983,0.0034223904,9.898793
82514013259530,-0.38730156,0.094428115,9.776838
82514033116810,-0.35103375,0.0032767924,9.866758
82514052974090,-0.28884038,-0.26840156,9.6941395
82514072837209,-0.20565017,-0.3820126,9.673251
82514092694617,-0.24826892,-0.23056234,9.730885
82514112552025,-0.29582885,-0.06803276,9.712432
82514132409433,-0.24056368,-0.0059708534,9.731354
82514152266841,-0.21832527,-0.07293166,9.6311035
82514172125863,-0.15109819,-0.103873916,9.618453
82514191983271,-0.15032637,-0.19604267,9.756651
82514211840679,-0.3230337,-0.16928187,9.94298
82514231698087,-0.48857677,-0.03340033,9.950605
82514251555495,-0.43894687,-0.030881613,9.737631
82514271420534,-0.2066099,-0.08047916,9.6610365
82514291278070,-0.10670388,-0.1044988,9.808335
82514311135606,-0.2742034,-0.02432881,9.838646
82514330993142,-0.32334262,0.07200242,9.767575
82514350850678,-0.13672546,-0.074870326,9.70314
82514370707348,-0.02547323,-0.18137762,9.710923
82514390565012,-0.069980785,-0.1461522,9.811677
82514410422548,-0.2204496,-0.08638755,9.86976
82514430280084,-0.20617679,-0.06808455,9.772418
82514450137748,-0.14023328,-0.16535896,9.728274
82514469986771,-0.13911016,-0.20406532,9.763806
82514489844179,-0.16422158,-0.15915227,9.7648115
82514509701587,-0.22763073,-0.15165333,9.763015
82514529559123,-0.15539514,-0.14966877,9.722735
82514549416531,-0.09742034,-0.11386506,9.699729
82514569273426,-0.13177218,-0.06861969,9.74028
82514589130834,-0.12020579,-0.08064777,9.79038
82514608988370,-0.16551043,-0.11946891,9.834233
82514628845906,-0.22240141,-0.06567519,9.72019
82514648703314,-0.195219,-0.09646742,9.680495
82514668549280,-0.1417938,-0.13967575,9.713845
82514688406560,-0.15969352,-0.109844446,9.78436
82514708263712,-0.27586573,-0.037189964,9.832844
82514728120992,-0.28956896,0.023008466,9.751217
82514747978144,-0.24500442,-0.047698732,9.677725
82514767835424,-0.24041297,-0.11443025,9.607159
82514787685889,-0.16449596,-0.10117722,9.780057
82514807542913,-0.17314135,-0.19799647,9.881467
82514827399938,-0.3006721,-0.12841675,9.795491
82514847256963,-0.29439175,0.1184572,9.912848
82514867113985,-0.23788442,-0.03298577,9.82449
82514886973538,-0.15299481,-0.07251481,9.717882
82514906830690,-0.16203755,-0.01915009,9.846347
82514926687842,-0.22684862,-0.1709272,9.666688
82514946544994,-0.26509172,-0.1289615,9.677408
82514966402018,-0.34589344,0.062089704,9.703018
82514986255604,-0.28715676,-0.015772857,9.752688
82515006112628,-0.1824717,-0.1751124,9.8228855
82515025969652,-0.2254136,-0.064636625,9.832787
82515045826676,-0.2778695,0.03788178,9.730479
82515065683828,-0.2645016,-0.08367389,9.716032
82515085540765,-0.19580123,-0.12431979,9.759081
82515105397789,-0.204488,-0.03456183,9.791675
82515125254813,-0.23497246,0.016409297,9.739567
82515145111837,-0.16433279,-0.041520726,9.743502
82515164968861,-0.16980319,-0.17329337,9.731043
82515184822690,-0.18787196,-0.1913958,9.6965685
82515204679586,-0.16728248,-0.11245752,9.768875
82515224536482,-0.16250622,-0.0073211463,9.823329
82515244393250,-0.22478311,0.025753211,9.821529
82515264250147,-0.20264722,0.0022467184,9.825845
82515284111810,-0.11715064,-0.20456575,9.774748
82515303968704,-0.1752753,-0.22869982,9.70555
82515323825728,-0.19932929,-0.004833081,9.7014265
82515343682624,-0.19830102,0.054734707,9.79152
82515363539648,-0.21680623,-0.0035230906,9.767028
82515383392794,-0.2192946,-0.026071465,9.7843895
82515403249690,-0.24415345,-0.15817672,9.812037
82515423106459,-0.22594546,-0.22004391,9.818782
82515442963356,-0.24271126,-0.0569996,9.811759
82515462820253,-0.20460641,0.09970475,9.742185
82515482681782,-0.14631303,0.021011027,9.713447
82515502538679,-0.16512924,-0.013380616,9.809368
82515522395576,-0.10896745,-0.038777795,9.750524
82515542252473,-0.12460202,-0.1516066,9.790243
82515562109370,-0.21873902,-0.06563608,9.74352
82515581968313,-0.2716217,0.0190713,9.719265
82515601825338,-0.25977033,0.050666455,9.766167
82515621682235,-0.20335908,-0.0018488221,9.784475
82515641539132,-0.15044968,-0.03467591,9.810832
82515661396029,-0.17736882,0.034656215,9.772763
82515681260512,-0.17819124,0.0084489975,9.783777
82515701117537,-0.18843995,-0.023016945,9.812821
82515720974690,-0.22177984,0.03900749,9.764176
82515740831715,-0.20750909,-0.06645773,9.70907
82515760688852,-0.17405406,-0.18802467,9.700738
82515780547186,-0.13932092,-0.043894883,9.765454
82515800404338,-0.21271463,0.09712054,9.805066
82515820261490,-0.1980343,0.05751111,9.807461
82515840118642,-0.15985768,-0.06501006,9.767562
82515859975794,-0.20367731,-0.11076346,9.739771
82515879838998,-0.23900194,-0.11538169,9.728291
82515899696406,-0.2192922,-0.01952371,9.796544
82515919553814,-0.17638709,0.09866798,9.786226
82515939411222,-0.14906935,0.07472322,9.761158
82515959268630,-0.17856745,-0.040026262,9.745799
82515979126463,-0.17836592,-0.08992516,9.722358
82515998985121,-0.22457172,-0.054937758,9.715762
82516018842657,-0.22557436,0.026182875,9.761082
82516038700065,-0.20885514,0.08949151,9.802941
82516058557601,-0.20718728,0.039610505,9.824693
82516078409675,-0.16923165,-0.085274294,9.72762
82516098267083,-0.19967397,-0.08573994,9.726639
82516118124363,-0.22298288,0.043576866,9.696758
82516137981771,-0.20689747,0.025509704,9.695292
82516157839051,-0.2446297,-0.0057173516,9.76998
82516177704602,-0.20221326,-0.042452414,9.817797
82516197562138,-0.20959422,7.346481E-4,9.802503
82516217419674,-0.16144021,0.119989455,9.787256
82516237277210,-0.17666277,-0.024719145,9.705877
82516257134746,-0.24079819,-0.086552516,9.696267
82516276991966,-0.15980513,0.0408263,9.727607
82516296849502,-0.15487015,0.11620758,9.757704
82516316707038,-0.17040221,0.103409015,9.775856
82516336564446,-0.17307591,0.017956393,9.823479
82516356421982,-0.28946802,0.03223856,9.787732
82516376280805,-0.28972974,0.053213898,9.739421
82516396138341,-0.29539675,-0.0057410114,9.729827
82516415995877,-0.20879002,0.03853632,9.732146
82516435853285,-0.13275453,0.04542214,9.763283
82516455710821,-0.14869107,0.051784754,9.754892
82516475566685,-0.15464474,0.042238005,9.767158
82516495424221,-0.18731685,0.06928237,9.78086
82516515281757,-0.17711198,0.09556588,9.830184
82516535139165,-0.21274993,0.068032816,9.760244
82516554996701,-0.17717627,0.020374753,9.771382
82516574845356,-0.15897138,0.019305656,9.683964
82516594702636,-0.14213826,0.082640566,9.773352
82516614559916,-0.16061825,0.13774258,9.765974
82516634417196,-0.17044878,0.03993774,9.781523
82516654274476,-0.17205532,-0.008576522,9.753249
82516674128848,-0.16153318,0.050034318,9.750085
82516693986128,-0.20021333,0.09789221,9.809143
82516713843280,-0.20439082,0.11695261,9.789787
82516733700560,-0.14040752,0.045398083,9.818734
82516753557712,-0.10827184,0.01706208,9.793216
82516773417217,-0.13675238,0.037995964,9.734997
82516793274497,-0.2016265,0.062171243,9.724935
82516813131777,-0.2824042,0.05227028,9.798508
82516832989057,-0.20954639,0.01180946,9.837015
82516852846337,-0.1195846,0.06357478,9.762065
82516872702172,-0.02812208,0.040452905,9.760967
82516892559452,-0.16957082,-0.0034819287,9.816159
82516912416732,-0.29074836,0.10790742,9.754904
82516932274012,-0.15555221,0.15349706,9.754392
82516952131292,-0.18450958,0.018549012,9.707334
82516971982020,-0.22500703,0.019589968,9.755715
82516991839044,-0.19098657,0.13995263,9.768957
82517011696068,-0.20019189,0.10992717,9.806501
82517031553220,-0.17680281,0.043960344,9.858419
82517051410244,-0.20683111,0.015332485,9.711959
82517071267372,-0.162286,-0.10532917,9.704032
82517091124396,-0.14680748,-0.13877311,9.7308
82517110981548,-0.11258739,0.17437702,9.786745
82517130838572,-0.06712008,0.19770019,9.737109
82517150695724,-0.23177806,-0.030715229,9.777915
82517170555229,-0.29531178,-0.09116882,9.742859
82517190412253,-0.1706276,0.0441646,9.8174095
82517210269405,-0.14312373,0.17089696,9.810623
82517230126557,-0.12868752,0.14530826,9.811282
82517249983709,-0.14781547,0.064855985,9.729704
82517269837789,-0.21213746,-0.07124828,9.692322
82517289694941,-0.18206394,-0.008851188,9.786493
82517309551965,-0.12787066,0.23610467,9.753606
82517329409117,-0.11316589,0.1778371,9.801056
82517349266269,-0.19003709,0.046297863,9.770926
82517369118148,-0.18025681,0.00631159,9.763828
82517388975044,-0.14963838,0.05344963,9.765708
82517408832068,-0.07135193,0.22160448,9.805224
82517428688964,-0.12562348,0.17766766,9.821579
82517448545988,-0.21835117,0.053256206,9.796685
82517468402884,-0.2351876,-0.021580597,9.68283
82517488260670,-0.19220172,0.053513914,9.739241
82517508117694,-0.14511631,0.19290741,9.690244
82517527974590,-0.1062579,0.15964863,9.718573
82517547831614,-0.20660378,0.105163805,9.772061
82517567688510,-0.23121122,0.19167767,9.796181
82517587535440,-0.16592461,0.24616216,9.75291
82517607392208,-0.19465773,0.2944847,9.72203
82517627248976,-0.23095264,0.13732868,9.793952
82517647105616,-0.27631834,0.14922597,9.82638
82517666962384,-0.17138258,0.26746395,9.760265
82517686818012,-0.16176486,0.17598185,9.743702
82517706674652,-0.3094583,-0.009911322,9.764605
82517726531292,-0.2331328,0.108292095,9.640402
82517746387932,-0.084801115,0.23200461,9.681395
82517766244444,-0.18721168,0.14050645,9.76155
82517786114681,-0.25035846,0.08735891,9.866412
82517805971578,-0.15641621,0.25134635,9.853896
82517825828473,-0.05897327,0.23968981,9.800993
82517845685497,-0.12290764,0.19195709,9.84387
82517865542394,-0.28189427,0.16780479,9.771872
82517885405792,-0.3262361,-0.012190656,9.7079525
82517905262816,-0.20269693,0.057484232,9.678247
82517925119969,-0.04247708,0.24205922,9.697791
82517944976992,-0.0888143,0.21418735,9.808784
82517964838831,-0.21629411,0.06965186,9.782969
82517984696112,-0.23717383,-0.024220735,9.718804
82518004553263,-0.15979974,0.1343901,9.771405
82518024405558,-0.1444538,0.189421,9.779989
82518044262711,-0.22771752,0.163452,9.827637
82518064119990,-0.15733522,0.09603121,9.757537
82518083980165,-0.12727079,0.069116876,9.714016
82518103837446,-0.11561672,0.08874349,9.766389
82518123694725,-0.20569941,0.06301312,9.720629
82518143552133,-0.2922728,0.06192706,9.800781
82518163409414,-0.23842008,0.12096005,9.769019
82518183268447,-0.15961444,0.051505495,9.7644005
82518203125855,-0.15758759,0.1372446,9.749833
82518222983136,-0.17377752,0.1718782,9.772453
82518242840415,-0.26182893,0.114186324,9.769633
82518262707069,-0.20257737,0.102895685,9.719109
82518282564478,-0.22575347,0.08958596,9.657696
82518302422013,-0.20039041,0.0019742404,9.713101
82518322279549,-0.07927292,0.09064552,9.874832
82518342137086,-0.035638835,0.3763402,9.932546
82518361994493,-0.11394672,0.4361347,9.9160385
82518381854156,-0.25986642,0.14988151,9.813009
82518401711821,-0.29081407,-0.030609451,9.768411
82518421569484,-0.19783716,0.078185074,9.690951
82518441427020,-0.0870045,0.18396878,9.734165
82518461284685,-0.16976675,0.20087196,9.7111845
82518481137581,-0.23661578,0.051560465,9.695671
82518500995245,-0.24209158,0.0072911573,9.687149
82518520852782,-0.20929281,0.09561189,9.776684
82518540710317,-0.19054618,0.21950783,9.7739525
82518560561250,-0.22116566,0.18223214,9.756517
82518580418659,-0.23875391,-0.035677407,9.758801
82518600276066,-0.22212476,0.008979691,9.725578
82518620133474,-0.12826782,0.19389625,9.73329
82518639990883,-0.10367896,0.24764612,9.865274
82518659848418,-0.3126807,0.23506524,9.788542
82518679699852,-0.33627784,0.08304396,9.759356
82518699557133,-0.27126688,0.020317445,9.721695
82518719414540,-0.29367137,0.048178326,9.678447
82518739271820,-0.19997886,0.11031274,9.778412
82518759129101,-0.12599714,0.18733689,9.7884445
82518778983320,-0.14860886,0.10560896,9.785869
82518798840600,-0.20121929,0.0109238215,9.772707
82518818697881,-0.2538193,-0.056244686,9.7591305
82518838555160,-0.16798079,0.018917402,9.875479
82518858412568,-0.08984618,0.23183733,9.842857
82518878269849,-0.09880467,0.1729668,9.73957
82518898121019,-0.18077405,-0.06751074,9.73772
82518917978171,-0.18677968,-0.16128664,9.682039
82518937835324,-0.17398222,-0.052423358,9.737819
82518957692475,-0.17230181,0.12680313,9.776933
82518977545417,-0.15578458,0.039667808,9.77469
82518997402570,-0.16079241,-0.08327473,9.769025
82519017259593,-0.11222278,-0.029464934,9.724307
82519037116617,-0.14265274,0.03662977,9.843432
82519056973642,-0.19508971,0.061644375,9.862675
82519076827908,-0.12210335,0.0058111325,9.797639
82519096684804,-0.11777594,-0.016454395,9.7966385
82519116541829,-0.18902849,-0.04206091,9.686192
82519136398852,-0.16185725,0.018130662,9.760422
82519156255748,-0.17615671,0.024737108,9.781496
82519176112773,-0.16391975,-0.04981062,9.796464
82519195962969,-0.17949718,-0.03219538,9.779016
82519215819737,-0.18636782,-0.06270256,9.719294
82519235676378,-0.13540803,-0.16194992,9.813404
82519255533145,-0.13931578,-0.02937467,9.870411
82519275393197,-0.12419643,0.1179354,9.785635
82519295249838,-0.18441722,0.06724122,9.774726
82519315106605,-0.14811909,-0.1934668,9.703066
82519334963245,-0.106295235,-0.22812444,9.781296
82519354820014,-0.25097406,0.043864474,9.762139
82519374676848,-0.17703608,0.025738638,9.749596
82519394533616,-0.070690826,-0.16336268,9.799433
82519414390385,-0.11572362,-0.15519504,9.766698
82519434247026,-0.10962264,-0.113109134,9.763548
82519454103792,-0.2254806,-0.0924886,9.856577
82519473960561,-0.11889382,-0.19479401,9.792367
82519493818791,0.039464023,-0.17708178,9.729408
82519513675559,-0.0678941,-0.007379484,9.707215
82519533532328,-0.20974155,-0.16924348,9.720496
82519553389095,-0.1394197,-0.24685217,9.758444
82519573244351,-0.013051332,-0.17269659,9.766906
82519593100992,-0.09757954,-0.12983207,9.887873
82519612957761,-0.2186024,-0.028392026,9.705194
82519632814402,-0.07075729,-0.18613076,9.721906
82519652671171,-0.08734226,-0.19428793,9.777224
82519672527812,-0.1572753,-0.10788476,9.757487
82519692392193,-0.15167111,-0.105703965,9.719565
82519712249090,-0.10007021,-0.07662016,9.780596
82519732105859,-0.08750774,-0.083466046,9.838935
82519751962748,-0.123204246,-0.10404183,9.789689
82519771819517,-0.09779649,-0.14763397,9.637889
82519791679923,-0.10006475,-0.15618487,9.746645
82519811536819,-0.19071746,-0.11573257,9.740819
82519831393844,-0.17531717,-0.078142054,9.781345
82519851250739,-0.14252853,-0.08547668,9.841873
82519871111755,-0.09524095,-0.15875638,9.808177
82519890968908,-0.13469468,-0.12411783,9.780509
82519910826059,-0.18514521,-0.049702596,9.783689
82519930683083,-0.13064703,-0.15446052,9.726154
82519950540236,-0.17713533,-0.09364389,9.767251
82519970397387,-0.15699589,-0.09134879,9.753602
82519990253503,-0.050640225,-0.18464145,9.800842
82520010110656,-0.13019155,-0.08204577,9.749771
82520029967807,-0.1607559,-0.03825856,9.774549
82520049820277,-0.17461412,-0.06551113,9.783128
82520069677430,-0.23534694,-0.0030152726,9.825976
82520089531771,-0.1979411,-0.09811375,9.789188
82520109388795,-0.16087508,-0.16084032,9.759083
82520129245948,-0.14604062,-0.11172876,9.79478
82520149102971,-0.27033076,-0.021285882,9.749946
82520168967248,-0.17827623,5.8792805E-4,9.701894
82520188824529,-0.06383469,-0.18252806,9.6644745
82520208681808,-0.15387991,-0.1648983,9.702324
82520228538960,-0.2978189,0.04237116,9.785522
82520248396241,-0.27790067,-0.059906952,9.811887
82520268253520,-0.13430987,-0.20863296,9.817553
82520288114634,-0.11509545,-0.12970091,9.770328
82520307971915,-0.20736723,-0.11457927,9.702506
82520327829194,-0.20210098,-0.1428578,9.6585045
82520347686602,-0.10766748,-0.1399851,9.746018
82520367543883,-0.21524319,-0.0029171256,9.81871
82520387402191,-0.21330139,0.05340591,9.847743
82520407259599,-0.24297047,-0.024337998,9.778975
82520427116880,-0.22973545,-0.17363833,9.794944
82520446974287,-0.25173548,-0.16168572,9.786309
82520466830739,-0.30804175,0.013870094,9.784131
82520486688020,-0.2969066,0.08050217,9.753991
82520506545299,-0.19606455,-0.014238039,9.731031
82520526402579,-0.082145296,-0.06074325,9.784576
82520546259860,-0.097742274,-0.081378564,9.830543
82520566117269,-0.17575167,-0.06750383,9.780104
82520585968028,-0.17052881,-0.10953748,9.747157
82520605825181,-0.15057631,-0.12874752,9.745928
82520625682462,-0.1716787,-0.098500304,9.700683
82520645539609,-0.18600486,-0.0308088,9.763521
82520665396762,-0.19948933,-0.034690864,9.773302
82520685246897,-0.17549795,-0.0856334,9.797066
82520705103921,-0.15186523,-0.07850056,9.755107
82520724960946,-0.13102315,-0.03856529,9.758691
82520744818097,-0.1287573,-0.03538836,9.742134
82520764678949,-0.17429128,-0.07055945,9.692339
82520784536102,-0.159171,-0.108812146,9.833281
82520804393125,-0.13924038,-0.12703253,9.849493
82520824250277,-0.1623291,-0.016595118,9.735034
82520844107302,-0.1228205,-0.05565283,9.717284
82520863964453,-0.17244886,-0.18447421,9.743957
82520883817186,-0.19237506,-0.16818601,9.816326
82520903674339,-0.27570125,0.020146888,9.747533
82520923531362,-0.14965624,-0.029442422,9.747968
82520943388386,-0.080920115,-0.1202884,9.786837
82520963245411,-0.20652649,-0.038116798,9.76213
82520983096174,-0.24028349,5.7654147E-4,9.761542
82521002953070,-0.20190498,-0.06589878,9.736391
82521022809967,-0.15917431,-0.071415715,9.727001
82521042666862,-0.17801413,-0.02346935,9.851243
82521062523759,-0.27401802,7.7013526E-4,9.836717
82521082380784,-0.21864194,-0.0180978,9.829394
82521102233430,-0.16204418,-0.12642342,9.701253
82521122090198,-0.06375141,-0.20368442,9.6215925
82521141946967,-0.064639166,-0.16351345,9.704405
82521161803862,-0.18767206,-0.11205883,9.735419
82521181654409,-0.26392028,-0.047485538,9.884064
82521201511050,-0.17888887,-0.123684265,9.85051
82521221367689,-0.071688585,-0.25347707,9.736515
82521241224330,-0.05930187,-0.15455398,9.753152
82521261080971,-0.21883433,-0.07320644,9.6971655
82521280941022,-0.17499815,-0.10894119,9.744608
82521300797663,-0.11780555,-0.11134373,9.830085
82521320654432,-0.084258735,-0.115246266,9.726263
82521340511073,-0.10297474,-0.048720777,9.825948
82521360367842,-0.17279442,-0.09205071,9.843194
82521380224611,-0.12296603,-0.17203389,9.857936
82521400085414,-0.11696204,-0.085080616,9.682959
82521419942183,-0.0610017,-0.0648017,9.691383
82521439798952,-0.038508482,-0.08982022,9.803737
82521459655721,-0.14171834,-0.01430077,9.866999
82521479515440,-0.12700644,0.030985404,9.771926
82521499372337,-0.06574045,-0.07481226,9.75581
82521519229106,-0.068170674,-0.22581987,9.692191
82521539085875,-0.15873761,-0.11161675,9.788748
82521558942772,-0.17343362,-0.08029672,9.780334
82521578804015,-0.12838021,-0.07908267,9.768879
82521598660912,-0.13945186,-0.09214277,9.829607
82521618517681,-0.17184599,-0.08423667,9.790167
82521638374578,-0.10343252,-0.11436251,9.718045
82521658231347,-0.17298806,-0.12654383,9.690558
82521678088244,-0.13660426,-0.11153522,9.809707
82521697946166,-0.1671409,-0.0844125,9.82153
82521717802935,-0.14184137,-0.06416489,9.712669
82521737659832,-0.006724392,-0.14998446,9.730955
82521757516601,-0.13707732,-0.18653679,9.784178
82521777383356,-0.20516938,-0.092027016,9.699939
82521797240381,-0.1871233,-0.05827539,9.768589
82521817097532,-0.082780905,-0.19546185,9.729181
82521836954556,-0.019245023,-0.17148139,9.738999
82521856811581,-0.19040777,-0.102748886,9.808497
82521876668732,-0.21409968,-0.09414142,9.98318
82521896525811,-0.15918675,-0.16181584,9.90511
82521916382964,-0.09381227,-0.152963,9.723102
82521936239987,0.10212058,-0.21588145,9.6849165
82521956097139,-0.021164022,-0.2362329,9.685794
82521975954292,-0.23013689,-0.11082803,9.608138
82521995818361,-0.09918533,-0.038752988,9.701961
82522015675769,0.013333383,-0.14231998,9.852189
82522035533050,-0.18822819,-0.148714,9.861831
82522055390329,-0.12871103,-0.1694171,9.782126
82522075250779,0.008244856,-0.23749402,9.723798
82522095108316,-0.047594044,-0.15971686,9.809344
82522114965159,-0.19646126,-0.10221328,9.718203
82522134822567,-0.13139568,-0.14134002,9.62297
82522154679976,-0.05881568,-0.27920195,9.704866
82522174537511,-0.065634586,-0.25239694,9.781598
82522194395260,-0.20464446,-0.18392237,9.801741
82522214252669,-0.22317332,-0.16165963,9.741543
82522234110204,-0.07395696,-0.11461913,9.766326
82522253967613,-0.2080626,-0.121163,9.825297
82522273825150,-0.25835198,-0.08480746,9.795898
82522293682503,-0.14766367,-0.14440408,9.799187
82522313539912,-0.14679387,-0.14182903,9.828785
82522333397449,-0.18283787,-0.12634669,9.752717
82522353254858,-0.1243687,-0.16190042,9.695756
82522373117137,-0.0777381,-0.21324022,9.730248
82522392974802,-0.1276421,-0.16556157,9.772723
82522412832467,-0.22369711,-0.11277477,9.777932
82522432690004,-0.123823315,-0.10106759,9.748978
82522452547669,-0.07968702,-0.18072686,9.804225
82522472405334,-0.14649394,-0.15225911,9.7814245
82522492259359,-0.18626085,-0.16855709,9.781491
82522512116896,-0.18378232,-0.15667836,9.861009
82522531974433,-0.05848231,-0.20452076,9.838426
82522551831970,0.016996613,-0.20919287,9.838358
82522571689635,-0.10041051,-0.10441429,9.7323
82522591535314,-0.15035677,-0.11561751,9.724277
82522611392723,-0.09495043,-0.3289922,9.797418
82522631250004,0.09983161,-0.27354833,9.618449
82522651107285,-0.0043185265,-0.12732102,9.655108
82522670964694,-0.19462045,-0.13355719,9.823268
82522690821975,-0.10562827,-0.2648432,9.903008
82522710672848,-0.019119238,-0.23095833,9.801637
82522730530129,0.04906794,-0.09497873,9.727744
82522750387282,0.061880928,-0.15608944,9.738272
82522770244435,-0.05930628,-0.15686923,9.743389
82522790096166,-0.046670455,-0.15568039,9.750269
82522809953191,0.039365843,-0.19631812,9.815974
82522829810214,0.006372632,-0.20238204,9.73315
82522849667238,-0.06939676,-0.17535122,9.733059
82522869524135,0.034795377,-0.17291921,9.7477045
82522889379977,0.0985138,-0.18742207,9.853218
82522909236873,-0.10031525,-0.1475853,9.8579235
82522929093898,-0.14036481,-0.08761092,9.798177
82522948950793,-0.003580838,-0.122920975,9.738454
82522968807689,0.0075030066,-0.1992945,9.763856
82522988664714,-0.014613432,-0.22568619,9.767489
82523008524456,0.030859234,-0.21310191,9.734868
82523028381480,0.034475915,-0.09759164,9.72081
82523048238377,-0.062685095,-0.161251,9.733196
82523068095400,-0.05971635,-0.15799947,9.743368
82523087952394,0.07820135,-0.14233908,9.774408
82523107809291,-0.03298044,-0.15482253,9.87321
82523127666314,-0.07086281,-0.17726357,9.788583
82523147523210,0.021506172,-0.18560296,9.763216
82523167380107,0.034409378,-0.15927102,9.807254
82523187241075,-0.064606965,-0.17497951,9.738957
82523207098099,-0.087468185,-0.118927166,9.778566
82523226955124,0.015959548,-0.11619481,9.73116
82523246812147,-0.050762333,-0.1849125,9.802012
82523266669171,-0.15502737,-0.21464948,9.687305
82523286526196,0.1100007,-0.20669007,9.722649
82523306378780,0.09817539,-0.21453764,9.880454
82523326235676,-0.14203982,-0.16187556,9.861438
82523346092573,-0.09413609,-0.0926804,9.662288
82523365949596,0.11768325,-0.10056789,9.720927
82523385809723,0.054879315,-0.16482627,9.790446
82523405666748,-0.14091915,-0.16280127,9.708671
82523425523773,-0.09994316,-0.10553217,9.735502
82523445380798,0.026733365,-0.20078605,9.758183
82523465237823,0.0046916576,-0.22060217,9.7603855
82523485090562,-0.09008386,-0.18708937,9.834872
82523504947459,-0.143481,-0.12502846,9.866688
82523524804484,-2.8585295E-5,-0.08553679,9.756373
82523544661381,0.08763996,-0.080407344,9.705821
82523564518278,0.06122941,-0.15361592,9.710005
82523584375175,-0.04355849,-0.1825939,9.835676
82523604231230,-0.2042839,-0.17743278,9.904003
82523624088127,-0.0015167907,-0.09674867,9.783858
82523643945024,0.23815139,-0.07196852,9.767083
82523663801921,0.02416039,-0.12558828,9.72924
82523683653594,-0.15641935,-0.17281915,9.705622
82523703510491,-0.049968887,-0.105262525,9.745831
82523723367260,0.09972662,-0.08646747,9.803551
82523743224012,-0.04713693,-0.12074591,9.876554
82523763080781,-0.21257861,-0.16326855,9.826196
82523782937548,0.07225062,-0.13239346,9.800344
82523802802284,0.08033745,-0.15089968,9.7915945
82523822659309,-0.08607125,-0.13275014,9.700272
82523842516204,0.038541008,-0.11398126,9.645132
82523862373100,0.0660257,-0.13392688,9.758937
82523882230125,-0.1749663,-0.14880295,9.7936945
82523902084619,-0.18372637,-0.15002756,9.859999
82523921941515,0.005885144,-0.18347207,9.795623
82523941798540,0.12328677,-0.19203353,9.80001
82523961655435,0.045108538,-0.1868815,9.79587
82523981517427,0.014676659,-0.15749477,9.722746
82524001374580,-0.035587497,-0.10002563,9.724852
82524021231603,-0.07037156,-0.051576372,9.823695
82524041088627,0.080458194,-0.13104764,9.778259
82524060945780,0.00861273,-0.17228909,9.672835
82524080802803,-0.041230243,-0.21793666,9.653969
82524100659602,-0.1072358,-0.30621043,9.751806
82524120516627,-0.23690712,-0.26589838,9.828122
82524140373778,-0.23916072,-0.22582844,9.758145
82524160230802,8.481733E-4,-0.24525806,9.798605
82524180087955,0.13328686,-0.26229596,9.787224
82524199944646,-0.098917395,-0.23453577,9.755992
82524219801671,-0.17788556,-0.14539233,9.743206
82524239658696,0.041671634,-0.1342174,9.669215
82524259515721,0.08085948,-0.12075544,9.728303
82524279382892,0.06862649,-0.10986078,9.794122
82524299240045,-0.020087,-0.15468523,9.85948
82524319097198,-0.0192489,-0.19899303,9.8123255
82524338954351,0.10762272,-0.17692365,9.650543
82524358811504,0.021988504,-0.16091017,9.678254
82524378668785,0.0148113,-0.14744209,9.689072
82524398525230,0.025763651,-0.25369257,9.802119
82524418382383,-0.1611576,-0.28902858,9.895501
82524438239525,-0.26082352,-0.25562486,9.882665
82524458096677,-0.14474007,-0.35457072,9.791766
82524477953830,-0.033666383,-0.41449162,9.753881
82524497804465,-0.05720007,-0.34582877,9.703252
82524517661489,-0.17250271,-0.24536571,9.767734
82524537518514,-0.2444618,-0.082592145,9.786782
82524557375537,-0.20294666,-0.060843226,9.7371855
82524577232562,-0.055924017,-0.10797203,9.759454
82524597089587,0.0111045055,-0.21538743,9.775023
82524616939590,-0.21359172,-0.22582884,9.829226
82524636796615,-0.24350962,-0.20052038,9.795162
82524656653512,-0.12918322,-0.20317505,9.787919
82524676510409,-0.05896284,-0.13388975,9.755833
82524696360790,-0.16780214,-0.17779218,9.743198
82524716217687,-0.1458605,-0.21541452,9.767542
82524736074447,0.03279728,-0.20854563,9.707844
82524755931343,-0.036778297,-0.2017161,9.773336
82524775788112,-0.15022753,-0.1158596,9.740749
82524795648908,-0.026879346,-0.16503207,9.81506
82524815505804,0.066446625,-0.1326114,9.836628
82524835362701,0.04911699,-0.10084462,9.780474
82524855219596,-0.087685764,-0.09156848,9.812977
82524875076492,-0.1009478,-0.09955216,9.764269
82524894933517,0.002745701,-0.18174927,9.758099
82524914786135,0.046932112,-0.15896858,9.720474
82524934642903,-0.021218346,-0.16254033,9.863538
82524954499800,-0.19556908,-0.26983973,9.859809
82524974356567,-0.17312765,-0.1847612,9.75902
82524994216048,0.046030458,-0.13126549,9.726422
82525014072945,-0.052094895,-0.17951415,9.811624
82525033929840,-0.21284993,-0.168485,9.834185
82525053786736,-0.032665174,-0.22763844,9.71193
82525073643505,0.22719458,-0.12805043,9.718593
82525093502028,0.06495356,-0.113675594,9.771665
82525113358924,-0.2811598,-0.21927856,9.8585005
82525133215821,-0.048177835,-0.1663195,9.737935
82525153072716,0.3033556,-0.10279452,9.733805
82525172929612,0.09093299,-0.0077331956,9.747798
82525192786509,-0.15907964,-0.097968295,9.764655
82525212647575,-0.021375561,-0.21624449,9.761259
82525232504471,0.21492699,-0.19723593,9.844878
82525252361496,0.119476475,-0.18237142,9.7357235
82525272218391,0.006145083,-0.09225704,9.68836
82525292077655,0.08180111,-0.16109484,9.738818
82525311934552,0.10319706,-0.19593291,9.872288
82525331791449,-0.023097726,-0.11404008,9.77101
82525351648346,-0.056557164,-0.1220101,9.759338
82525371505243,0.069104254,-0.18969308,9.690068
82525391362268,0.05167395,-0.22136638,9.8565035
82525411220532,-0.068411574,-0.18684436,9.803143
82525431077557,0.02129244,-0.12479301,9.766984
82525450934580,0.09600947,-0.13439973,9.718182
82525470791476,0.022886684,-0.10894234,9.762419
82525490648501,-0.049473334,-0.17505509,9.814296
82525510511644,-0.058505498,-0.15052465,9.7846775
82525530368668,0.18512762,-0.08820418,9.7091255
82525550225693,0.13379464,-0.13123316,9.751623
82525570082844,-0.052492157,-0.15596673,9.76015
82525589944080,-0.017157499,-0.16622317,9.730846
82525609801233,0.03685378,-0.19412422,9.788809
82525629658384,-0.030098332,-0.18186319,9.760166
82525649515664,-0.13975799,-0.22718461,9.769952
82525669372817,-0.06433558,-0.2000293,9.815441
82525689229968,-0.0259183,-0.18696593,9.70759
82525709086145,-0.047413398,-0.16299653,9.662547
82525728943298,-0.018271621,-0.08136269,9.746583
82525748800449,-0.031521596,-0.060118888,9.903413
82525768657601,-0.21973108,7.0798147E-4,9.821212
82525788514754,-0.108700864,0.025825975,9.785137
82525808373088,0.052416883,-0.0639923,9.853598
82525828230240,-0.057917655,-0.101794556,9.709061
82525848087521,-0.19890134,-0.20720372,9.673148
82525867944672,-0.051694464,-0.1944549,9.750985
82525887805708,0.07717469,-0.2442139,9.718939
82525907663117,-0.1864134,-0.24579397,9.8708105
82525927520524,-0.30860585,-0.15988979,9.869236
82525947377932,-0.03464075,-0.18580851,9.759209
82525967235341,-1.1051845E-4,-0.1478786,9.714382
82525987092748,-0.18138516,-0.13107485,9.741013
82526006952178,-0.21375917,-0.1993536,9.769787
82526026809715,-0.14317995,-0.13110596,9.7667885
82526046667250,-0.05326572,-0.17132933,9.849141
82526066524786,-0.08502055,-0.26831943,9.8359585
82526086382323,-0.15514241,-0.2321858,9.767161
82526106236642,-0.16382053,-0.19726568,9.750973
82526126094178,-0.08962691,-0.1681236,9.748115
82526145951587,0.009879619,-0.18378544,9.752305
82526165808994,-0.12133493,-0.12074265,9.738296
82526185664957,-0.06678316,-0.10220012,9.707849
82526205522366,-0.0068953703,-0.19609141,9.811913
82526225379773,0.020965304,-0.13232332,9.8257265
82526245237053,-0.009077491,-0.076350205,9.729732
82526265094462,-0.089763775,-0.0060786987,9.709959
82526284951869,0.009666821,-0.124811046,9.703956
82526304807533,-0.12307236,-0.17808096,9.840362
82526324664814,-0.15799323,-0.09640402,9.776213
82526344522602,-0.044420928,-0.09825195,9.765269
82526364379883,-0.09367574,-0.07949202,9.792546
82526384237164,-0.1134705,-0.13637368,9.774052
82526404096745,-0.081990525,-0.09455175,9.82884
82526423954026,-0.052226923,-0.09581953,9.718376
82526443811435,-0.09753379,-0.06087709,9.682349
82526463668716,-0.062246367,-0.11118215,9.708116
82526483526125,0.043262165,-0.21106263,9.657359
82526503383406,-0.07838242,-0.19659767,9.847289
82526523230837,-0.118691884,-0.22829941,9.731744
82526543087990,-0.046370737,-0.08672412,9.778424
82526562945015,-0.25495288,-0.009701889,9.85225
82526582802168,-0.08052788,-0.11146693,9.768882
82526602653889,0.0010192575,-0.08498015,9.772583
82526622510914,-0.1339547,-0.0108373435,9.72685
82526642367939,-0.14033726,-0.15269493,9.776088
82526662224964,-0.16261718,-0.23446646,9.708398
82526682081989,-0.047840178,-0.10528041,9.686331
82526701931808,-0.062385224,-0.102893785,9.803738
82526721788561,-0.18004069,-0.101311095,9.951479
82526741645458,-0.1560199,-0.13535546,9.88284
82526761502225,-0.05340983,-0.0926603,9.803384
82526781359121,-0.0014220579,-0.069321096,9.713009
82526801216018,-0.07714507,-0.14606147,9.73371
82526821065648,-0.013014435,-0.22946613,9.724252
82526840922288,0.05176781,-0.1460304,9.689851
82526860779057,-0.066617355,-0.05856436,9.742812
82526880635696,-0.014900142,-0.13565692,9.749868
82526900486249,0.03326477,-0.21403144,9.813363
82526920342890,-0.032398134,-0.15932544,9.808226
82526940199401,-0.11443118,-0.06458262,9.795304
82526960055913,-0.12713997,-0.10452697,9.862162
82526979912554,-0.019450463,-0.16398092,9.775542
82526999770854,0.030782437,-0.15844661,9.784946
82527019627366,-0.007853549,-0.15913674,9.808562
82527039484007,-0.04064321,-0.14252798,9.78655
82527059340518,-0.13081755,-0.13070212,9.745893
82527079197030,0.006663335,-0.15553938,9.646778
82527099053543,0.05017709,-0.16633175,9.753313
82527118912474,-0.14558004,-0.092620276,9.795024
82527138769115,-0.071617335,-0.1559279,9.789354
82527158625628,0.013079756,-0.14241567,9.840921
82527178482269,-0.050084222,-0.12834686,9.787583
82527198340844,-0.07620035,-0.09207615,9.770015
82527218197485,-0.08018079,-0.18720236,9.867025
82527238054124,0.034464322,-0.19243059,9.805333
82527257910764,-0.06988882,-0.06756799,9.780823
82527277767405,-0.03661578,-0.07319427,9.670561
82527297632949,0.054243196,-0.24355403,9.72707
82527317489845,-0.057288725,-0.14104044,9.744539
82527337346614,0.017599985,-0.1788465,9.686262
82527357203383,0.11179259,-0.22538303,9.816426
82527377060152,-0.08956551,-0.09398246,9.927854
82527396916921,-0.15790409,-0.042714823,9.876564
82527416779298,-0.0026359658,-0.13119678,9.79854
82527436636067,0.11147189,-0.17399119,9.75236
82527456492964,-0.022674935,-0.19775209,9.771576
82527476349861,-0.057475228,-0.1792598,9.676278
82527496209408,-0.049261726,-0.12673852,9.659454
82527516066305,-0.03432647,-0.09743512,9.721744
82527535923330,-0.10037825,-0.08906322,9.781436
82527555780227,-0.30104655,-0.038348053,9.920895
82527575637124,-0.110463604,-0.25691462,9.745867
82527595494021,0.049397703,-0.25926358,9.69179
82527615344730,-0.08972395,-0.11871514,9.758851
82527635201627,-0.1390249,-0.13412367,9.770554
82527655058396,-0.19004704,-0.0018233104,9.829304
82527674915165,-0.20616816,-0.028120767,9.735587
82527694771934,-0.11681978,-0.10569112,9.736843
82527714631567,-0.12514351,-0.1791429,9.793284
82527734488464,-0.13236172,-0.23360468,9.710775
82527754345361,-0.14697541,-0.15456301,9.767986
82527774202130,-0.14311421,-0.17942452,9.761811
82527794068039,-0.14965719,-0.12630004,9.773906
82527813925064,-0.18427585,-0.06464079,9.885558
82527833782215,-0.151542,-0.1631522,9.748209
82527853639239,-0.102496676,-0.08426685,9.770029
82527873496264,-0.1359642,-0.14793989,9.763282
82527893353415,-0.105744466,-0.19808614,9.741461
82527913216614,-0.11779053,-0.07572786,9.821259
82527933073895,-0.22399326,-0.10848095,9.717756
82527952931174,-0.19604236,-0.0723467,9.924607
82527972788454,-0.1884737,-0.23567647,9.859806
82527992645735,-0.09213246,-0.219906,10.007145
82528012513086,-0.0835661,-0.11883438,10.14239
82528032370622,-0.29119575,-0.09904105,10.001582
82528052228159,-0.36910823,0.052457504,10.092545
82528072085694,-0.24301927,-0.13419676,9.960817
82528091941774,-0.20097858,-0.26263162,10.017849
82528111799311,-0.34944844,-0.09654148,9.980826
82528131656846,-0.29760078,-0.11714983,9.866449
82528151514382,-0.06605494,-0.15619531,10.129183
82528171371919,-0.2563974,-0.023432234,10.13749
82528191229454,-0.3030959,-0.07287341,10.05946
82528211082407,0.076825805,-0.41102195,9.998661
82528230939944,0.06617404,-0.41374585,9.81526
82528250797351,-0.14933619,-0.1752262,9.820875
82528270654887,-0.2844676,0.122738175,9.765802
82528290512424,-0.27541053,0.13749252,9.959454
82528310370787,-0.31310546,0.0036015096,10.006266
82528330228323,-0.3285116,-0.2807664,9.907023
82528350085860,-0.13091639,-0.26805854,10.135985
82528369943267,-0.19586924,-0.2168442,10.001259
82528389798120,-0.17217445,-0.20926213,9.882171
82528409655529,-0.19256799,0.21525127,9.893014
82528429513064,-0.25711423,0.12580693,9.835252
82528449370472,-0.3550486,-0.0341507,10.157653
82528469227881,-0.52916646,0.009931849,10.140064
82528489085288,-0.431763,-0.0681346,10.016423
82528508929713,-0.2725306,0.078641176,9.931763
82528528786738,-0.29938594,-0.009657632,9.977207
82528548643889,-0.27208072,-0.062295306,10.024822
82528568501041,-0.26327547,-0.04273623,9.881329
82528588358066,-0.30002832,-0.063023224,9.928124
82528608206807,-0.46563122,0.042052384,9.992276
82528628063831,-0.5713551,0.05121559,10.033044
82528647920728,-0.49205363,0.09781918,10.083852
82528667774761,-0.40498045,0.0015773651,10.013796
82528687631658,-0.48310155,-0.05168524,10.086814
82528707488555,-0.67764246,0.056730445,10.255964
82528727334602,-0.9019181,0.46662745,10.284532
82528747191371,-1.0141841,0.99495995,10.444856
82528767048012,-0.91796774,1.1860161,10.675219
82528786904781,-0.6367331,1.2394536,10.57108
82528806757282,-0.9052214,1.6771219,10.429943
82528826613923,-1.2913779,1.6801143,10.202022
82528846470436,-1.1839467,0.88102585,10.227412
82528866327069,0.16652149,-1.0599604,10.732071
82528886183581,0.26336443,-1.6577144,11.671284
82528906040093,0.45490518,-1.5210105,11.392699
82528925896581,0.18435171,-0.46789336,10.822518
82528945753221,-0.28856808,-0.4230701,10.178308
82528965609733,-1.1247452,1.5959005,9.917266
82528985466373,-0.38482407,1.4032608,9.604346
82529005322885,0.59403586,0.6688045,9.691783
82529025181025,0.26675642,0.52202374,8.93318
82529045037665,-0.20079173,0.77016014,8.938268
82529064894305,-0.017843246,1.0409471,9.34967
82529084750817,-0.4583326,1.3400704,9.492239
82529104607457,-0.64854836,1.1346058,10.013318
82529124460990,-0.22333181,0.7013416,9.934266
82529144317502,-0.5013959,0.9139809,9.604574
82529164174014,-1.3035271,1.7873287,9.505159
82529184030654,-1.0184375,1.8102379,9.417584
82529203887166,-0.70283574,0.96647584,9.632808
82529223747098,-1.0476482,0.49274853,9.566992
82529243603610,-1.7481407,0.3869608,9.190851
82529263460122,-1.8072512,0.6187035,9.297067
82529283316635,-2.1819952,1.4609412,9.321197
82529303173020,-2.8732402,2.099534,9.286632
82529323028577,-1.6841416,1.7744076,9.499522
82529342885089,-0.47991085,2.091188,9.254321
82529362741473,1.089419,1.4150357,9.228241
82529382597985,1.7205645,-0.16680285,9.203313
82529402454369,-1.6484293,0.42245623,10.565958
82529422315970,-3.0817323,1.7413616,9.452655
82529442172483,1.2114395,-1.1692569,12.614819
82529462029124,4.249169,2.6380758,13.4558525
82529481885637,4.6877103,11.167524,10.182048
82529501742150,1.388765,5.841275,8.099211
82529521605319,0.43209702,1.3149294,9.026898
82529541461960,1.0674527,-0.3405435,8.882287
82529561318729,0.607352,-0.74779916,8.257685
82529581175370,0.5854123,0.91820973,8.660865
82529601032011,1.3413512,1.5128331,9.477052
82529620891084,0.9685098,0.54727,9.491447
82529640747853,0.93554884,-1.5782944,9.5099945
82529660604622,0.90674275,-3.5379267,9.149788
82529680461391,0.29820287,-4.424897,8.210019
82529700318160,-1.5360775,-2.0782568,8.673296
82529720182939,-2.381092,1.9766096,9.247938
82529740039964,-1.3617339,0.23267797,10.0952635
82529759896845,-1.3012336,-1.227461,9.807857
82529779753869,-0.93470454,0.08292055,9.509057
82529799610765,0.2776927,0.6439565,8.822266
82529819468868,-0.04285603,0.23526815,8.161676
82529839325892,-0.35779113,0.97134167,8.704202
82529859182788,-0.83632,1.0450473,10.142548
82529879039812,-2.2976854,1.8835121,10.711556
82529898896836,-2.3936198,2.0513806,11.290725
82529918761802,-2.60695,0.87374455,11.739921
82529938619082,-3.8080075,0.71270853,12.315915
82529958476234,-4.48718,1.456769,12.207048
82529978333514,-2.6140454,0.5117481,12.986478
82529998190666,0.70710284,-1.0837176,15.324523
82530018057581,1.7338396,-1.1305525,14.669614
82530037915117,2.9774885,1.8670754,11.521668
82530057772525,4.1084113,-0.42191178,11.08405
82530077630061,6.1890197,-3.681225,13.594995
82530097487597,13.55762,-2.6020293,14.091876
82530117339940,8.820507,2.843823,11.377497
82530137197476,2.5499802,5.6488714,9.47551
82530157054884,3.5551589,1.5765332,7.5967956
82530176912292,4.5123305,-2.774719,6.2744765
82530196769701,1.5369722,-8.264835,5.4864683
82530216631946,-2.0120468,-8.7860775,5.8746905
82530236489480,-1.5547478,-4.704176,5.4575715
82530256347016,-2.0037446,-1.0704086,4.291123
82530276204552,-0.8740738,2.717735,4.941225
82530296062088,1.7461389,3.3636932,5.534025
82530315918144,2.1120374,1.1697704,5.439035
82530335775680,1.7245446,-0.28128546,4.936677
82530355633089,1.0750496,-1.996044,5.9393334
82530375490626,1.1313446,-2.4780607,7.9044056
82530395348035,2.4326255,-1.3955364,11.650744
82530415205280,2.3946865,10.170754,18.061922
82530435062817,-0.7725656,15.764394,18.378191
82530454920226,-0.7626398,6.580053,12.698778
82530474777763,4.0345354,-2.1251988,8.073133
82530494635172,5.5466175,-4.996336,4.4798374
82530514487435,3.526385,0.9025293,6.4742584
82530534344844,5.461839,0.916193,13.147723
82530554202125,10.4333105,-4.522811,19.71188
82530574059534,6.184843,-8.227747,14.761276
82530593916943,2.3423896,-3.9781587,4.7261567
82530613764062,2.3390598,-3.0987449,3.7673388
82530633621215,2.121605,-3.1136606,7.2856803
82530653478368,2.644071,-3.2479186,10.03313
82530673335649,3.152168,-6.0966463,9.179392
82530693192802,0.93824506,-7.736405,7.8738637
82530713043145,-0.9255341,-6.6148214,7.03532
82530732900042,-0.34520584,-2.325784,8.023667
82530752757067,0.3713665,0.1483821,9.917224
82530772614092,0.66718084,-2.3281715,8.402658
82530792470968,0.78873706,0.19270843,8.645974
82530812334894,0.1406007,-0.6844587,11.961519
82530832192046,-1.4896946,-0.35544753,10.418171
82530852049274,-1.5381775,-0.5467482,7.7730165
82530871906426,1.6423805,3.121197,9.0558
82530891763578,2.1394837,2.525763,9.749689
82530911614854,0.2554872,0.3923989,8.488802
82530931471878,1.1625652,0.59906614,8.124238
82530951328774,2.2513835,0.95373166,9.631645
82530971185798,2.8179011,1.3904341,11.936452
82530991042822,4.1596403,1.4669762,11.686646
82531010898280,5.494557,1.6407857,10.956762
82531030755304,4.084151,2.2701855,11.866491
82531050612200,3.2936668,3.0245676,12.117783
82531070469224,3.6337786,2.647495,12.534152
82531090326120,2.2229998,1.377179,14.132715
82531110179787,0.5832983,0.3557557,13.651151
82531130036683,3.1080942,-0.5339279,10.722354
82531149893579,4.81989,-1.7156962,8.496825
82531169750475,2.384243,-3.7714279,11.460051
82531189607372,2.6528118,-6.846009,15.630676
82531209464269,6.0887394,-8.114931,14.310141
82531229313831,4.566608,-4.4405994,10.678237
82531249170599,2.763342,-2.7989662,9.713372
82531269027239,0.38232854,-4.0943336,9.997186
82531288884007,-2.7675571,-2.870349,8.442617
82531308740647,-9.893724,4.2096853,7.0787077
82531328594030,-7.039897,4.6490116,6.4856133
82531348450670,-2.849033,3.0971994,4.79584
82531368307311,1.3869671,1.4869787,3.3416946
82531388163952,6.0333056,-3.251359,2.9244025
82531408020593,3.691836,-2.7077897,2.9785633
82531427875532,2.0065632,-1.1877842,3.976061
82531447732045,2.1036184,-0.94275767,4.456077
82531467588558,2.5422864,-1.6759927,4.541469
82531487445193,2.1357338,-1.2054908,6.685042
82531507301705,6.0522733,-2.1867177,14.595328
82531527163172,8.625828,-0.620078,24.83926
82531547019684,9.701615,6.2766495,19.437971
82531566876324,4.6568637,2.433764,11.125205
82531586732964,-7.410632,-3.6329188,12.094309
82531606589604,-13.054205,-4.4588547,8.578034
82531626447894,-5.1028714,-6.2190576,3.3312018
82531646304662,10.232835,-9.861693,4.2717857
82531666161302,5.6112294,-7.438652,9.25662
82531686017942,-11.34197,-4.897277,12.083374
82531705874710,-13.59318,0.9805576,10.639332
82531725694291,-6.5648756,4.631946,10.009341
82531745550291,-3.7652798,2.9892948,10.390687
82531765406163,-2.87587,0.71990365,10.872969
82531785262163,3.5454934,-2.3945396,10.642893
82531805118035,3.4234025,-2.0380785,10.939616
82531824985585,-0.5934035,2.3365812,10.257399
82531844841713,-0.5786945,0.24810302,9.131855
82531864697841,-0.17641479,-0.92300504,7.147018
82531884553969,2.586126,-2.9210315,7.015368
82531904410098,4.506996,-2.6191795,9.116211
82531924278685,2.8497634,-1.0285169,8.393444
82531944135068,0.968037,-0.53376937,5.9250216
82531963991452,3.105545,-2.190154,5.7782173
82531983847836,4.0222397,-1.8810087,8.530875
82532003704220,3.8375545,-0.016180886,10.224354
82532023577104,-0.39784774,4.0844474,10.992955
82532043433873,-2.584732,1.5012703,15.343632
82532063290514,-4.1732726,-0.027314702,16.967686
82532083147283,-4.78412,-0.49857587,12.9422865
82532103004052,-5.5690455,0.022560773,11.2612095
82532122860151,-7.9938006,-5.3104405,13.443375
82532142716920,-4.2057624,-8.139975,11.071395
82532162573561,-1.0424356,-1.5167159,10.132673
82532182430330,-3.436852,4.518296,10.266446
82532202286971,-0.41568837,5.20506,9.582358
82532222145568,0.35064077,2.069933,8.538952
82532242002209,-1.7652409,-1.5817568,7.9397306
82532261858978,-2.2525244,-2.291176,6.0195374
82532281715619,-1.9142796,-2.3965166,5.7549777
82532301572388,-1.1300917,-1.472797,5.691539
82532321430653,-1.7711567,-0.7815603,5.3471646
82532341287422,-1.5022426,-1.0109768,5.1022334
82532361144063,-1.4976887,-0.6973728,5.101504
82532381000832,-1.5111164,1.6594068,6.1691403
82532400857601,0.69156665,3.9747033,8.90749
82532420725402,5.290484,1.5638013,12.091112
82532440582427,3.710711,-1.8944793,13.636949
82532460439452,1.6143992,-2.7823026,12.015462
82532480296477,1.5872016,-4.1919713,10.554376
82532500153353,2.5113087,-5.912711,10.534988
82532520012862,1.963478,-4.107546,12.060231
82532539870015,1.9878879,-0.49521405,12.753362
82532559727040,-2.4905772,3.1073396,13.183263
82532579584193,-4.9247394,2.6274579,11.31709
82532599441218,-2.79141,-0.6781492,9.818334
82532619297285,-1.2409862,-1.6782037,8.81895
82532639154438,-0.047553018,-2.1815047,7.9088
82532659011463,-1.982771,-0.16665116,8.330452
82532678868616,-2.714424,1.7800182,10.496735
82532698725769,-2.6621249,3.0722487,11.870598
82532718587374,-2.323001,2.1718175,11.267747
82532738444527,-0.67001265,0.15635288,10.743706
82532758301808,0.15753688,-0.57288426,9.949993
82532778159077,0.38076076,-0.63738066,9.610203
82532798016229,0.68250436,-0.4898857,9.609817
82532817874806,2.4856805E-4,0.19242626,8.818205
82532837732086,0.5584292,1.5126017,8.973396
82532857592735,0.16195308,1.9383163,9.882274
82532877450015,0.06507931,1.3193645,9.572681
82532897307295,0.5349099,-0.31383285,10.206295
82532917164161,1.0667665,-1.3349154,10.918397
82532937021441,1.0448043,-1.9900514,10.147358
82532956878721,0.18504347,-2.472056,9.412979
82532976736001,-0.36069682,-1.3811728,9.376625
82532996593409,-0.23057874,-0.1003468,10.080836
82533016455809,0.71313375,0.20892633,11.142592
82533036313217,0.75504816,0.59507823,10.830244
82533056170753,0.071318746,0.29661134,9.182597
82533076028161,-0.38022035,-0.10047233,8.731799
82533095885569,-0.40989363,0.41855702,9.273062
82533115742977,-0.27763128,0.72002727,9.882978
82533135598032,-0.14393164,0.5829314,9.885934
82533155455441,-0.40641987,0.42459258,9.346445
82533175312978,-0.5250768,0.25243193,8.975785
82533195170512,-0.3746236,-0.07249893,8.985432
82533215027920,-0.062452957,-0.62616193,9.434811
82533234879976,0.513698,-1.0571194,9.920322
82533254737384,0.8415866,-0.8806408,10.013465
82533274594792,0.51437914,0.32017598,9.801037
82533294452328,0.226472,0.32351866,10.0284605
82533314309736,0.19170247,-0.45261723,10.044721
82533334141245,0.57948554,-0.6147088,9.57895
82533353997885,0.6978041,-0.44252545,9.639441
82533373854525,0.7917916,-0.99757475,9.8280945
82533393711165,0.45185342,-0.65579236,9.628735
82533413567805,0.012079676,0.10433501,9.533468
82533433431022,0.4296821,-0.10461938,9.578846
82533453287790,0.87279207,-0.16104816,9.482244
82533473144430,0.8774391,-0.13929063,9.580625
82533493001198,0.62392884,-0.4102979,9.688571
82533512857966,0.23964933,-0.645338,9.637528
82533532720226,-0.16215353,-0.418812,9.500454
82533552576994,-0.23044965,-0.39000556,9.517875
82533572433890,0.19447349,-0.5512437,9.596884
82533592290658,0.47251022,-0.42863616,9.595989
82533612147554,0.46853772,-0.2653352,9.608978
82533632009351,0.44492677,-0.17565392,9.530317
82533651866376,0.59422594,-0.14147831,9.4070635
82533671723401,0.62476665,-0.33967438,9.400177
82533691580423,0.17221685,-0.09987596,9.701884
82533711437447,0.2030961,-0.11405172,9.743243
82533731295867,1.1487747,-0.7223506,9.667012
82533751152891,1.0544726,-0.8397131,9.803264
82533771009915,0.76550937,-0.53616107,9.796885
82533790866811,0.6031768,-0.51716393,9.675414
82533810723835,0.54917103,-0.6224719,9.62038
82533830577124,0.6460985,-0.74699175,9.612494
82533850434020,0.50440747,-0.5099478,9.668931
82533870291044,0.41439798,-0.34072262,9.613913
82533890147940,0.23978826,-0.114312895,9.465786
82533910004836,0.17020997,0.12004816,9.488503
82533929865432,0.47757885,0.03995201,9.635825
82533949722456,0.6596992,-0.3024605,9.64988
82533969579352,0.60931176,-0.5959709,9.524833
82533989436376,0.41791227,-0.3877173,9.4620285
82534009293400,0.32905754,-0.10017966,9.540954
82534029154530,0.51113486,-0.20459117,9.656108
82534049011554,0.69736546,-0.39840686,9.740448
82534068868706,0.59694636,-0.24628718,9.620483
82534088725858,0.47086442,-0.16040756,9.651558
82534108583010,0.46482417,-0.3368108,9.8012495
82534128439431,0.44361004,-0.36330247,9.735389
82534148296584,0.45246553,-0.33670425,9.669755
82534168153607,0.4577991,-0.3948945,9.664635
82534188010759,0.4478396,-0.33402956,9.613759
82534207867911,0.39487302,-0.26708856,9.596655
82534227732335,0.37821534,-0.036045667,9.633087
82534247589487,0.42356777,0.1332191,9.673118
82534267446767,0.3748199,-0.1300767,9.756566
82534287303919,0.29366505,-0.34351817,9.738072
82534307161199,0.17733815,-0.24239324,9.654389
82534327017672,0.16682898,-0.2566724,9.578429
82534346874952,0.25261497,-0.12952158,9.536607
82534366732232,0.37798133,-0.08069544,9.628629
82534386589512,0.3865167,-0.16768993,9.727864
82534406446664,0.40459636,-0.19914103,9.667035
82534426304285,0.41229725,-0.13090764,9.602933
82534446161565,0.37644276,-0.109830394,9.685791
82534466018845,0.36922574,-0.062979676,9.7155485
82534485876125,0.41740134,0.05949884,9.656876
82534505733405,0.3918887,8.37185E-4,9.605308
82534525589868,0.43071917,-0.16036989,9.555542
82534545447148,0.43083376,0.008824612,9.585821
82534565304428,0.4767252,-0.023539655,9.692615
82534585161709,0.4708818,-0.10612797,9.624202
82534605018990,0.488512,-0.18549472,9.685389
82534624874047,0.38015813,-0.058343932,9.723762
82534644731328,0.3883535,-0.13753194,9.769524
82534664588604,0.4527067,-0.14269668,9.757813
82534684445884,0.5168582,-0.15338969,9.791698
82534704303164,0.5198339,-0.21997061,9.93332
82534724154701,0.49879187,-0.108010285,9.79884
82534744011853,0.36124146,-0.006951424,9.616603
82534763869005,0.2569494,-0.0509033,9.557224
82534783726157,0.32291138,-0.14858246,9.59429
82534803583309,0.37738138,-0.121876925,9.650946
82534823434884,0.43049955,-0.14102322,9.710323
82534843291908,0.4227923,-0.0770656,9.729273
82534863145519,0.44222254,-0.053490352,9.843133
82534883002543,0.48016286,0.032471765,9.779296
82534902859567,0.35804316,0.045840383,9.660224
82534922709947,0.25130853,-0.043402676,9.579186
82534942566715,0.2882792,-0.026095618,9.622235
82534962423483,0.38378823,-0.068221845,9.732247
82534982280379,0.3840847,-0.16796666,9.8150835
82535002137147,0.41437283,-0.07656633,9.816847
82535022001052,0.46943146,-0.047225434,9.815813
82535041858076,0.53773785,-0.13699238,9.812284
82535061714973,0.4166001,-0.017638607,9.789649
82535081571996,0.38431782,-0.021018354,9.814512
82535101428892,0.45484242,-0.11790874,9.804841
82535121288415,0.5352303,-0.29006812,9.849227
82535141145439,0.51156574,-0.24741106,9.853059
82535161002463,0.4268524,-0.3564371,9.868173
82535180859487,0.4763811,-0.23550838,9.869333
82535200716511,0.51476294,-0.011946491,9.879162
82535220578016,0.40280315,-0.12899658,9.742285
82535240435041,0.42936513,-0.21954732,9.740494
82535260292066,0.44902548,-0.22367094,9.753755
82535280149219,0.39897367,-0.18815435,9.739514
82535300006244,0.34761214,-0.17129725,9.730064
82535319861371,0.3630157,-0.13676806,9.778959
82535339718396,0.37266335,-0.190418,9.710336
82535359575421,0.40227607,-0.27288207,9.732493
82535379432574,0.41314083,-0.25126773,9.87711
82535399289599,0.3404279,-0.057000738,9.82125
82535419141844,0.32939267,-0.0073114005,9.665751
82535438998741,0.43707517,-0.18768768,9.749353
82535458855638,0.46318847,-0.27163163,9.762398
82535478712535,0.3542768,-0.21288593,9.789009
82535498569432,0.36978126,-0.10209921,9.836812
82535518430735,0.3563405,-0.06235607,9.805941
82535538287760,0.38671008,-0.10122191,9.726333
82535558144785,0.45620623,-0.16596435,9.729042
82535578001810,0.48714104,-0.108012505,9.765654
82535597858835,0.45886883,-0.025674742,9.750553
82535617716476,0.41567937,-0.02724677,9.705087
82535637573501,0.35732895,-0.12763315,9.738754
82535657430526,0.401007,-0.18200634,9.785563
82535677287531,0.47128752,-0.13366427,9.821846
82535697144556,0.4099657,-0.09391552,9.765933
82535717001581,0.38615084,-0.14031993,9.737929
82535736857436,0.44549075,-0.10950473,9.710144
82535756714457,0.46929258,-0.23392625,9.846464
82535776571481,0.42320883,-0.12699156,9.755509
82535796428505,0.44644505,-0.10438745,9.742003
82535816285401,0.40791363,-0.15004024,9.701393
82535836143917,0.4402959,-0.14380285,9.746542
82535856001069,0.49397317,-0.06638587,9.81192
82535875858093,0.43947884,-0.09983184,9.787011
82535895715245,0.44128552,-0.1316212,9.729352
82535915572397,0.5390028,-0.120069526,9.728128
82535935436052,0.46693128,-0.099689566,9.84697
82535955293332,0.47535557,-0.09177395,9.811101
82535975150484,0.5467773,-0.106553935,9.738411
82535995007764,0.47947833,-0.13641624,9.728387
82536014864916,0.47292024,-0.083474636,9.669189
82536034720873,0.46761805,-0.08278235,9.759905
82536054578153,0.41340342,-0.09438482,9.78183
82536074435433,0.45564365,-0.14957327,9.760413
82536094292585,0.47199655,-0.14767888,9.742385
82536114149865,0.42792797,-0.10713341,9.738963
82536134001373,0.397294,-0.099635296,9.732601
82536153858525,0.42675152,-0.20220625,9.724825
82536173715677,0.46098804,-0.21696264,9.766998
82536193572830,0.42611203,-0.1912219,9.825195
82536213429855,0.4430106,-0.1389693,9.806
82536233291944,0.40629277,-0.1961906,9.738634
82536253149222,0.42742133,-0.31281877,9.8003025
82536273006374,0.5207521,-0.23517492,9.843239
82536292863654,0.49169388,-0.19594482,9.876269
82536312720806,0.40169945,-0.116931744,9.797545
82536332574063,0.44517717,-0.18910499,9.709177
82536352431215,0.47509938,-0.26656958,9.747628
82536372288239,0.4314704,-0.28627387,9.741485
82536392145391,0.4393609,-0.25951767,9.720207
82536412002544,0.4274852,-0.20041725,9.763616
82536431862725,0.40128982,-0.1598083,9.799211
82536451719878,0.45930427,-0.18588987,9.765624
82536471577031,0.4720059,-0.17211595,9.758934
82536491434180,0.43790698,-0.12149101,9.71946
82536511291332,0.40979892,-0.10795096,9.727512
82536531140260,0.41519806,-0.18779895,9.758266
82536550997284,0.455624,-0.17415226,9.775295
82536570854180,0.510222,-0.22639161,9.751051
82536590711204,0.42942026,-0.1601734,9.777809
82536610568100,0.370789,-0.13183975,9.772398
82536630417334,0.42706347,-0.17118809,9.721723
82536650274102,0.4538111,-0.1409855,9.696133
82536670130998,0.38299894,-0.10439296,9.659316
82536689987766,0.39855507,-0.14802834,9.706662
82536709844662,0.4141816,-0.22074214,9.728685
82536729703350,0.45233405,-0.23881862,9.818895
82536749560246,0.48652303,-0.1615612,9.842263
82536769417142,0.46240473,-0.15565011,9.776674
82536789274038,0.43699157,-0.18673384,9.754913
82536809130806,0.50150895,-0.22029988,9.788437
82536828987300,0.46349287,-0.22390461,9.780498
82536848844196,0.3816692,-0.22317785,9.728776
82536868701092,0.38179642,-0.19828701,9.610146
82536888552124,0.5076289,-0.24287611,9.710595
82536908409021,0.52463377,-0.24320455,9.846323
82536928267230,0.4740595,-0.14507432,9.789377
82536948124124,0.37542298,-0.1861968,9.766974
82536967981020,0.37914795,-0.24420106,9.784742
82536987837916,0.48769322,-0.26680538,9.786118
82537007694812,0.43054378,-0.26164752,9.764957
82537027550977,0.36822504,-0.18894751,9.7467985
82537047407873,0.38983694,-0.22564857,9.712245
82537067264641,0.4012137,-0.2649441,9.767681
82537087121537,0.45908344,-0.24682645,9.831241
82537106978433,0.4514297,-0.14617907,9.81884
82537126837865,0.42833966,-0.16898853,9.761984
82537146694761,0.44756344,-0.25828445,9.770093
82537166551657,0.4733757,-0.19050007,9.70136
82537186408553,0.42367083,-0.12505111,9.720017
82537206265449,0.44133255,-0.13127202,9.725967
82537226122859,0.43084607,-0.119018,9.73066
82537245979755,0.38761866,-0.13711451,9.709006
82537265836651,0.36374557,-0.18635698,9.746078
82537285693547,0.37688673,-0.16024885,9.754879
82537305550443,0.41108343,-0.14325537,9.766517
82537325406777,0.40446383,-0.19736952,9.777058
82537345263674,0.37120265,-0.14351909,9.739371
82537365120569,0.37761992,-0.24937251,9.780207
82537384977465,0.40578607,-0.2741265,9.827314
82537404834361,0.40881267,-0.22155988,9.803222
82537424691257,0.37451535,-0.23744911,9.738062
82537444543225,0.36318225,-0.21858203,9.690045
82537464399993,0.35372847,-0.23409154,9.786149
82537484256762,0.31091425,-0.21242537,9.77582
82537504113531,0.28196728,-0.3010106,9.754416
82537523970300,0.3441156,-0.25733674,9.706151
82537543833107,0.42033866,-0.16361628,9.743399
82537563690132,0.3537589,-0.21862073,9.828472
82537583547029,0.3200269,-0.27450472,9.812195
82537603403926,0.32699895,-0.27074856,9.762297
82537623260823,0.36448264,-0.24703695,9.732188
82537643115190,0.38563457,-0.18802987,9.770509
82537662972087,0.3145169,-0.18730535,9.805803
82537682828984,0.28785282,-0.2693912,9.769689
82537702685753,0.3769278,-0.23407587,9.6622505
82537722542650,0.32730523,-0.18127464,9.711022
82537742403869,0.2963569,-0.21759853,9.807538
82537762260752,0.38881046,-0.2040117,9.768792
82537782117649,0.38784656,-0.21555145,9.7147255
82537801974544,0.29869363,-0.24301419,9.756881
82537821831440,0.40927672,-0.26475742,9.758385
82537841694120,0.41445625,-0.2590815,9.778196
82537861551272,0.38710538,-0.22344719,9.806424
82537881408296,0.4037845,-0.19487657,9.777627
82537901265448,0.36818352,-0.17445925,9.784955
82537921122472,0.3061352,-0.20809098,9.748119
82537940981904,0.3794122,-0.28821138,9.729628
82537960839056,0.44089764,-0.23959114,9.720721
82537980696208,0.34193197,-0.19371949,9.797635
82538000553360,0.3884082,-0.19982746,9.793362
82538020410512,0.4300148,-0.2634024,9.774393
82538040276374,0.36579493,-0.23675522,9.8361225
82538060133654,0.40646946,-0.17925204,9.724298
82538079991062,0.35421798,-0.22780076,9.710321
82538099848470,0.24293941,-0.34095946,9.739013
82538119705879,0.32262474,-0.34039447,9.704225
82538139561958,0.278926,-0.3133735,9.723947
82538159419239,0.26267034,-0.30392638,9.822736
82538179276648,0.36707994,-0.33256882,9.771062
82538199134053,0.3795023,-0.32431293,9.767497
82538218988078,0.32731226,-0.3234965,9.853247
82538238845359,0.33674052,-0.27827775,9.787655
82538258702638,0.32685032,-0.33672136,9.745107
82538278559790,0.2988711,-0.3350583,9.649623
82538298417071,0.33631238,-0.30781028,9.724107
82538318265853,0.36872435,-0.24593818,9.779573
82538338123006,0.34178096,-0.31207812,9.849063
82538357980031,0.36957005,-0.3131947,9.809989
82538377837184,0.34873945,-0.2011655,9.777293
82538397694337,0.28396353,-0.24763396,9.769692
82538417551362,0.3453227,-0.2643306,9.699008
82538437405047,0.35729194,-0.29346848,9.716281
82538457262072,0.3142849,-0.2214201,9.757038
82538477119097,0.30746254,-0.32859963,9.785196
82538496976122,0.3071398,-0.37998182,9.7904
82538516831579,0.31305256,-0.3315172,9.764445
82538536688604,0.38126025,-0.26008373,9.834696
82538556545501,0.3057735,-0.22460645,9.814348
82538576402526,0.26958492,-0.324149,9.797034
82538596259551,0.30485544,-0.3329917,9.721809
82538616116576,0.26333073,-0.2751059,9.687833
82538635967273,0.26192507,-0.31255662,9.699355
82538655824170,0.29553962,-0.36441076,9.745004
82538675681067,0.3546422,-0.3436016,9.831805
82538695537836,0.3215908,-0.25764522,9.867208
82538715394733,0.30741015,-0.21402055,9.7613325
82538735249410,0.28785837,-0.35656896,9.815361
82538755106307,0.29000872,-0.30614683,9.785355
82538774963076,0.22949585,-0.3052117,9.720269
82538794819951,0.2024664,-0.25566533,9.62723
82538814676556,0.2431754,-0.34359065,9.646719
82538834533453,0.33327863,-0.42615438,9.701243
82538854390220,0.30169716,-0.40269852,9.836072
82538874246988,0.2617213,-0.28358945,9.8634615
82538894103885,0.21865806,-0.31006503,9.844985
82538913960652,0.20687088,-0.4608567,9.803178
82538933814459,0.19462615,-0.38528037,9.823827
82538953671228,0.18494435,-0.29204637,9.719505
82538973525345,0.23675048,-0.26561746,9.655587
82538993381985,0.13756014,-0.4236203,9.691289
82539013238754,0.24848194,-0.41390592,9.744661
82539033099154,0.26999232,-0.38657603,9.788412
82539052955794,0.22182922,-0.2871558,9.785816
82539072812563,0.21899606,-0.3849865,9.756771
82539092669330,0.2600377,-0.42902848,9.798439
82539112521655,0.20673075,-0.35697943,9.817476
82539132378296,0.2417675,-0.32745945,9.716088
82539152234935,0.1861555,-0.35885024,9.717639
82539172091575,0.20503917,-0.37404338,9.73002
82539191948216,0.25223455,-0.36983377,9.740623
82539211804855,0.20246267,-0.4209046,9.763384
82539231661410,0.20119026,-0.40585592,9.814203
82539251518051,0.25819936,-0.3798174,9.78241
82539271374562,0.22847898,-0.35554525,9.753146
82539291231202,0.14118043,-0.38265258,9.781545
82539311087715,0.22822756,-0.38329947,9.744521
82539330949289,0.1866086,-0.41720062,9.71683
82539350806057,0.14084937,-0.3543896,9.718694
82539370662698,0.21216373,-0.39979976,9.773669
82539390519465,0.20967251,-0.37614682,9.744288
82539410376105,0.17366467,-0.36914355,9.786092
82539430232746,0.20755123,-0.38529775,9.8013
82539450090561,0.24327059,-0.35273895,9.758009
82539469947329,0.2399081,-0.36153024,9.757919
82539489803970,0.26857752,-0.36836356,9.787112
82539509660737,0.2370509,-0.36681157,9.764911
82539529522460,0.221443,-0.36467677,9.723296
82539549379229,0.2608709,-0.39648667,9.699277
82539569236124,0.26440275,-0.3445751,9.7036705
82539589092892,0.24758786,-0.38283837,9.7694845
82539608949789,0.30404216,-0.38919485,9.953019
82539628806556,0.3378355,-0.3195638,9.764586
82539648666165,0.28077886,-0.19553606,9.721292
82539668523062,0.1777052,-0.338646,9.711016
82539688379957,0.2884725,-0.3440079,9.7844305
82539708236981,0.3480906,-0.40240398,9.741836
82539728093878,0.2505372,-0.22473744,9.712307
82539747955797,0.29350686,-0.24371354,9.693027
82539767812821,0.37479934,-0.32354143,9.708449
82539787669974,0.29803348,-0.37237915,9.786494
82539807526997,0.3466152,-0.34569147,9.861783
82539827387569,0.3659514,-0.25198874,9.8409395
82539847244850,0.30957058,-0.2050394,9.760945
82539867102001,0.26125047,-0.19334817,9.677136
82539886959153,0.29184097,-0.29998952,9.728909
82539906816434,0.36278218,-0.2577197,9.731479
82539926673585,0.3507231,-0.26729554,9.786375
82539946527818,0.3123572,-0.33427343,9.844846
82539966384843,0.40107453,-0.27686152,9.759924
82539986241994,0.44093597,-0.2221718,9.783363
82540006099146,0.36014956,-0.12564608,9.772169
82540025956171,0.32312578,-0.15509479,9.7043495
82540045822503,0.34282625,-0.27633947,9.734469
82540065679783,0.3636507,-0.1936342,9.739659
82540085537064,0.457158,-0.11680797,9.701435
82540105394471,0.4850469,0.072934374,9.678057
82540125255116,0.42881137,-0.03533029,9.757837
82540145112525,0.42875648,-0.07279995,9.816759
82540164969932,0.4831137,-0.052755743,9.820428
82540184827340,0.49828038,-0.0978117,9.777759
82540204684621,0.5140603,-0.07843322,9.74535
82540224542028,0.5371923,0.04278682,9.712881
82540244400942,0.5669576,0.024043912,9.698969
82540264258351,0.5798153,-0.0014169851,9.765521
82540284115758,0.626104,-0.045676205,9.8152685
82540303973166,0.5421993,-0.070117496,9.850431
82540323830575,0.495622,-0.06039981,9.775711
82540343682878,0.529012,-0.024181211,9.747316
82540363540158,0.54204553,0.023354081,9.699888
82540383397567,0.4452742,0.02804318,9.663363
82540403254846,0.4323245,-0.014678099,9.703829
82540423103056,0.46021816,-0.121857375,9.897854
82540442960209,0.54384035,-0.08682697,9.838074
82540462817360,0.4945667,0.031011418,9.833178
82540482674512,0.3573643,0.036573496,9.857052
82540502531665,0.39641502,0.039795473,9.837991
82540522388816,0.50742346,-0.005566181,9.715326
82540542244822,0.40696496,-0.03445532,9.6659565
82540562101975,0.35259116,0.010283649,9.716516
82540581959126,0.423622,0.10662479,9.747826
82540601816150,0.47168133,0.046669867,9.760602
82540621673303,0.4320311,0.039513092,9.799442
82540641531228,0.3516903,0.10919561,9.786616
82540661388380,0.3327986,0.037572026,9.755263
82540681245533,0.335468,4.6630873E-4,9.761921
82540701102684,0.38648224,0.123396724,9.753148
82540720959964,0.31158864,0.13994235,9.69024
82540740817117,0.29235104,0.0075162286,9.678447
82540760669863,0.41866177,-0.042662106,9.761914
82540780527015,0.44842088,0.049684975,9.840043
82540800384040,0.33511227,0.112255886,9.829822
82540820241063,0.29551584,0.054763924,9.782037
82540840090608,0.41324124,0.0048469543,9.806541
82540859947505,0.4118811,0.05661708,9.832934
82540879804400,0.2876101,0.070341215,9.788449
82540899661296,0.21862002,0.016970584,9.767324
82540919518193,0.3659656,-0.053340733,9.741172
82540939371408,0.43333477,0.07522211,9.697815
82540959228304,0.33900958,0.12649655,9.740241
82540979085073,0.2761913,0.06764212,9.732981
82540998941700,0.36764687,-0.010254142,9.789205
82541018798468,0.39795172,0.028256629,9.813755
82541038655365,0.33688116,0.008604522,9.820726
82541058509127,0.35085583,-0.011365538,9.833482
82541078365767,0.35928935,-0.021221245,9.804373
82541098222536,0.43675944,-0.057696093,9.738704
82541118079175,0.4091049,0.0155624915,9.723122
82541137933829,0.3627967,-0.04456915,9.787688
82541157790470,0.3654996,-0.0262224,9.752322
82541177647109,0.451087,-0.03407445,9.771305
82541197503749,0.36771634,-0.0087637,9.760943
82541217360390,0.34737298,0.02109445,9.714599
82541237219224,0.397605,-0.036010027,9.8349495
82541257075864,0.35926783,-0.0302415,9.837085
82541276932505,0.3531505,-0.00702409,9.746944
82541296789144,0.36721638,-0.052696463,9.710504
82541316645784,0.35542125,-0.015642297,9.715914
82541336502425,0.4316047,-0.0024135632,9.730809
82541356354164,0.4101517,0.026529107,9.762836
82541376210676,0.35416085,0.0026207925,9.784022
82541396067189,0.3592443,-0.031341158,9.831162
82541415923828,0.40593222,0.018354507,9.775283
82541435787898,0.38920635,-0.037058774,9.766061
82541455644539,0.40954605,-0.060665146,9.783286
82541475501178,0.38671583,6.364474E-4,9.747188
82541495357818,0.37454808,0.03139739,9.68447
82541515214459,0.38970524,-0.017240662,9.772257
82541535071098,0.39752546,0.060931254,9.749687
82541554924148,0.4162623,-0.013946669,9.8166275
82541574780661,0.41532442,-0.033984043,9.766855
82541594637172,0.38796127,0.026193867,9.744939
82541614493684,0.37541878,0.028360445,9.747134
82541634350197,0.36181054,-0.009575514,9.737022
82541654211639,0.4627077,1.6942628E-4,9.672261
82541674068279,0.400626,0.02354319,9.730549
82541693925048,0.35550103,0.033973824,9.757437
82541713781687,0.421007,-0.015345657,9.73851
82541733643599,0.48469034,-0.05462308,9.799764
82541753500368,0.4562941,0.0057622376,9.813676
82541773357135,0.37555584,0.039678134,9.811112
82541793214031,0.32618555,-0.017750744,9.751843
82541813070800,0.41381684,-0.033114262,9.690779
82541832927567,0.4668714,0.015929878,9.719791
82541852786188,0.32047853,0.007887368,9.746275
82541872643085,0.35584757,-0.043823034,9.715815
82541892499980,0.43129686,-0.09378426,9.714506
82541912356876,0.45508522,-0.097996056,9.729148
82541932213773,0.42375025,-0.025973234,9.786103
82541952071741,0.4214613,0.0056229546,9.7570715
82541971928765,0.4435252,-0.022871083,9.7737465
82541991785662,0.47283545,-0.10506747,9.815326
82542011642557,0.45576444,-0.018644847,9.739977
82542031505170,0.41417378,-0.046172623,9.7512665
82542051362195,0.4195207,-0.093439035,9.766703
82542071219218,0.5139601,-0.065889515,9.730896
82542091076242,0.4808163,-0.025253097,9.743438
82542110933139,0.43131453,-0.04665558,9.821486
82542130790162,0.4908422,-0.07715748,9.789797
82542150649289,0.47882465,-0.051100265,9.7571
82542170506314,0.44289514,0.02305004,9.743892
82542190363465,0.44959027,-0.008339956,9.768623
82542210220489,0.45003998,-0.07077171,9.754041
82542230077642,0.44589588,-0.119931206,9.737157
82542249937572,0.46917674,-0.034029804,9.786098
82542269794724,0.45626977,-0.05342702,9.780815
82542289651877,0.40725,-0.0093275895,9.739885
82542309509028,0.46787637,-0.046646237,9.752297
82542329371278,0.39428216,-0.03646162,9.760925
82542349228559,0.37614915,-0.054731186,9.769721
82542369085966,0.3925998,-0.0541367,9.737366
82542388943246,0.35129625,-0.055032283,9.747404
82542408800527,0.35843545,-0.07108917,9.829333
82542428657806,0.39208573,-0.063044615,9.7616005
82542448512666,0.4171445,-0.014979259,9.729859
82542468369819,0.3002652,-0.058396142,9.801464
82542488227098,0.2656509,-0.049599286,9.764046
82542508084378,0.33832327,-0.14834666,9.725865
82542527941659,0.29895595,-0.06713145,9.687851
82542547796963,0.33641928,-0.03936,9.785191
82542567654243,0.32445452,-0.044286665,9.731877
82542587511396,0.29904452,-0.097104155,9.759404
82542607368675,0.34260666,-0.15761453,9.779226
82542627225827,0.4135404,-0.09790144,9.848529
82542647083108,0.36077422,-0.095004305,9.826821
82542666928617,0.22860847,-0.026964929,9.770962
82542686785641,0.34024447,-0.10556793,9.731953
82542706642666,0.45583123,-0.15047802,9.715321
82542726499689,0.37919852,-0.11133603,9.719884
82542746351837,0.23503986,-0.025633013,9.773159
82542766208734,0.27380535,-0.13168189,9.740287
82542786065629,0.46519345,-0.15882947,9.774074
82542805922525,0.3810656,-0.10559268,9.793731
82542825779422,0.23124272,-0.04219661,9.841874
82542845631910,0.31282088,-0.1771626,9.860984
82542865488678,0.39462078,-0.16822869,9.711146
82542885345575,0.33106688,-0.09059536,9.776962
82542905202342,0.28489056,-0.0069172615,9.732237
82542925059110,0.26898605,-0.09176874,9.676402
82542944916007,0.33295608,-0.2288358,9.739055
82542964769458,0.3782076,-0.14119206,9.828023
82542984626098,0.2944515,-0.06285424,9.81518
82543004482867,0.20993426,-0.09538133,9.816391
82543024342847,0.32011628,-0.17984188,9.732311
82543044203634,0.37628633,-0.106830314,9.727786
82543064060531,0.29494423,-0.1086599,9.782344
82543083917298,0.2617835,-0.13413887,9.786022
82543103774066,0.3959811,-0.2026318,9.724966
82543123630963,0.36958322,-0.14110103,9.733427
82543143486984,0.31496906,-0.030776618,9.767471
82543163343752,0.3441753,-0.13875979,9.784856
82543183200521,0.40522304,-0.2273509,9.842787
82543203057288,0.35917404,-0.12637894,9.835731
82543222914056,0.26917675,-0.04901685,9.777893
82543242770697,0.27129924,-0.16782066,9.800691
82543262625733,0.35956687,-0.14633039,9.706878
82543282482373,0.33241725,-0.1118817,9.696726
82543302339142,0.19587447,-0.09014885,9.740193
82543322195781,0.27025273,-0.2008019,9.810631
82543342046868,0.37791476,-0.19172469,9.802262
82543361903509,0.30390665,-0.11502198,9.752397
82543381760020,0.24730755,-0.05681068,9.763665
82543401616660,0.29423448,-0.1522011,9.830113
82543421473173,0.36124164,-0.19702946,9.748125
82543441329812,0.31146386,-0.16197553,9.740618
82543461196151,0.28732798,-0.118785456,9.711862
82543481052920,0.3339314,-0.18022321,9.764841
82543500909559,0.42008922,-0.21523258,9.798399
82543520766199,0.4030494,-0.11251643,9.811306
82543540622968,0.27678895,-0.111393444,9.769029
82543560488701,0.26436642,-0.16529052,9.766506
82543580345597,0.3580582,-0.22802152,9.746954
82543600202494,0.3674436,-0.17804822,9.758754
82543620059261,0.30463195,-0.083532095,9.73288
82543639924410,0.28600323,-0.080115475,9.684774
82543659781563,0.3701817,-0.23365809,9.720913
82543679638586,0.4297394,-0.25701734,9.863899
82543699495738,0.34926486,-0.06534937,9.839929
82543719352763,0.20341107,-0.11805145,9.789397
82543739209786,0.3088711,-0.23706383,9.74094
82543759072247,0.42900506,-0.21917702,9.71408
82543778929528,0.33615535,-0.01917107,9.620207
82543798786679,0.21952185,-0.21050243,9.767835
82543818643831,0.37759155,-0.2405239,9.849528
82543838500984,0.48427173,-0.23804192,9.815922
82543858360323,0.31124863,-0.1449462,9.761394
82543878217603,0.2550172,-0.13492286,9.785926
82543898074884,0.4431182,-0.25254434,9.704289
82543917932163,0.3925132,-0.22146861,9.733059
82543937789443,0.30650312,-0.19552284,9.772404
82543957646724,0.31467137,-0.19764785,9.800084
82543977511365,0.4016388,-0.24648702,9.701249
82543997368901,0.39689994,-0.21707514,9.693655
82544017226438,0.38620335,-0.24037804,9.73823
82544037083845,0.4008385,-0.22309549,9.784891
82544056938609,0.3682834,-0.2884944,9.79959
82544076796146,0.37970033,-0.21440226,9.791209
82544096653681,0.36119074,-0.21116382,9.740388
82544116511217,0.33783582,-0.22368655,9.687691
82544136368754,0.34612438,-0.2541494,9.740772
82544156229069,0.41988096,-0.25239256,9.767367
82544176086733,0.39543614,-0.22739613,9.77682
82544195944398,0.33761477,-0.2001194,9.778414
82544215801933,0.343394,-0.22306027,9.753604
82544235659597,0.4255322,-0.30893168,9.764092
82544255517262,0.37266165,-0.24916552,9.749729
82544275371938,0.35960117,-0.2308947,9.765297
82544295229474,0.3095515,-0.2446652,9.804629
82544315087011,0.34536505,-0.27181792,9.755611
82544334944546,0.38268423,-0.26019487,9.732764
82544354797029,0.31773645,-0.23103552,9.760289
82544374654438,0.30825183,-0.21485455,9.804235
82544394511845,0.3555849,-0.31754243,9.761325
82544414369381,0.373156,-0.214484,9.667164
82544434226790,0.26561427,-0.16884251,9.70757
82544454068916,0.29837036,-0.18900669,9.764551
82544473926068,0.34331134,-0.2530002,9.787341
82544493783093,0.24447523,-0.21970579,9.772052
82544513640244,0.23497228,-0.19102259,9.780523
82544533497396,0.32229224,-0.25887242,9.825166
82544553354549,0.29950908,-0.26498106,9.794588
82544573202301,0.24159211,-0.19747247,9.74728
82544593059197,0.22953999,-0.14993167,9.7429285
82544612916094,0.20677266,-0.1603178,9.736227
82544632773117,0.2862596,-0.31672853,9.761221
82544652627876,0.32387835,-0.30244005,9.773113
82544672484645,0.28832188,-0.14195761,9.768511
82544692341540,0.21903649,-0.11830568,9.723681
82544712198436,0.20115595,-0.2616506,9.676823
82544732055205,0.250318,-0.3276252,9.743962
82544751901238,0.26628768,-0.28195426,9.874948
82544771757879,0.23561409,-0.19402193,9.88539
82544791614520,0.16352972,-0.26780814,9.829172
82544811471158,0.21073057,-0.321774,9.75204
82544831327798,0.26908502,-0.2524116,9.73345
82544851184311,0.14801335,-0.14157233,9.7287855
82544871017703,0.14878798,-0.22814167,9.744651
82544890873831,0.2607194,-0.34398052,9.762289
82544910729832,0.19485155,-0.20403102,9.732457
82544930585959,0.13522081,-0.16896048,9.825693
82544950441791,0.18649602,-0.28497013,9.794611
82544970297664,0.26210287,-0.26102966,9.733949
82544990153663,0.21245249,-0.22705679,9.776733
82545010009535,0.23293048,-0.17165309,9.747104
82545029865408,0.2398389,-0.2884108,9.871279
82545049718845,0.2225858,-0.35251948,9.818327
82545069575708,0.25731254,-0.21466509,9.753367
82545089431581,0.18370326,-0.17350145,9.744405
82545109287452,0.18831818,-0.23405667,9.739781
82545129143452,0.2711597,-0.28204662,9.73906
82545148999325,0.22245327,-0.19056924,9.787057
82545168869599,0.16553095,-0.18506217,9.766697
82545188725727,0.19372605,-0.22672887,9.742735
82545208581856,0.18491474,-0.25120905,9.763613
82545228438113,0.23142295,-0.21834262,9.742652
82545248303735,0.21395491,-0.2358437,9.767207
82545268160120,0.20063587,-0.24743879,9.816734
82545288016503,0.25205523,-0.29498145,9.774061
82545307872759,0.18990026,-0.28419,9.788493
82545327729144,0.1248646,-0.23881827,9.736863
82545347585527,0.114008024,-0.30585676,9.811273
82545367446714,0.20941915,-0.35133016,9.771238
82545387303227,0.16107146,-0.26984695,9.7509165
82545407159610,0.15735106,-0.2965916,9.733785
82545427016122,0.242953,-0.2891294,9.741777
82545446872635,0.2452558,-0.40791327,9.820204
82545466740241,0.21657331,-0.2539071,9.807726
82545486597009,0.20472044,-0.22170523,9.731968
82545506453650,0.18246207,-0.25158438,9.729587
82545526310289,0.23551689,-0.34973365,9.815589
82545546170848,0.25708535,-0.25603256,9.8149
82545566027745,0.14267924,-0.11457596,9.685686
82545585884512,0.051247295,-0.27234444,9.756698
82545605741280,0.28271556,-0.41893655,9.776095
82545625598177,0.32673386,-0.3398638,9.797676
82545645454944,0.17970777,-0.2273307,9.785059
82545665317283,0.19174933,-0.28177238,9.784778
82545685174308,0.21469821,-0.3940902,9.849661
82545705031203,0.25159213,-0.3659026,9.783106
82545724888099,0.19890265,-0.2649028,9.741877
82545744745124,0.13455842,-0.21128856,9.705468
82545764612716,0.11501524,-0.35420033,9.751313
82545784469868,0.19077449,-0.3378606,9.759867
82545804327149,0.15670374,-0.20659408,9.793712
82545824184300,0.11096719,-0.19923195,9.716612
82545844046139,0.16550326,-0.33210266,9.732939
82545863903548,0.23196901,-0.38656518,9.822639
82545883760955,0.20298877,-0.2549022,9.78966
82545903618363,0.15688121,-0.2673617,9.75019
82545923475772,0.19507098,-0.3110888,9.742845
82545943333179,0.22753766,-0.43642694,9.793369
82545963199669,0.2702669,-0.35446128,9.766286
82545983057334,0.2086655,-0.28033337,9.770068
82546002914997,0.19487312,-0.3147628,9.820757
82546022772789,0.3224612,-0.32323253,9.765639
82546042630454,0.23458214,-0.31035155,9.720594
82546062481266,0.1389952,-0.31819355,9.737236
82546082338802,0.24791686,-0.39573064,9.805582
82546102196467,0.2606775,-0.3630068,9.790073
82546122054002,0.1862166,-0.2416538,9.727067
82546141911538,0.22830872,-0.28130743,9.690052
82546161769075,0.29270235,-0.35932365,9.77805
82546181621734,0.2146965,-0.35093573,9.84409
82546201479270,0.21402906,-0.2607826,9.730918
82546221336807,0.20676126,-0.28454095,9.734618
82546241194216,0.25268734,-0.28912303,9.803144
82546261057259,0.33658075,-0.2690005,9.715786
82546280915052,0.2682253,-0.28552017,9.774641
82546300772717,0.20105547,-0.28659338,9.786186
82546320630382,0.26133937,-0.29307154,9.787037
82546340488047,0.24351414,-0.2810037,9.739606
82546360344084,0.15589598,-0.2740189,9.798375
82546380201621,0.25882596,-0.34293333,9.727043
82546400059286,0.27614522,-0.2768142,9.711235
82546419916951,0.13705765,-0.29190317,9.796913
82546439774616,0.28087926,-0.25934485,9.758284
82546459632281,0.26209393,-0.26095882,9.72188
82546479473434,0.18052915,-0.25636157,9.704362
82546499330587,0.27333888,-0.4039519,9.81176
82546519187740,0.3749381,-0.30135307,9.758566
82546539044893,0.16399716,-0.23052491,9.730813
82546558897300,0.20645832,-0.3131247,9.727219
82546578754325,0.30349982,-0.31591532,9.774331
82546598611478,0.26172975,-0.29133883,9.772577
82546618468503,0.2054366,-0.21584158,9.731312
82546638325528,0.21565217,-0.30104873,9.700352
82546658182681,0.22767134,-0.3377623,9.782757
82546678028987,0.2721863,-0.34084132,9.777808
82546697885884,0.24170725,-0.23466514,9.745789
82546717742653,0.15876557,-0.27355012,9.79236
82546737599422,0.29424557,-0.37898263,9.8222
82546757456191,0.2961245,-0.2750019,9.729704
82546777317874,0.16942386,-0.23773997,9.731128
82546797174642,0.21536414,-0.32415274,9.736428
82546817031539,0.30446088,-0.38448384,9.815664
82546836888434,0.22007313,-0.3581193,9.811953
82546856742898,0.2200071,-0.21314375,9.778385
82546876599795,0.22442663,-0.23982295,9.741165
82546896456562,0.21077536,-0.35316586,9.740143
82546916313458,0.24584799,-0.42756316,9.762295
82546936170355,0.2726394,-0.23619922,9.747977
82546956027122,0.14078623,-0.30774727,9.791021
82546975879032,0.23257878,-0.38557467,9.8171
82546995735673,0.34404445,-0.29472175,9.774258
82547015592440,0.25786382,-0.13470025,9.731407
82547035448910,0.18897505,-0.1814395,9.741492
82547055305551,0.20051378,-0.38705066,9.778647
82547075155991,0.25583753,-0.25179854,9.791448
82547095012631,0.21555364,-0.13495348,9.7669525
82547114869272,0.13256621,-0.17055428,9.729433
82547134725911,0.1924976,-0.29343227,9.738195
82547154583010,0.26504132,-0.24829984,9.773313
82547174439523,0.21908861,-0.18616052,9.812352
82547194296036,0.17125046,-0.21565859,9.792123
82547214152674,0.2138814,-0.25547543,9.806647
82547234009187,0.19009681,-0.19153658,9.76739
82547253865698,0.14738497,-0.25164223,9.799895
82547273726062,0.19963236,-0.28487793,9.801685
82547293582703,0.24302112,-0.18973067,9.738885
82547313439342,0.14387938,-0.20370544,9.764218
82547333295854,0.15054153,-0.16901149,9.759419
82547353152495,0.20493957,-0.20664985,9.714094
82547373014894,0.119623296,-0.24033646,9.796425
82547392871662,0.14412539,-0.26520166,9.827205
82547412728431,0.24599722,-0.15556487,9.704024
82547432585198,0.14710914,-0.20570913,9.779827
82547452448037,0.19870798,-0.2079012,9.818922
82547472304806,0.22545457,-0.2584897,9.800819
82547492161701,0.12180866,-0.18240535,9.725909
82547512018469,0.09504897,-0.12920496,9.710385
82547531875366,0.22095765,-0.29508072,9.72582
82547551732261,0.32193246,-0.34157008,9.838248
82547571585616,0.31072575,-0.17375268,9.796241
82547591442385,0.16641258,-0.04623824,9.741279
82547611299152,0.14408974,-0.3024689,9.773995
82547631156048,0.2667212,-0.39666295,9.83007
82547651012817,0.29590142,-0.18869744,9.818919
82547670871757,0.108075164,-0.10083378,9.737829
82547690728525,0.16678242,-0.26465198,9.800117
82547710585422,0.32032567,-0.31346247,9.760788
82547730442317,0.21064134,-0.11542869,9.693908
82547750299085,0.08662362,-0.19102828,9.739675
82547770155982,0.23994188,-0.23592024,9.69599
82547790018824,0.25027764,-0.35340413,9.793527
82547809875720,0.2252421,-0.17330702,9.758804
82547829732745,0.23004927,-0.10624578,9.754041
82547849589640,0.17346139,-0.28231165,9.76668
82547869452516,0.23668164,-0.31251398,9.768972
82547889309669,0.26100278,-0.21367317,9.734787
82547909166692,0.1320218,-0.11693228,9.713021
82547929023844,0.22787067,-0.32197747,9.81749
82547948880997,0.3360825,-0.29447266,9.883893
82547968745542,0.24133861,-0.12983878,9.78256
82547988602822,0.15701376,-0.14893706,9.729959
82548008460231,0.15905991,-0.19561476,9.704116
82548028317510,0.22496453,-0.28022578,9.78679
82548048174790,0.26406348,-0.20527507,9.778899
82548068032199,0.2210342,-0.13742839,9.674045
82548087885219,0.21318552,-0.21219037,9.690774
82548107742499,0.22027406,-0.2944899,9.811493
82548127599652,0.25429466,-0.28368577,9.848588
82548147456931,0.25464463,-0.2322876,9.798983
82548167319480,0.25864232,-0.2201809,9.813547
82548187176761,0.28581342,-0.25722882,9.772621
82548207034168,0.2947331,-0.32413092,9.775638
82548226891576,0.25912237,-0.2953619,9.763122
82548246748985,0.26851696,-0.2678442,9.829434
82548266609394,0.27360448,-0.26882935,9.735907
82548286466802,0.24381058,-0.20536296,9.685912
82548306324211,0.2204598,-0.26002616,9.702161
82548326181618,0.23428899,-0.3037599,9.757207
82548346039026,0.29829013,-0.29073974,9.733551
82548365896435,0.23370235,-0.18647285,9.7290945
82548385760077,0.19209744,-0.19924332,9.730271
82548405617613,0.2630969,-0.33338135,9.781312
82548425475278,0.30808467,-0.34802577,9.853829
82548445332813,0.25481722,-0.18951796,9.762009
82548465180280,0.1789666,-0.20087898,9.705682
82548485037817,0.19036527,-0.3212513,9.759785
82548504895224,0.2847588,-0.3178834,9.857406
82548524752632,0.27828804,-0.16491067,9.751344
82548544610041,0.10980346,-0.18483563,9.717562
82548564456836,0.18752922,-0.26648355,9.718641
82548584314116,0.34824073,-0.2904399,9.769187
82548604171269,0.21958032,-0.2997564,9.779073
82548624028548,0.20639229,-0.26319852,9.722549
82548643885700,0.26608214,-0.28647465,9.755131
82548663742981,0.2551205,-0.29351696,9.816679
82548683591125,0.2629027,-0.19468561,9.713782
82548703448021,0.15947333,-0.27600685,9.649763
82548723305046,0.122986615,-0.33873343,9.840764
82548743161941,0.29227978,-0.36685053,9.8925705
82548763015709,0.2539544,-0.24047327,9.760833
82548782872606,0.08464013,-0.22306396,9.721444
82548802729501,0.21702078,-0.2911653,9.7173395
82548822586269,0.32130075,-0.36139303,9.755622
82548842443166,0.25290316,-0.26570448,9.693067
82548862300061,0.17504382,-0.30810753,9.785239
82548882156262,0.30040348,-0.37778878,9.803514
82548902013159,0.32183805,-0.29851782,9.7905245
82548921869926,0.24454114,-0.18660033,9.652574
82548941726822,0.14455931,-0.2089964,9.685335
82548961583719,0.18549743,-0.42161518,9.814039
82548981441304,0.30912077,-0.31410524,9.770223
82549001298200,0.1630802,-0.17780448,9.74028
82549021154969,0.108697124,-0.23172937,9.807146
82549041011864,0.26073638,-0.35028818,9.791324
82549060866780,0.23872235,-0.2533227,9.716327
82549080723549,0.13052824,-0.18586135,9.728966
82549100580444,0.1453545,-0.32639995,9.7685995
82549120437212,0.1855874,-0.37237158,9.705917
82549140294109,0.22687344,-0.2851871,9.666221
82549160151004,0.2572077,-0.1845577,9.721625
82549179999269,0.23348776,-0.22937867,9.778337
82549199855910,0.2006201,-0.2725579,9.731794
82549219712421,0.12109813,-0.3243613,9.891517
82549239569061,0.18264768,-0.28782162,9.757112
82549259425574,0.1697072,-0.21244997,9.722784
82549279288323,0.13538271,-0.31215104,9.775599
82549299144963,0.15060595,-0.23622547,9.779325
82549319001604,0.18091857,-0.26593316,9.743484
82549338858243,0.15889971,-0.3474533,9.744985
82549358717607,0.24841364,-0.3528216,9.867327
82549378574376,0.31717625,-0.23509902,9.743024
82549398431015,0.12837738,-0.15589763,9.65578
82549418287783,0.08897493,-0.3556824,9.722016
82549438144424,0.2901234,-0.36628434,9.784089
82549458001191,0.3183192,-0.21845335,9.777658
82549477866035,0.15223123,-0.20867537,9.762592
82549497722932,0.26024988,-0.27511147,9.730334
82549517579699,0.19397976,-0.29022205,9.737262
82549537436595,0.11900466,-0.25482857,9.745987
82549557293492,0.13252163,-0.29901737,9.778274
82549577150499,0.155994,-0.35213467,9.808385
82549597007393,0.19593275,-0.29434595,9.729814
82549616864290,0.25381947,-0.19409476,9.696307
82549636721185,0.13511063,-0.2903844,9.809946
82549656574314,0.15556915,-0.38369957,9.874058
82549676431083,0.17611852,-0.38583994,9.864305
82549696287850,0.13308594,-0.24895614,9.776122
82549716144618,0.14652677,-0.2346515,9.776743
82549736001387,0.17813905,-0.32622918,9.757032
82549755858154,0.21606554,-0.25206476,9.747711
82549775721139,0.10636545,-0.15831389,9.695655
82549795578036,0.009639871,-0.2520605,9.832546
82549815435059,0.113921106,-0.35298163,9.808606
82549835291955,0.1879305,-0.22406836,9.765932
82549855148852,0.082118504,-0.094121695,9.771444
82549875008941,0.06794728,-0.23198633,9.760463
82549894865965,0.17730142,-0.2629702,9.730407
82549914723118,0.06325361,-0.10804473,9.756871
82549934580141,-0.03231861,-0.11656779,9.751108
82549954437293,0.09533113,-0.31553456,9.817073
82549974294318,0.12294456,-0.310179,9.780904
82549994155504,0.18422258,-0.1537402,9.793895
82550014012784,0.16894819,-0.14916912,9.858179
82550033870065,0.113256834,-0.22441779,9.83714
82550053727218,0.13502906,-0.2535643,9.722074
82550073582454,0.17162065,-0.19210848,9.69934
82550093439607,0.093246914,-0.19754738,9.7597885
82550113296886,0.17845774,-0.33231336,9.7623415
82550133154038,0.15046263,-0.27686402,9.774107
82550153011191,0.12834413,-0.1897922,9.727052
82550172871286,0.10133613,-0.19995493,9.791797
82550192728567,0.0993935,-0.3121535,9.837222
82550212585720,0.17445691,-0.28576648,9.733368
82550232443001,0.118613794,-0.19925736,9.766352
82550252300154,0.104608245,-0.2667175,9.799401
82550272157435,0.11018399,-0.3340837,9.806752
82550292015990,0.13511215,-0.31988156,9.84075
82550311873271,0.09440242,-0.18050137,9.683473
82550331730424,-0.0042725815,-0.23669586,9.7123165
82550351587705,0.068261325,-0.39724213,9.84734
82550371446508,0.12732732,-0.28580165,9.802358
82550391303661,0.03435515,-0.20883295,9.725332
82550411160942,-0.058463708,-0.23134217,9.794693
82550431018223,0.0061095217,-0.37374195,9.770389
82550450875504,0.112944506,-0.31117138,9.71029
82550470726543,-0.013243715,-0.2421401,9.8237505
82550490583696,0.044791788,-0.33936918,9.813377
82550510440849,0.13232274,-0.4232617,9.790485
82550530298002,0.06538085,-0.24601682,9.778518
82550550155155,0.0856076,-0.23677593,9.73705
82550570012308,-0.037842005,-0.46006095,9.735249
82550589858453,-0.020516144,-0.4841999,9.880934
82550609715478,0.11493554,-0.26386735,9.72872
82550629572375,0.049782652,-0.37802583,9.725309
82550649429377,0.03772611,-0.36432353,9.710614
82550669284476,0.048625793,-0.3657919,9.854952
82550689141245,0.082984604,-0.34706116,9.908185
82550708998142,0.08663761,-0.25435597,9.648864
82550728855035,-0.0029026556,-0.3451968,9.745193
82550748711932,0.09924211,-0.29537925,9.780589
82550768568827,0.16507372,-0.24422917,9.699867
82550788424870,-0.11983349,-0.27987552,9.86638
82550808281639,-0.12353606,-0.34110203,9.780926
82550828138534,-0.048103794,-0.37371477,9.726855
82550847995302,-0.037646446,-0.38102707,9.839116
82550867852071,0.07243477,-0.33726352,9.816076
82550887703334,0.20936671,-0.4148989,9.893657
82550907559974,0.24270427,-0.4625763,10.161296
82550927416743,0.17376667,-0.43049353,9.954627
82550947273510,0.020061515,-0.4091844,9.926994
82550967129607,-0.107555136,-0.38028973,10.077633
82550986986248,0.022901123,-0.36666396,9.789536
82551006842887,0.08554762,-0.44671443,9.944481
82551026699655,0.12801167,-0.46349108,9.980568
82551046556296,0.29356933,-0.4052279,9.821306
82551066412935,0.18864818,-0.53887445,10.068412
82551086264102,0.12171714,-0.4459726,9.94295
82551106120743,0.14131884,-0.29223835,9.796839
82551125975713,-0.019618401,-0.5623702,10.185522
82551145832354,0.12012118,-0.5108772,9.983282
82551165688995,0.2929434,-0.44669604,9.6155405
82551185545080,0.027155079,-0.4491783,10.090354
82551205401590,0.08477121,-0.42303583,10.061798
82551225258231,0.24588516,-0.42517188,9.818814
82551245114742,-0.06547892,-0.65936154,9.979665
82551264976837,0.07592606,-0.4616503,9.854258
82551284833350,0.24328916,-0.39297965,10.131073
82551304689989,0.19347467,-0.63758147,10.137585
82551324546629,0.22195812,-0.50429463,9.68536
82551344403270,0.018809648,-0.45869687,9.874762
82551364259909,0.09332211,-0.5452455,9.806411
82551384121224,0.16852412,-0.57271665,9.801983
82551403977993,0.1150012,-0.7646114,10.23775
82551423834632,0.20565002,-0.6592137,9.959131
82551443691400,0.10697647,-0.5635503,9.925326
82551463548041,-0.0057310453,-0.762916,10.156619
82551483408039,0.15249315,-0.86276716,10.0691595
82551503264807,0.22417128,-0.87925696,10.229532
82551523121576,0.18945163,-1.0143535,10.333296
82551542978343,0.056617733,-1.1840618,9.925507
82551562834983,-0.08235033,-1.4020646,10.219893
82551582691752,-0.12550879,-1.848257,10.32334
82551602541657,-0.094655804,-1.9448273,9.938967
82551622398297,-0.35981333,-1.6064194,10.138893
82551642254938,-0.093788564,-1.1049501,10.368834
82551662111579,0.22047637,-1.0104159,10.721791
82551681969948,0.886092,-0.44458935,11.397788
82551701826589,0.93402183,-0.48273376,11.385611
82551721683228,0.12339278,-0.9413298,10.305914
82551741539868,-0.33355615,-0.10777182,9.979119
82551761396508,-1.2251025,-0.8767806,10.029779
82551781253148,-1.022369,0.4629325,8.645396
82551801106180,-0.72258556,0.7965528,8.7078285
82551820962820,0.21788596,0.54944336,9.086627
82551840819460,0.073985815,-0.5668158,10.076005
82551860676100,-0.014357556,-1.0345151,10.0658455
82551880532740,-0.19129848,-0.5785799,9.699606
82551900401060,0.118790925,-0.014574676,9.660734
82551920257956,0.19603208,-0.47936153,9.994854
82551940114724,0.13691092,-1.7212259,9.880347
82551959971620,-0.27750325,-2.593942,9.303838
82551979828516,-0.8015779,-2.5325167,9.375159
82551999691843,-0.9598982,-2.7983177,10.28429
82552019548867,-0.4879347,-2.7326107,11.624181
82552039406019,0.12814873,-2.0939448,11.2462015
82552059263043,-0.15431672,-2.4408512,10.297564
82552079120067,-0.4690876,-2.9467525,9.818452
82552098976805,-0.5666446,-2.1765258,9.841599
82552118833958,-0.43492454,-2.4515464,10.078697
82552138690983,0.086292714,-2.4198034,9.738838
82552158548005,0.5183502,-2.276093,9.43447
82552178405157,1.2572961,-2.586574,8.83538
82552198259781,1.5753937,-2.4659965,8.447896
82552218116677,0.74411947,0.106308155,9.579981
82552237973701,-0.23234616,11.400131,11.236119
82552257830597,-1.2558211,8.978657,11.853248
82552277687622,-4.194303,-0.23829639,7.6605296
82552297552477,-4.047119,3.5434778,3.8197792
82552317409630,-1.9006188,5.085558,6.520456
82552337266783,-0.22041641,5.827855,10.518683
82552357123932,2.7424228,7.829454,12.311878
82552376981084,4.1343503,1.8300086,10.131225
82552396842386,1.7880623,-1.410801,10.11455
82552416699794,1.0845068,0.8054701,9.713529
82552436557074,1.7285687,0.51931363,8.125056
82552456414354,0.17070496,-1.3764648,8.454549
82552476271634,0.022204978,-2.1412752,9.816079
82552496125397,0.97599477,-3.1593888,10.592598
82552515982549,1.7137634,-2.425326,9.29018
82552535839701,2.278073,-0.26419818,7.4619966
82552555696981,-0.30975473,-0.511881,7.7713947
82552575554133,-2.5261943,-1.1570833,9.517127
82552595404495,-2.777943,-0.7372097,9.516483
82552615261647,-2.5173514,-0.5817623,9.16786
82552635118671,-1.3607967,-0.055448093,9.581609
82552654975823,0.96243495,-1.3033276,10.56501
82552674832847,3.695952,-2.2146902,10.56471
82552694682291,3.0114422,-4.115798,9.730872
82552714539188,1.2022529,-6.688264,9.669448
82552734395955,0.5536154,-4.4914503,11.806021
82552754252851,-1.1731136,-0.94282305,14.605967
82552774109747,-2.8426094,1.2031099,14.815534
82552793972301,0.119952835,2.284067,13.278279
82552813829325,0.8955874,2.769924,12.276483
82552833686221,0.56584305,3.8958244,12.7027025
82552853543245,1.5222229,6.10763,14.965279
82552873400141,-1.7155551,8.194705,16.645805
82552893251167,-7.843359,10.098812,15.135096
82552913108063,-4.738765,4.1847167,9.659922
82552932964959,-0.9063767,2.1533685,7.116808
82552952821855,-0.5810316,4.2554035,6.5454755
82552972678751,2.7344775,2.8522549,7.0255113
82552992542120,6.6995234,4.2829123,5.85986
82553012399144,5.815117,1.9115785,3.8327336
82553032256168,2.8316119,-1.3157774,2.7618654
82553052113008,-0.9857977,-1.0892154,4.707766
82553071970033,-1.2889012,2.3181443,5.2425795
82553091820630,-2.3952482,3.3615696,5.237213
82553111677652,-2.0849378,0.64581525,5.242467
82553131534676,-2.0183349,0.34680015,4.5893636
82553151391572,-3.8115757,0.9398441,5.731516
82553171248596,-5.2007456,-0.9618272,9.869361
82553191103133,-14.923717,3.1672304,15.41227
82553210960030,-17.951498,-0.2916492,20.470633
82553230816799,-8.24835,-1.5149298,10.586744
82553250673696,5.112242,3.8296256,3.6263266
82553270530593,0.85309315,4.6042914,9.165763
82553290395548,1.1689765,4.8072386,16.071648
82553310252573,12.117802,14.387651,21.269255
82553330109598,-3.0856383,7.7640324,10.619809
82553349966623,-1.331992,4.1969194,2.489021
82553369823520,1.8522271,4.037476,6.9663596
82553389672931,2.282714,4.060012,10.053482
82553409529700,3.837179,3.122371,9.2364235
82553429386469,8.217803,0.7087799,8.892696
82553449243238,7.847691,-0.086368404,7.917692
82553469100007,4.713366,-0.8956641,6.878977
82553488966326,-1.051913,-1.1675854,7.777134
82553508823223,-7.8124533,1.1070915,11.882058
82553528680248,1.7685037,-0.031139158,10.120481
82553548537145,2.759097,-2.2095773,8.652822
82553568394170,-1.059823,-1.9115722,11.455609
82553588247707,-1.1190146,-1.2544612,9.857921
82553608104604,1.6970291,0.033443585,7.038723
82553627961501,-3.6157618,0.9090005,8.941974
82553647818398,-1.7549394,1.4970801,10.960865
82553667675274,1.4255439,1.709717,10.760375
82553687537057,-0.25879088,1.8058045,10.760132
82553707394082,-1.0703558,1.4056108,11.359116
82553727251107,-0.5200148,1.1806664,12.106098
82553747108132,1.1249336,1.8583608,12.840988
82553766965153,-2.6972215,3.7924557,13.986403
82553786829589,-4.26784,6.7116575,14.488339
82553806686741,0.44829,5.490517,14.08977
82553826543893,4.557441,3.0539045,13.330208
82553846401045,7.522947,7.5907187,13.05954
82553866258197,7.9908834,9.7507715,12.650263
82553886121474,2.0393136,7.4104095,8.992421
82553905978882,-4.494113,3.4862783,9.207131
82553925836162,0.97371286,2.3637,10.938597
82553945693570,4.7175107,-0.5742971,10.881526
82553965550850,4.0136113,-4.623771,8.03311
82553985412707,4.0056543,-2.3098567,4.7960787
82554005270115,1.2806805,2.3656704,5.662999
82554025127651,0.66569626,3.3049405,3.373154
82554044985059,-0.4443399,0.7188778,1.9604139
82554064842595,-1.6789982,-0.024193939,2.5855677
82554084700131,-2.6195624,1.8339938,3.6377923
82554104548463,-3.664963,2.268728,4.264601
82554124405872,-5.9512844,2.078098,6.0585155
82554144263151,-11.397721,2.3085837,15.81184
82554164120559,-9.133053,1.3002188,25.989157
82554183977839,-1.1657766,-1.8737708,16.702402
82554203836241,5.397892,1.5311893,6.3528037
82554223693521,2.9888954,4.63435,7.369698
82554243550929,5.8777575,6.4132714,8.373299
82554263408209,5.606869,10.158915,12.654752
82554283265618,-5.922419,7.3827143,8.267094
82554303122165,2.9744425,1.7707468,7.9832687
82554322979446,5.7182064,0.5717999,11.826204
82554342836727,1.5346695,-2.6148615,12.292997
82554362694136,1.6980557,-3.5800133,11.958971
82554382551417,1.2011447,-1.9080565,11.387446
82554402405924,-3.6884987,2.363868,9.23592
82554422263205,-0.6278935,2.0574489,8.699296
82554442120486,1.0117587,0.06383497,9.226158
82554461977895,-0.70855236,1.8172518,9.201524
82554481835176,-1.2630948,2.7247148,7.8442993
82554501685209,-1.7933693,1.9947088,8.614006
82554521542362,-0.768577,0.74312246,9.161267
82554541399515,-1.0060998,1.3093063,8.06574
82554561256540,-3.5204222,0.94163996,8.184119
82554581113693,-4.40739,-0.7219453,9.398097
82554600964264,-1.4902605,-2.171504,9.867525
82554620821289,-2.8561199,0.1917488,9.851408
82554640678314,-3.9674995,3.5660117,10.437629
82554660535339,-1.9634286,3.7326815,10.402663
82554680392364,-0.8635201,3.919666,9.870031
82554700242135,1.7648443,4.460345,10.973476
82554720098904,3.7558777,3.3926651,13.302892
82554739955653,2.4986372,1.6944907,14.744257
82554759812550,1.1308042,0.33433336,12.614382
82554779669319,2.6195188,-0.43287882,10.711209
82554799526317,3.2964132,-0.58442545,12.36798
82554819383085,2.4100964,2.5473795,13.46401
82554839239853,1.380196,5.3729515,11.485618
82554859096621,-0.66180843,3.5296588,10.71407
82554878953389,-0.055400267,1.2927455,10.228284
82554898806488,-0.146449,1.9939286,10.099858
82554918663256,1.3365601,2.268445,8.879305
82554938519896,2.1892111,0.7059491,7.7111087
82554958376664,2.4202878,0.8681804,6.6163416
82554978233432,2.2954435,1.1696085,5.8339357
82554998086404,0.29550478,-0.047289558,7.1441293
82555017942916,1.7756343,0.3918949,5.1985445
82555037799556,0.6549925,0.5001001,2.7275786
82555057656068,-0.30081692,0.09710459,4.025283
82555077512708,0.12616006,-4.9883284E-4,7.2736387
82555097369775,-0.21143337,0.2660985,8.612788
82555117226415,-0.9080103,1.54394,9.162885
82555137087068,-3.6867776,1.5897026,10.812631
82555156943709,-10.458829,0.07868182,11.747227
82555176800348,-7.6754336,0.8696324,11.02344
82555196654087,0.8173992,0.27981785,11.044346
82555216510599,5.72381,-1.8041189,12.034734
82555236366983,5.1464524,0.90179557,14.036486
82555256223495,1.10166,2.0636082,14.377918
82555276079879,-1.9515747,1.1892729,12.050941
82555295940748,-3.3374,0.7889436,8.58828
82555315797261,-2.8891466,1.5529317,7.4269495
82555335653774,-1.909185,2.765959,9.422234
82555355510287,0.11215463,1.7394246,11.436936
82555375366800,2.1901596,-0.2835156,11.595165
82555395230243,2.338889,-0.74461824,10.465723
82555415087012,0.4250973,-0.7656223,9.009577
82555434943653,-1.0719777,0.39556053,8.767861
82555454800422,-0.6670366,1.1915814,8.719267
82555474657063,-0.33498445,1.3432331,9.122903
82555494523632,-0.81757116,1.3472186,9.724781
82555514380529,-0.7929479,0.9606408,10.512773
82555534237426,-0.115671664,0.5204648,9.833513
82555554094323,-0.0664796,-0.0023828612,9.438593
82555573951220,-0.70280784,-0.029583363,10.127447
82555593811165,-1.2465776,0.30013546,10.240505
82555613668190,-0.91262984,0.51686305,10.289499
82555633525215,-0.110989355,0.5786251,10.224778
82555653382240,0.05189081,0.5848157,10.079307
82555673239265,-0.038522623,0.459037,10.387222
82555693095966,-0.22830437,0.6311909,9.563853
82555712952863,-0.5732584,1.0118613,9.103718
82555732809888,-0.9443307,0.8418713,9.389033
82555752666762,-0.97910917,0.4590372,10.044942
82555772523786,-0.5386325,-0.08595528,10.237963
82555792392563,0.46001443,-0.31282634,9.717199
82555812249715,1.0522127,-0.078535944,9.401791
82555832106995,0.56581354,0.37490398,9.310687
82555851964275,-0.3538821,0.47951603,9.290933
82555871821555,-1.5505583,0.34410894,9.726197
82555891683413,-1.6028173,0.32242516,9.72915
82555911540821,-0.25903395,-0.26391318,9.812727
82555931398229,0.06602254,0.24334817,9.946321
82555951255637,0.7165785,0.15451564,9.614293
82555971113045,0.16692822,0.120804325,9.446351
82555990966583,-0.7636379,0.31336188,9.378275
82556010823863,-1.0527667,0.45949888,9.237948
82556030681271,-0.55632836,0.33766487,9.332482
82556050538551,0.0388844,0.15064119,9.544094
82556070395959,0.31033006,0.10426575,9.656266
82556090248474,-0.59115165,0.63554853,9.734936
82556110105754,-1.4216943,0.967179,10.05873
82556129963162,-1.4892882,0.921219,10.055456
82556149820442,-1.1663218,0.79720116,9.931288
82556169677722,-0.71391475,0.5316027,9.726146
82556189525183,-0.66985023,0.38677746,9.649881
82556209382336,-0.73284864,0.35704982,9.649401
82556229239361,-0.6772553,0.3438972,9.501315
82556249096511,-0.6025607,0.2648373,9.427477
82556268953536,-0.6668499,0.25751933,9.579878
82556288810687,-0.5350893,0.18928382,9.590573
82556308668916,-0.32147896,0.118858285,9.566475
82556328525940,-0.37782997,0.3004643,9.6566725
82556348383092,-0.5490737,0.49305618,9.573862
82556368240244,-0.5673138,0.59902763,9.543352
82556388097269,-0.53326577,0.5039913,9.6676235
82556407947612,-0.4548595,0.341134,9.664688
82556427804637,-0.54222983,0.2937275,9.572287
82556447661662,-0.64419305,0.23440726,9.520471
82556467518687,-0.6489234,0.13950895,9.609638
82556487375584,-0.50609976,0.08309278,9.636943
82556507229499,-0.33891928,0.10196362,9.6592045
82556527086396,-0.3978869,0.16282889,9.696151
82556546943293,-0.70613813,0.36211827,9.7516575
82556566800190,-0.8237126,0.40613207,9.724845
82556586657087,-0.7959695,0.26262218,9.650006
82556606508180,-0.6083601,0.0214805,9.635936
82556626364949,-0.32778388,-0.12991947,9.643052
82556646221718,-0.24454695,-0.15136133,9.622588
82556666078487,-0.3996317,0.027349902,9.646565
82556685935256,-0.5488536,0.18644956,9.563005
82556705786383,-0.4545904,0.12818898,9.587572
82556725643024,-0.3155773,0.12296103,9.666836
82556745499537,-0.34569475,0.15380728,9.681599
82556765356160,-0.41607687,0.19098705,9.662407
82556785212800,-0.3863962,0.24118106,9.663477
82556805066429,-0.37229154,0.26295757,9.641799
82556824922941,-0.41711903,0.22156851,9.710093
82556844779453,-0.5437115,0.2584576,9.672656
82556864635965,-0.57314277,0.267735,9.683062
82556884492477,-0.48796815,0.26348048,9.713183
82556904344028,-0.42036948,0.32111448,9.69458
82556924200412,-0.40361965,0.28814563,9.6483555
82556944056796,-0.40369213,0.23427773,9.634862
82556963913180,-0.3673427,0.3159803,9.698974
82556983769436,-0.42394957,0.3538868,9.68475
82557003627906,-0.42856884,0.33141363,9.589983
82557023484290,-0.35037926,0.32206663,9.638522
82557043340674,-0.3566102,0.29336637,9.66967
82557063197058,-0.31135628,0.25267634,9.713101
82557083053442,-0.32919958,0.3191593,9.660837
82557102878564,-0.38290957,0.32923442,9.63514
82557122735548,-0.39115041,0.26739004,9.613292
82557142591420,-0.3422785,0.2448314,9.61889
82557162447164,-0.38222623,0.2616441,9.618164
82557182302908,-0.4313761,0.2781049,9.713207
82557202170655,-0.36388195,0.27577537,9.750456
82557222026528,-0.3697258,0.22039858,9.670574
82557241882529,-0.36373606,0.20219125,9.563413
82557261738398,-0.37278134,0.2552068,9.5630245
82557281594398,-0.4178505,0.25316435,9.659642
82557301463770,-0.37799042,0.15313444,9.638459
82557321319898,-0.35185343,0.14378253,9.585108
82557341176026,-0.34884462,0.21976088,9.60347
82557361032154,-0.40820846,0.21851484,9.709754
82557380888282,-0.46832064,0.20605035,9.694843
82557400758441,-0.49602398,0.17750295,9.613472
82557420614953,-0.46099013,0.18741035,9.656081
82557440471337,-0.45513985,0.20608415,9.716759
82557460327849,-0.50685906,0.14961615,9.775382
82557480184361,-0.5155326,0.20165205,9.745584
82557500056055,-0.48268446,0.30572498,9.687368
82557519912823,-0.5245641,0.3020429,9.738395
82557539769591,-0.5418133,0.22801247,9.800188
82557559626487,-0.47736487,0.24712637,9.775745
82557579483255,-0.4543243,0.23666587,9.6734705
82557599343241,-0.47816938,0.32112473,9.634699
82557619200137,-0.46214277,0.2916438,9.612609
82557639057033,-0.39382493,0.22593056,9.715773
82557658913930,-0.43859497,0.31739533,9.796217
82557678770955,-0.51519185,0.40412888,9.813271
82557698631666,-0.54515123,0.28001633,9.776666
82557718488690,-0.5623648,0.21262464,9.801737
82557738345586,-0.5204475,0.27381158,9.769365
82557758202610,-0.5983713,0.3166295,9.747237
82557778059634,-0.6113466,0.26578155,9.808415
82557797925589,-0.56731004,0.23543672,9.825896
82557817782741,-0.61452657,0.27745476,9.752139
82557837639893,-0.6451811,0.30058116,9.712861
82557857497173,-0.5938264,0.2536373,9.743054
82557877354325,-0.48834574,0.2785276,9.712626
82557897221082,-0.44528702,0.27651656,9.710182
82557917078618,-0.4062451,0.32738537,9.652414
82557936936026,-0.37266088,0.33346286,9.668821
82557956793434,-0.39662877,0.30381083,9.679181
82557976650970,-0.39216536,0.30364525,9.766507
82557996510836,-0.37762678,0.34239584,9.764904
82558016368372,-0.3343565,0.37137732,9.774278
82558036225908,-0.34495223,0.3970961,9.761777
82558056083444,-0.30390224,0.40765283,9.714921
82558075940980,-0.3559918,0.44176224,9.7304535
82558095801497,-0.42278948,0.42736122,9.788875
82558115659161,-0.42669556,0.39602375,9.785622
82558135516826,-0.36928624,0.410656,9.789091
82558155374491,-0.4151835,0.41084984,9.749176
82558175232156,-0.43113026,0.42194661,9.764549
82558195092804,-0.44998,0.39918345,9.725879
82558214950596,-0.4428896,0.37352318,9.685774
82558234808388,-0.25552902,0.5281331,9.766845
82558254666052,-0.27820337,0.55567634,9.831304
82558274523844,-0.20399287,0.57433665,9.772469
82558294386823,-0.16569051,0.5393264,9.78306
82558314244872,-0.15266508,0.5141115,9.666697
82558334102793,-0.21458437,0.5337858,9.66753
82558353960714,-0.2319112,0.59148633,9.68858
82558373818635,-0.18435344,0.50931174,9.710724
82558393673256,-0.23778573,0.5385839,9.785158
82558413531177,-0.2609227,0.472108,9.773115
82558433389098,-0.2904214,0.4163604,9.805998
82558453247019,-0.21186052,0.5107706,9.83505
82558473104940,-0.2486075,0.5934798,9.722509
82558492956363,-0.27115119,0.57314515,9.738984
82558512814284,-0.29034483,0.5438739,9.719762
82558532672077,-0.23654792,0.45926645,9.684769
82558552529870,-0.23447007,0.5384098,9.650204
82558572387791,-0.25678122,0.5766118,9.733679
82558592230436,-0.3896058,0.46943268,9.801239
82558612088101,-0.2684432,0.2439019,9.811223
82558631945766,-0.1327688,0.27860352,9.766737
82558651803303,-0.18793449,0.38632295,9.760141
82558671660968,-0.22588222,0.44650143,9.732353
82558691518633,-0.08496881,0.50206876,9.722186
82558711352240,-0.05118471,0.54493636,9.733587
82558731209137,-0.18483795,0.5765455,9.794443
82558751065885,-0.2078333,0.5645362,9.801077
82558770922782,-0.27188998,0.48863137,9.752039
82558790779549,-0.34189802,0.38038033,9.797878
82558810635069,-0.42841068,0.34523472,9.758327
