UPTIMENANO,Ax,Ay,Az
68649993695593,0.060545348,-0.33414698,9.469558
68650013549802,0.055846673,0.13274917,10.121191
68650033403881,0.36263478,0.19182813,10.563406
68650053258089,0.34380963,0.109734036,10.453816
68650073112298,-0.17123103,-0.046473637,10.001931
68650092969663,-0.009887956,-0.50302875,9.516508
68650112823871,0.03487982,-0.70194346,9.091673
68650132678080,-0.088872,-0.13160546,9.81856
68650152532287,0.63028777,0.69165796,10.822388
68650172389996,0.25921822,0.7864373,10.458028
68650192244205,-0.16691643,0.5195873,9.628381
68650212098540,0.2856485,0.19470748,9.594976
68650231952876,0.5208143,0.29303446,9.797762
68650251807213,-0.13969277,0.33693194,9.124899
68650271664083,-0.9772361,1.4307828,8.443652
68650291518419,-1.5410719,1.6823246,8.751891
68650311372756,-1.0395683,0.39316392,9.308585
68650331227091,-0.1044282,-0.2929657,9.662456
68650351081427,-0.20349154,-0.7937066,9.054967
68650370935764,0.52249265,-1.9173027,9.774856
68650390788332,1.2294776,-0.6223902,11.276583
68650410642668,0.021021124,0.8116766,10.602491
68650430497005,-0.8651388,0.026511962,8.857241
68650450351340,-0.3856687,-0.02379786,9.114464
68650470205742,0.24353743,0.5301032,10.227463
68650490060207,0.3990852,0.81694794,10.332264
68650509914542,0.18870072,0.9896291,10.22987
68650529768878,0.2523438,1.6756423,10.605627
68650549623343,0.54397917,3.0863411,11.358447
68650569473485,1.1045797,-1.2539266,9.523557
68650589327821,-0.6194889,-0.98236823,7.621417
68650609182158,-0.112988584,0.2259365,10.815423
68650629036493,-1.4403243,-0.7516985,10.20768
68650648890829,-1.7689457,-1.3997662,8.054972
68650668745166,1.1579956,-1.9759085,10.622381
68650688597965,2.3684773,-0.5638528,12.229034
68650708452301,1.2849548,0.28313762,11.202631
68650728306638,0.9891879,-0.36906812,9.972431
68650748160973,0.7781596,-1.1467196,9.24547
68650768017692,0.77654076,-0.9673788,8.751112
68650787872157,1.527596,-0.19169079,9.149719
68650807726492,1.1781014,-0.36407652,9.373091
68650827580828,1.5132518,0.96210855,9.291152
68650847435165,0.70351386,0.92065084,8.951735
68650867278242,-0.58650655,0.8596254,7.7567463
68650887132450,-0.40295327,1.1744921,8.629339
68650906986531,-0.31506634,1.9497943,8.547123
68650926840610,0.17804763,2.8448312,8.531354
68650946694690,-1.1255364,4.0390563,7.8965983
68650966548899,-3.4378955,4.089748,7.2141647
68650986396828,-2.1426597,1.5249428,5.415498
68651006250908,-0.4478549,1.6319922,4.791336
68651026104861,-0.018945446,1.7844657,6.9804587
68651045958812,0.32343498,-0.6033598,7.6059175
68651065811569,1.4856031,-0.82665396,10.922917
68651085665522,2.4549768,0.5843648,12.183135
68651105519473,1.2782418,2.0834095,10.837368
68651125373425,1.1925646,3.355951,9.061929
68651145227378,1.7043563,1.9935974,9.065089
68651165081329,0.11675748,0.40494236,9.183298
68651184928186,-0.18880124,-1.3082585,5.762829
68651204781883,0.18839815,-0.74618703,5.2996507
68651224635706,2.1910286,8.1122806E-4,12.790469
68651244489402,1.2511109,-0.46734604,14.428667
68651264343227,0.659675,-3.8778176,12.423031
68651284202816,0.9896514,-3.0458937,11.263099
68651304056640,0.57834524,-2.794078,10.434168
68651323910465,-0.29969475,-0.13094358,7.46841
68651343764288,3.113776,4.795808,7.71062
68651363614156,4.5145144,5.425749,10.022279
68651383467853,-0.7694054,2.427608,6.4314785
68651403321676,-7.222599,-0.5307028,1.4523599
68651423175372,-3.2220128,5.069249,-3.9957635
68651443029069,0.9057934,5.2026677,2.307557
68651462893513,1.4576147,2.2688603,6.6692715
68651482749720,1.2323755,2.9175036,9.094731
68651502603545,2.370951,6.0387383,6.0294895
68651522457240,5.386198,6.6900353,5.589756
68651542310936,6.071858,4.2792864,9.7627
68651562164633,6.020037,5.661674,12.904384
68651582018219,7.13067,3.0353181,14.91432
68651601871915,3.954945,-4.364766,20.12104
68651621725612,2.528753,-5.5101905,20.213806
68651641579435,2.1232164,-2.8068612,19.598734
68651661433131,3.0862534,-5.226809,19.668726
68651681287676,1.1056759,-6.5771103,19.236677
68651701141372,-4.366616,-6.7492557,19.108938
68651720995196,-6.1074147,-6.4444394,15.386456
68651740848892,3.8613796,-8.743498,11.14093
68651760702716,-13.823721,0.3596375,16.463373
68651780559234,-5.537362,4.390114,16.414633
68651800413058,-0.29720628,1.4917442,12.522775
68651820266882,-0.33539772,-2.5045283,11.825703
68651840120706,0.23446316,-1.9198588,11.864377
68651859974530,0.11505772,-2.374903,14.66949
68651879831767,1.2668241,-0.5973741,11.742047
68651899685719,-2.578836,0.50043327,5.334264
68651919539671,-3.2061827,-0.019170837,6.379754
68651939393623,-1.9424527,6.891453E-4,13.475138
68651959247447,-2.0136077,1.0579612,11.836662
68651979103118,-1.2915037,3.4627893,9.028669
68651998957070,-2.0510612,0.6492295,10.708575
68652018811022,2.629255,-6.658818,8.850406
68652038664974,-1.2702916,-5.8123665,5.917502
68652058518926,-1.2939788,-2.7774665,2.9634058
68652078381271,-0.71243244,-1.1484357,0.8161441
68652098235479,-2.1295645,-0.98444766,0.05843532
68652118089687,-3.6336496,-0.27534312,2.5431523
68652137943767,-2.489562,-0.40945745,4.416855
68652157797975,-0.5625132,-2.9380078,7.385641
68652177656096,-2.0233977,-8.610508,8.253046
68652197510304,-3.1165092,-2.962348,8.987354
68652217364512,-3.1168418,-2.1298413,14.025787
68652237218720,0.1709776,-2.8108752,10.260965
68652257072928,0.8978505,-0.8222671,10.020621
68652276931293,0.43660823,-1.0391951,10.292531
68652296785629,2.3933485,-2.7100708,16.985218
68652316639965,6.9603114,-2.853895,22.142063
68652336494301,6.0387836,1.056456,22.79399
68652356348509,-0.58447015,4.9090004,19.3748
68652376202845,-3.62751,0.41495827,15.336362
68652396065818,1.921833,-2.6086657,11.014595
68652415920410,0.11010764,1.5392839,7.484971
68652435775002,-2.8785985,4.4768105,5.363243
68652455629594,-2.8632188,5.973873,7.192705
68652475484058,3.7342398,4.117113,2.3941703
68652495338735,-0.716729,7.5011063,3.1907437
68652515193327,-0.23406759,-4.431447,1.7122527
68652535047919,-6.6053514,-5.921635,3.3574698
68652554902383,4.4263644,-11.771414,3.412488
68652574756975,6.0042863,-3.8802614,2.7961614
68652594608757,0.8661714,-2.024942,6.465308
68652614463349,0.6758015,0.9644881,10.548129
68652634317813,0.39291328,2.2725863,11.9644785
68652654172277,0.2565887,2.6637435,11.120805
68652674026869,-0.6446704,5.127591,10.699759
68652693883403,0.90443915,3.4463718,9.807603
68652713737995,-1.113304,5.156975,9.670542
68652733592587,-4.1176653,2.153667,11.056688
68652753447051,-3.25687,7.994968,17.46645
68652773301643,-2.166469,9.330968,29.214212
68652793154171,1.1317726,-4.844302,9.817297
68652813008635,3.0086749,-8.59414,12.778773
68652832863227,2.602531,-7.0510077,16.643429
68652852717691,1.0153962,-4.11582,13.867398
68652872572155,0.7730611,-0.8764439,12.623718
68652892430666,5.418294,-1.1499325,11.040236
68652912285258,1.1895711,-8.046786,9.047673
68652932139978,-1.783302,-7.264266,9.318073
68652951994570,2.806438,-5.332783,7.9726057
68652971849290,2.6191158,-5.3809266,5.2846665
68652991699188,-6.2173786,6.628812,2.222925
68653011553780,-15.886186,29.371264,12.166221
68653031408244,9.21178,6.6995945,5.1381135
68653051262836,9.460071,2.5848362,5.247454
68653071117428,1.3229802,0.34972805,11.9136
68653090962169,-0.740784,-0.2896443,14.689056
68653110816505,-0.37740418,0.5844377,12.668575
68653130670969,-1.2605546,-2.2573485,12.861753
68653150525305,-5.802133,-9.924809,11.663272
68653170379769,-0.20267783,-6.2250037,9.850349
68653190222889,2.6971052,-0.5866232,10.375195
68653210077097,1.9811023,1.3235021,11.180589
68653229931177,1.1755666,-0.36575153,10.059776
68653249785385,-0.19744672,-0.52590096,10.220486
68653269639465,-0.25752524,-0.9261031,10.19134
68653289495611,0.19817436,-1.430728,10.5640335
68653309349819,-0.9791562,-1.1244012,10.837128
68653329203899,-1.3980669,-0.9195576,10.394451
68653349058107,-0.21617332,-0.68982685,10.322948
68653368912187,0.97488284,-0.27115119,10.180608
68653388760024,0.6648888,-0.3913103,10.431637
68653408613976,-0.33233386,-1.067521,10.433546
68653428468056,-0.5569603,-1.217682,10.364481
68653448322008,-0.2341798,-0.98181474,10.209831
68653468184231,-0.040444303,-0.7900608,10.1100645
68653488036104,-0.024856366,-0.7071225,10.35429
68653507889928,0.063780636,-0.785201,10.720663
68653527743880,0.07842455,-1.0203445,10.211773
68653547597704,0.14714928,-1.1207392,10.451039
68653567451656,-0.11026286,-1.3419148,9.790183
68653587305492,-0.2980869,-1.2410634,10.113604
68653607159316,0.063736945,-0.9755403,10.701421
68653627013140,0.17652266,-0.81025326,10.377548
68653646866964,-0.058343455,-0.65742904,10.312092
68653666720788,-0.21557978,-0.625433,10.407224
68653686579762,-0.15721293,-0.6288865,10.45604
68653706433714,-0.037766688,-0.55864066,10.323231
68653726287666,0.15614797,-0.61036813,10.215301
68653746141490,0.14748277,-0.8512666,10.317598
68653765995442,0.028232034,-1.0546273,10.395121
68653785858305,-0.02205836,-1.0908256,10.581257
68653805712385,0.092299566,-1.1884784,10.397299
68653825566593,0.14571172,-1.022405,10.403804
68653845420673,0.06760393,-0.88133115,10.561262
68653865274753,-0.03864963,-0.8041845,10.291452
68653885124829,-0.02399043,-0.79135245,10.14264
68653904978909,0.174442,-0.97037673,10.192624
68653924832861,0.35011637,-1.010073,10.286367
68653944686941,0.3533279,-0.8312046,10.317712
68653964540893,0.21626383,-0.6875717,10.145779
68653984397637,0.11438794,-0.65793115,10.059448
68654004251717,0.072440624,-0.76453424,10.171848
68654024105925,0.16915576,-0.8065778,10.221279
68654043960005,0.190913,-0.6992159,10.302778
68654063814085,0.21434541,-0.8042719,9.98219
68654083666957,0.42651072,-0.7757071,9.972606
68654103521037,0.34013078,-0.84675366,10.296994
68654123375117,0.14174467,-0.81612134,10.285678
68654143229197,0.042508774,-0.6694359,10.187014
68654163083277,0.15379362,-0.69007087,10.14604
68654182941910,0.3433145,-0.71480215,10.130976
68654202796118,0.31469586,-0.7214195,10.080599
68654222650198,0.19844666,-0.70396143,10.059081
68654242504407,0.086831264,-0.68340456,10.066056
68654262358614,0.12891923,-0.6627993,10.091646
68654282222038,0.22245094,-0.7243179,10.092087
68654302076374,0.24578524,-0.8066399,10.071359
68654321930838,0.24517,-0.82917655,10.038317
68654341785174,0.21687318,-0.8320479,10.044381
68654361639638,0.15431063,-0.79138756,10.009413
68654381493942,0.13404948,-0.7433242,9.966063
68654401348406,0.15988104,-0.7258187,9.954307
68654421202742,0.19467416,-0.74402064,9.9621105
68654441057207,0.20940006,-0.7449996,9.923863
68654460911672,0.2266293,-0.7443158,9.898384
68654480778387,0.18358278,-0.7780482,9.940864
68654500633108,0.11610009,-0.8115568,9.942286
68654520487829,0.09997661,-0.82173204,9.905443
68654540342678,0.17464092,-0.81367594,9.89919
68654560197393,0.27853197,-0.82499176,9.873816
68654580052113,0.21865827,-0.836404,9.831898
68654599904468,0.13838443,-0.8177411,9.840799
68654619759188,0.1327766,-0.77677,9.847019
68654639613908,0.13059619,-0.758948,9.849033
68654659468628,0.15801662,-0.74632245,9.803726
68654679323476,0.18974932,-0.7081109,9.767898
68654699180518,0.24417783,-0.7309379,9.803713
68654719035366,0.23242643,-0.76103795,9.783432
68654738890086,0.12841788,-0.76743734,9.77888
68654758744806,0.039702974,-0.76797324,9.857029
68654778599527,0.10749622,-0.7478884,9.896777
68654798459118,0.1724279,-0.720436,9.851678
68654818313964,0.15270777,-0.75017774,9.799497
68654838168812,0.15089424,-0.81762195,9.711381
68654858023532,0.22048393,-0.8160795,9.755074
68654877878380,0.27624038,-0.7303142,9.771171
68654897728894,0.26737073,-0.6674523,9.76583
68654917583614,0.2703781,-0.6646025,9.775269
68654937438462,0.28395683,-0.691616,9.78376
68654957293183,0.24526486,-0.746543,9.820789
68654977148030,0.14978938,-0.76544917,9.869142
68654996995825,0.19813842,-0.70875883,9.792306
68655016850418,0.23375706,-0.6636473,9.700634
68655036705011,0.24083407,-0.686398,9.706518
68655056559604,0.24839072,-0.7220767,9.721305
68655076414192,0.25968343,-0.7255017,9.823746
68655096261969,0.22171183,-0.734737,9.848007
68655116116433,0.24525511,-0.6991468,9.751711
68655135971025,0.19735253,-0.68934804,9.66993
68655155824465,0.1940233,-0.6721059,9.629845
68655175678930,0.21439937,-0.71823984,9.61872
68655195525633,0.19018863,-0.7741697,9.6573
68655215379970,0.22566156,-0.74445385,9.722789
68655235234307,0.2783458,-0.68957573,9.798983
68655255088644,0.24706654,-0.6757537,9.819463
68655274942981,0.24941793,-0.70336574,9.824325
68655294796958,0.23400518,-0.72678095,9.846276
68655314651295,0.23218231,-0.7212771,9.845379
68655334505632,0.22547977,-0.69591147,9.822785
68655354359969,0.1902762,-0.6731125,9.835975
68655374214306,0.25698197,-0.6619961,9.787793
68655394063051,0.26569447,-0.6778397,9.787986
68655413917260,0.26549694,-0.6649322,9.726879
68655433771597,0.32833403,-0.6905461,9.691415
68655453625806,0.31338617,-0.7270539,9.657655
68655473480143,0.24787612,-0.7151114,9.672217
68655493327464,0.25609684,-0.64598656,9.71514
68655513181545,0.28552592,-0.62017596,9.762552
68655533035626,0.24372661,-0.6968449,9.754377
68655552889707,0.19896916,-0.7656091,9.755956
68655572743788,0.26835883,-0.7310082,9.731312
68655592592851,0.32490367,-0.67609066,9.755119
68655612446804,0.31292635,-0.65039253,9.790063
68655632300736,0.26917467,-0.68424636,9.818348
68655652154561,0.24668163,-0.71561915,9.863424
68655672008514,0.24161053,-0.74420327,9.826238
68655691864899,0.24704053,-0.72880024,9.775404
68655711718724,0.24104996,-0.7137876,9.732596
68655731572677,0.27581686,-0.6897272,9.662469
68655751426502,0.30405435,-0.64595735,9.662612
68655771280455,0.22776784,-0.6767607,9.686203
68655791144258,0.19149466,-0.71760267,9.6947775
68655810998211,0.18577497,-0.7448489,9.737478
68655830852292,0.23365496,-0.75648636,9.741437
68655850706373,0.2890675,-0.7260454,9.738864
68655870560326,0.27248812,-0.70860356,9.719697
68655890419405,0.22143784,-0.72698516,9.74264
68655910273614,0.19095063,-0.7764744,9.731157
68655930127695,0.18155013,-0.7952758,9.801187
68655949981904,0.25269952,-0.76476055,9.837442
68655969836113,0.29939932,-0.7184761,9.834676
68655989693692,0.21290118,-0.7436757,9.798281
68656009547901,0.17111908,-0.834138,9.75659
68656029402110,0.22606137,-0.8541733,9.733029
68656049256191,0.25557533,-0.81015426,9.725712
68656069110400,0.26352745,-0.76339483,9.727864
68656088967433,0.2036729,-0.75293696,9.721818
68656108821747,0.21787204,-0.7689358,9.7290945
68656128675956,0.20194018,-0.82072735,9.673899
68656148530293,0.23378369,-0.8239466,9.666169
68656168384630,0.25383362,-0.7897129,9.669207
68656188238839,0.26004723,-0.75698847,9.697501
68656208089876,0.22196208,-0.7825136,9.707816
68656227944085,0.23530081,-0.79735166,9.730359
68656247798294,0.25363296,-0.7876745,9.726899
68656267652503,0.25684533,-0.7862982,9.754402
68656287506712,0.206807,-0.79337645,9.767901
68656307370431,0.2021033,-0.80604815,9.802036
68656327224896,0.24736051,-0.7855615,9.797394
68656347079361,0.2767045,-0.7703616,9.779859
68656366933826,0.26415467,-0.79195696,9.7623825
68656386788291,0.24827033,-0.77107537,9.75652
68656406652288,0.21735805,-0.7337431,9.728646
68656426507137,0.23133878,-0.7263123,9.707453
68656446361858,0.25953668,-0.71852434,9.697929
68656466216579,0.23649368,-0.7474152,9.733768
68656486071428,0.23839039,-0.7445235,9.6773
68656505925307,0.24627139,-0.7330377,9.699788
68656525780156,0.2551079,-0.7324368,9.736684
68656545634877,0.27119097,-0.6983303,9.759795
68656565489598,0.22821522,-0.7138067,9.745776
68656585344426,0.15794651,-0.7937515,9.743385
68656605194163,0.24632417,-0.7518668,9.756827
68656625048884,0.30471286,-0.7129753,9.748897
68656644903605,0.2600193,-0.75300825,9.728381
68656664758326,0.20906794,-0.7400966,9.700107
68656684612919,0.21651566,-0.71622705,9.748306
68656704465208,0.20604676,-0.7307738,9.769863
68656724319929,0.24713923,-0.7352539,9.805955
68656744174522,0.26586324,-0.71691585,9.842061
68656764029243,0.25982383,-0.687401,9.862772
68656783883836,0.25869128,-0.71187764,9.83639
68656803739897,0.22275704,-0.72522956,9.82749
68656823594490,0.20408273,-0.7279208,9.765778
68656843449211,0.20056659,-0.7542251,9.726626
68656863303804,0.19261912,-0.7298175,9.681493
68656883158525,0.25016898,-0.67013884,9.694101
68656903017524,0.30526322,-0.67771024,9.676365
68656922872373,0.2664264,-0.72886413,9.697225
68656942727094,0.2179289,-0.7467472,9.705245
68656962581943,0.22952674,-0.71099526,9.709191
68656982436664,0.25036207,-0.71646637,9.716418
68657002285875,0.19043285,-0.7445527,9.729829
68657022140468,0.20577528,-0.72626173,9.766122
68657041995061,0.21801123,-0.70925856,9.807223
68657061849632,0.1972738,-0.7403903,9.792642
68657081704225,0.19750567,-0.78088444,9.7867155
68657101545286,0.24062625,-0.7594866,9.804801
68657121399623,0.26284575,-0.666575,9.830925
68657141253960,0.21583974,-0.6731625,9.777306
68657161108297,0.15503795,-0.77019984,9.7275305
68657180962634,0.2181644,-0.7839704,9.700198
68657200809151,0.25824237,-0.7351292,9.700997
68657220663232,0.23166063,-0.6850286,9.723494
68657240517313,0.20292623,-0.70739913,9.689386
68657260371394,0.19878605,-0.7396171,9.698363
68657280225603,0.19495328,-0.74363625,9.71987
68657300081586,0.23936819,-0.7056333,9.734888
68657319935795,0.22586748,-0.6829234,9.741794
68657339789876,0.1875035,-0.71047884,9.746611
68657359643957,0.19728738,-0.7574548,9.758247
68657379498038,0.22374038,-0.7400949,9.811016
68657399355495,0.24620908,-0.7014709,9.797701
68657419209704,0.22605777,-0.70237315,9.801142
68657439063913,0.17534912,-0.7201424,9.769578
68657458918122,0.19990769,-0.72495407,9.72211
68657478772331,0.23295128,-0.67169493,9.719547
68657498628504,0.23086429,-0.6551372,9.716669
68657518482713,0.22944316,-0.66130835,9.720063
68657538336901,0.22626917,-0.6945981,9.746085
68657558191238,0.24311264,-0.7230943,9.767234
68657578045447,0.24619834,-0.7112842,9.795065
68657597901874,0.22906543,-0.6946316,9.765782
68657617756211,0.20311013,-0.70324224,9.784887
68657637610548,0.21128702,-0.7035193,9.779357
68657657464757,0.26306367,-0.6824067,9.7397175
68657677319094,0.263515,-0.678435,9.718401
68657697175511,0.22489762,-0.6851226,9.723871
68657717029848,0.20147784,-0.67944115,9.761569
68657736884185,0.1777796,-0.67579025,9.793772
68657756738522,0.25866008,-0.67342156,9.784623
68657776592859,0.3042088,-0.69811815,9.713173
68657796450064,0.26064768,-0.7136746,9.719039
68657816304401,0.16502084,-0.7244403,9.674644
68657836158738,0.1598237,-0.71244156,9.675694
68657856013075,0.19069748,-0.7178601,9.6500435
68657875867412,0.25365198,-0.70342326,9.687434
68657895721481,0.29577553,-0.6500954,9.756387
68657915575818,0.28581786,-0.67295736,9.815423
68657935430155,0.22346531,-0.73885393,9.806397
68657955284492,0.2134441,-0.7526999,9.805759
68657975138957,0.24676277,-0.7006815,9.8078165
68657994995648,0.25496116,-0.68133223,9.807559
68658014850091,0.19267632,-0.71522665,9.77732
68658034704556,0.24976319,-0.69948214,9.770699
68658054559021,0.27956215,-0.67703944,9.732724
68658074413486,0.2453276,-0.68219024,9.725927
68658094269213,0.2595835,-0.676,9.7093525
68658114123806,0.28950906,-0.6639908,9.671052
68658133978271,0.28385335,-0.66250616,9.691661
68658153832736,0.25548562,-0.6991134,9.690967
68658173687201,0.24642338,-0.72057354,9.705612
68658193538076,0.239361,-0.71217555,9.73313
68658213392413,0.29403996,-0.6910076,9.745498
68658233246878,0.30739665,-0.68949044,9.772434
68658253101215,0.23514399,-0.7259111,9.836505
68658272955552,0.25897628,-0.73345387,9.805734
68658292810017,0.2642661,-0.69055283,9.789622
68658312665822,0.22813079,-0.69426864,9.718738
68658332520287,0.2704811,-0.7450037,9.705068
68658352374624,0.3453329,-0.70330703,9.719265
68658372229089,0.3550333,-0.70059574,9.741774
68658392083426,0.28066227,-0.68200284,9.751198
68658411943449,0.29779267,-0.63403094,9.735743
68658431798042,0.33076075,-0.64946485,9.714726
68658451652635,0.26445958,-0.6991332,9.730171
68658471507100,0.2283771,-0.7216785,9.716327
68658491361671,0.29053882,-0.6740787,9.747771
68658511220342,0.32465747,-0.648681,9.757531
68658531075063,0.3431027,-0.6323733,9.78814
68658550929784,0.29461882,-0.6673208,9.761765
68658570784505,0.23511209,-0.71760416,9.746829
68658590639098,0.23724239,-0.6949087,9.760253
68658610489967,0.29224584,-0.6593353,9.751631
68658630344560,0.31040877,-0.6483289,9.775863
68658650199281,0.25002757,-0.7105364,9.772681
68658670053874,0.27754495,-0.6931039,9.753368
68658689907681,0.28917176,-0.63118327,9.764346
68658709762274,0.26917502,-0.6464995,9.736581
68658729616867,0.22618483,-0.67506,9.719047
68658749471460,0.24379058,-0.66811407,9.732285
68658769326053,0.29901952,-0.64942807,9.753889
68658789181908,0.28490123,-0.6562386,9.772773
68658809036501,0.2514809,-0.6749253,9.777195
68658828891094,0.23789477,-0.70057315,9.8009205
68658848745687,0.26247844,-0.68248713,9.7596035
68658868600280,0.27479187,-0.6538172,9.744216
68658888454873,0.23972148,-0.66505873,9.720927
68658908308990,0.27433267,-0.6944804,9.725865
68658928163455,0.31727618,-0.708444,9.7319765
68658948018048,0.29093346,-0.6922956,9.750304
68658967872619,0.2645064,-0.6566088,9.741594
68658987723042,0.25535697,-0.63165313,9.766233
68659007577507,0.25457665,-0.6834507,9.769751
68659027431972,0.28442755,-0.7099861,9.750907
68659047286437,0.24666674,-0.7211054,9.7402315
68659067140902,0.26264048,-0.6903589,9.730154
68659086995495,0.29517594,-0.66326034,9.772758
68659106846620,0.31588095,-0.6615685,9.779431
68659126700957,0.28671327,-0.6715555,9.771033
68659146555422,0.21427673,-0.7121333,9.739604
68659166409887,0.232323,-0.71102846,9.728889
68659186264224,0.27469677,-0.6440927,9.714541
68659206116251,0.30188614,-0.64433724,9.715341
68659225970716,0.2632507,-0.6673807,9.716418
68659245825053,0.24193895,-0.6887794,9.724359
68659265679390,0.27814457,-0.679939,9.736998
68659285535573,0.2720908,-0.6635087,9.754192
68659305389910,0.27365667,-0.65141594,9.754865
68659325244375,0.29715785,-0.64975774,9.781237
68659345098712,0.27037033,-0.6611879,9.784729
68659364953177,0.26770443,-0.66831696,9.765583
68659384807514,0.23923421,-0.7017416,9.733457
68659404663381,0.2600912,-0.68758607,9.7459545
68659424517846,0.31486273,-0.6115186,9.743258
68659444372289,0.29457748,-0.6085294,9.74527
68659464226754,0.23814857,-0.68369395,9.718498
68659484081219,0.25100377,-0.73194385,9.75445
68659503937904,0.29893398,-0.6977856,9.77071
68659523792369,0.3206764,-0.6618926,9.774091
68659543646834,0.2780467,-0.6433365,9.744354
68659563501299,0.29439682,-0.6471624,9.732417
68659583348828,0.26900157,-0.6785903,9.725485
68659603203165,0.23985186,-0.6722216,9.721479
68659623057502,0.27777168,-0.64209574,9.739736
68659642911839,0.30679816,-0.6347594,9.744947
68659662766176,0.32784832,-0.6669314,9.779763
68659682620513,0.29567927,-0.70826656,9.770573
68659702480018,0.3058238,-0.7081256,9.770006
68659722334483,0.28571838,-0.6966524,9.746961
68659742188948,0.28629717,-0.6729653,9.763227
68659762043285,0.26107892,-0.6690313,9.76827
68659781897750,0.27485463,-0.6929821,9.765982
68659801755111,0.2454012,-0.7115414,9.750329
68659821609576,0.28559875,-0.6796762,9.749045
68659841464041,0.3235107,-0.68624204,9.727635
68659861318506,0.3026465,-0.7069397,9.713379
68659881172971,0.28506222,-0.69425905,9.705413
68659901027436,0.2675345,-0.6971365,9.755365
68659920885521,0.27950898,-0.69595695,9.757453
68659940739986,0.30329528,-0.71587515,9.753169
68659960594579,0.2590575,-0.7185162,9.750127
68659980449044,0.25725612,-0.6933859,9.754501
68660000300493,0.3051865,-0.6592279,9.7707615
68660020154958,0.29745373,-0.66152084,9.753217
68660040009423,0.28716734,-0.6944616,9.712686
68660059864016,0.28854528,-0.7275437,9.698747
68660079718481,0.2810281,-0.72638863,9.746703
68660099566576,0.2639768,-0.7023965,9.78149
68660119420913,0.2761779,-0.6502084,9.769944
68660139275250,0.26769358,-0.6781303,9.762947
68660159129715,0.23675865,-0.72832066,9.773661
68660178984052,0.25091928,-0.71240556,9.727411
68660198838517,0.27534562,-0.653028,9.754332
68660218692890,0.26154822,-0.6487039,9.751347
68660238547227,0.29900154,-0.66578346,9.749496
68660258401564,0.24430902,-0.6698869,9.771523
68660278255901,0.22752482,-0.6838265,9.77126
68660298114566,0.21178503,-0.657023,9.7694645
68660317969031,0.2222781,-0.6874744,9.797918
68660337823496,0.27938956,-0.67898107,9.759539
68660357677961,0.2591429,-0.6701586,9.733304
68660377532426,0.20772162,-0.70772326,9.684045
68660397383000,0.1849607,-0.7313129,9.726259
68660417237465,0.2025492,-0.71057355,9.773013
68660437091802,0.25333542,-0.6811378,9.748089
68660456946267,0.2384515,-0.6889148,9.692238
68660476800604,0.21161836,-0.6749733,9.640448
68660496655069,0.22668847,-0.68231905,9.635092
68660516511168,0.22904336,-0.70666003,9.640832
68660536365633,0.21259777,-0.73085684,9.704864
68660556219970,0.20174468,-0.7551202,9.808289
68660576074435,0.22891764,-0.7114225,9.880515
68660595925468,0.19019142,-0.6913211,9.890705
68660615779933,0.18903737,-0.7354242,9.859052
68660635634270,0.24377939,-0.7156742,9.811417
68660655488607,0.23488985,-0.7351926,9.79925
68660675342944,0.19928734,-0.7275967,9.771119
68660695197409,0.2068406,-0.6960407,9.731951
68660715050698,0.22831787,-0.6792424,9.695439
68660734905035,0.22744249,-0.7213151,9.669283
68660754759372,0.2509889,-0.73743004,9.631258
68660774613709,0.2796317,-0.70206386,9.636571
68660794468046,0.3034403,-0.6722064,9.6754675
68660814320761,0.2537795,-0.68370837,9.725017
68660834174970,0.22147378,-0.694274,9.751426
68660854029307,0.21459737,-0.73874557,9.799503
68660873883495,0.18480207,-0.75791705,9.838355
68660893740428,0.18987972,-0.7529399,9.839391
68660913594637,0.2299254,-0.73353916,9.832282
68660933448974,0.23868747,-0.7337358,9.806867
68660953303311,0.2675065,-0.6931566,9.786246
68660973157648,0.2478561,-0.67444026,9.742763
68660993011985,0.22393501,-0.6807796,9.707707
68661012865408,0.18927,-0.7004245,9.68959
68661032719745,0.22693549,-0.67958,9.67059
68661052573954,0.2971295,-0.63817984,9.692439
68661072428291,0.27121368,-0.610808,9.721209
68661092282500,0.20789519,-0.67563283,9.695142
68661112135391,0.17018002,-0.71212345,9.739748
68661131989728,0.18144976,-0.69404835,9.763806
68661151843937,0.23020513,-0.6636131,9.793921
68661171698274,0.23841435,-0.63445026,9.7963
68661191543231,0.23356864,-0.6799217,9.789339
68661211397312,0.21478437,-0.72371936,9.776205
68661231251265,0.19388878,-0.7437083,9.791951
68661251105346,0.19901226,-0.72635573,9.7665
68661270959299,0.25394937,-0.6548887,9.735233
68661290813380,0.27100867,-0.6421897,9.740113
68661310669279,0.21813826,-0.68194544,9.725128
68661330523360,0.22183353,-0.6773062,9.701314
68661350377418,0.22392862,-0.65717274,9.743859
68661370231499,0.23576912,-0.65210164,9.744517
68661390085580,0.24984881,-0.65112454,9.753878
68661409942509,0.22543767,-0.6672688,9.768381
68661429796590,0.24921669,-0.6937291,9.762341
68661449650799,0.24232712,-0.68338937,9.763044
68661469505008,0.2294852,-0.68995064,9.774467
68661489359089,0.23875862,-0.69846255,9.786531
68661509213298,0.24093835,-0.6601206,9.774347
68661529069647,0.26873454,-0.64065784,9.760533
68661548923856,0.2526334,-0.69111997,9.733029
68661568778065,0.25112793,-0.67775303,9.709385
68661588632402,0.28586772,-0.6195637,9.708048
68661608481717,0.27486667,-0.6152731,9.724759
68661628335798,0.24114265,-0.6588876,9.717532
68661648190007,0.22886516,-0.65484655,9.741706
68661668044088,0.23616737,-0.66704726,9.74793
68661687898297,0.2674573,-0.67105633,9.730085
68661707749294,0.28656858,-0.6774774,9.766967
68661727603247,0.30083242,-0.6345962,9.790059
68661747457200,0.2819466,-0.6450625,9.783404
68661767311281,0.21666485,-0.6768854,9.791162
68661787165234,0.23601903,-0.67624027,9.742985
68661807019315,0.29544386,-0.67104346,9.7756195
68661826877958,0.26147342,-0.6872483,9.770803
68661846732039,0.23757401,-0.6739606,9.741019
68661866586248,0.27989826,-0.6226711,9.75228
68661886440329,0.3027508,-0.6120776,9.738861
68661906299506,0.2540617,-0.67840683,9.731391
68661926153715,0.25515825,-0.68664134,9.748986
68661946007924,0.29130474,-0.6353656,9.740738
68661965862133,0.32204908,-0.6034724,9.752445
68661985716470,0.28499383,-0.60133857,9.757708
68662005573927,0.27065971,-0.64934415,9.792862
68662025428136,0.24315935,-0.68056977,9.778657
68662045282345,0.23246486,-0.67822903,9.769987
68662065136682,0.25945753,-0.6354172,9.747589
68662084990891,0.27992344,-0.59977347,9.758431
68662104845100,0.28090328,-0.61791027,9.741079
68662124695055,0.252567,-0.65522635,9.710384
68662144549264,0.21085398,-0.653389,9.723298
68662164403473,0.2420036,-0.62989956,9.740174
68662184257682,0.27651682,-0.6227182,9.752469
68662204114799,0.2568903,-0.6490001,9.758996
68662223969008,0.25447154,-0.6533904,9.775351
68662243823345,0.22320957,-0.6533617,9.762315
68662263677554,0.18440498,-0.67507553,9.791084
68662283531763,0.2310905,-0.64187557,9.784804
68662303385950,0.2800574,-0.6036652,9.759862
68662323246343,0.2595491,-0.6484133,9.776385
68662343100680,0.21070458,-0.73047733,9.762211
68662362955145,0.23885769,-0.66716933,9.735316
68662382809482,0.2501105,-0.5975539,9.7111225
68662402663819,0.2336741,-0.67223513,9.701972
68662422521400,0.2420512,-0.7122975,9.720516
68662442375865,0.25499555,-0.70891863,9.740527
68662462230330,0.24161519,-0.6730361,9.7832575
68662482084795,0.23968357,-0.64074314,9.787082
68662501945964,0.25405538,-0.65480006,9.767544
68662521800557,0.25416052,-0.68486047,9.761944
68662541655150,0.2623266,-0.69495094,9.753779
68662561509871,0.27857873,-0.662174,9.749198
68662581364464,0.2835261,-0.650034,9.7496805
68662601219057,0.25645983,-0.6634943,9.747676
68662621071572,0.25024334,-0.6693413,9.7564125
68662640926293,0.2577398,-0.6599739,9.741094
68662660780886,0.26818007,-0.6715963,9.712507
68662680635479,0.24405847,-0.6758973,9.735146
68662700490200,0.24615271,-0.68591267,9.739782
68662720345275,0.25558516,-0.67541826,9.759429
68662740199868,0.2402184,-0.6864582,9.754893
68662760054589,0.23711915,-0.6812039,9.761458
68662779909159,0.21105075,-0.69644505,9.746495
68662799757896,0.27305973,-0.6914584,9.734205
68662819612489,0.2788718,-0.64705914,9.758209
68662839466954,0.2480007,-0.6685185,9.74683
68662859321547,0.23504214,-0.68498164,9.723306
68662879176012,0.20935096,-0.70464635,9.744392
68662899030605,0.23658355,-0.6656376,9.755735
68662918880310,0.26518038,-0.64264673,9.787536
68662938734775,0.25967586,-0.65884686,9.776058
68662958589112,0.24142447,-0.6913335,9.805677
68662978443577,0.20770839,-0.698257,9.838117
68662998298042,0.24292032,-0.64661777,9.782825
68663018151309,0.2724901,-0.61055875,9.713748
68663038005774,0.20682651,-0.67137784,9.646667
68663057860239,0.23131117,-0.6845853,9.656566
68663077714576,0.24716125,-0.67788047,9.72946
68663097569041,0.24851564,-0.6735625,9.78519
68663117423506,0.24404842,-0.6555615,9.770419
68663137267505,0.27200004,-0.62036395,9.763308
68663157121714,0.21386415,-0.7102717,9.732676
68663176975923,0.17849717,-0.739899,9.699496
68663196830132,0.21687984,-0.66583925,9.736981
68663216681057,0.2735875,-0.5886445,9.769252
68663236535266,0.2517119,-0.590497,9.802349
68663256389323,0.19688717,-0.6854823,9.829773
68663276243404,0.2078416,-0.7322973,9.801639
68663296097485,0.26174843,-0.68848926,9.775422
68663315946616,0.24547672,-0.64284813,9.768782
68663335800569,0.19474733,-0.65009516,9.7698555
68663355654522,0.17921427,-0.6866836,9.755982
68663375508475,0.22236992,-0.66272324,9.744945
68663395362428,0.28418237,-0.6146805,9.709459
68663415216381,0.2658575,-0.6178156,9.714678
68663435075430,0.20520826,-0.6722397,9.708633
68663454929511,0.21527085,-0.71718556,9.725767
68663474783464,0.23094147,-0.6812174,9.741949
68663494637545,0.24829012,-0.6566749,9.754963
68663514487828,0.2576103,-0.62266254,9.778451
68663534341781,0.23230661,-0.6670865,9.800315
68663554195734,0.20481351,-0.69176984,9.787868
68663574049687,0.18787728,-0.7181737,9.781782
68663593903640,0.23710488,-0.6942883,9.757944
68663613753791,0.25038078,-0.6699617,9.758721
68663633607616,0.30633974,-0.6452735,9.764505
68663653461569,0.25309992,-0.64391476,9.753137
68663673315394,0.20198958,-0.65000945,9.717282
68663693169347,0.21664643,-0.6856428,9.66709
68663713023300,0.28508028,-0.6779035,9.709806
68663732877140,0.23969631,-0.6879565,9.714777
68663752730837,0.20232293,-0.7238352,9.704879
68663772584662,0.23472108,-0.6961162,9.745173
68663792438487,0.23581481,-0.6774732,9.7998
68663812290306,0.23719634,-0.7072842,9.786738
68663832144003,0.26377538,-0.7305071,9.801273
68663851997700,0.26631457,-0.71294415,9.820745
68663871851525,0.22946079,-0.6826996,9.806226
68663891705222,0.17444408,-0.6634615,9.767473
68663911559047,0.19432318,-0.6881963,9.722383
68663931423122,0.26129678,-0.68486315,9.677061
68663951277075,0.26359972,-0.660226,9.663671
68663971131028,0.24600835,-0.6540874,9.653947
68663990984981,0.23061353,-0.6611473,9.680292
68664010838934,0.21250702,-0.68771195,9.713978
68664030701505,0.2581064,-0.6742108,9.774507
68664050555586,0.22804326,-0.6855996,9.810499
68664070409795,0.19451341,-0.70764583,9.781732
68664090263876,0.2098659,-0.7096904,9.782753
68664110117103,0.22681281,-0.6734734,9.791473
68664129971312,0.25003546,-0.6738453,9.812347
68664149825393,0.25001034,-0.6967431,9.806197
68664169679602,0.23479544,-0.69531894,9.807486
68664189533811,0.22767666,-0.6713626,9.777084
68664209388000,0.19538206,-0.63436836,9.724362
68664229245057,0.16455707,-0.6434521,9.686497
68664249099266,0.18130453,-0.6923721,9.640062
68664268953603,0.2525762,-0.7057108,9.637201
68664288807812,0.29691356,-0.67937464,9.708706
68664308662021,0.26869136,-0.67991126,9.749989
68664328520180,0.18951425,-0.67080736,9.762117
68664348374517,0.16469057,-0.6850904,9.769694
68664368228854,0.20625621,-0.66597205,9.789745
68664388083319,0.18156998,-0.6808756,9.799631
68664407937692,0.17167902,-0.7018839,9.799543
68664427792157,0.20087987,-0.6323085,9.85376
68664447646494,0.3089085,-0.571393,9.8289175
68664467500831,0.26165053,-0.6518866,9.782779
68664487355296,0.19974579,-0.71708226,9.751558
68664507209633,0.23802893,-0.6667178,9.720582
68664527062860,0.24432373,-0.61905545,9.693269
68664546917325,0.21008928,-0.62420607,9.686471
68664566771662,0.2261679,-0.62351966,9.670794
68664586625999,0.2616438,-0.62068206,9.699254
68664606480336,0.25422084,-0.65940076,9.738974
68664626339137,0.21460211,-0.6675785,9.756523
68664646193602,0.19443363,-0.6546877,9.793481
68664666048067,0.21400322,-0.6505945,9.810803
68664685902638,0.269662,-0.6475634,9.80582
68664705757103,0.26179528,-0.64596486,9.786845
68664725611568,0.19570635,-0.65770954,9.785142
68664745466307,0.20050889,-0.65149146,9.781558
68664765320772,0.22374877,-0.66565675,9.768915
68664785175237,0.2781238,-0.6694171,9.769635
68664805029702,0.3057897,-0.6427918,9.755269
68664824883113,0.24829736,-0.65013283,9.756721
68664844737450,0.19958791,-0.66819286,9.700119
68664864591915,0.21336369,-0.6921436,9.697832
68664884446380,0.25217605,-0.63373846,9.708729
68664904300845,0.26060638,-0.6548831,9.702546
68664924155482,0.25739652,-0.7208842,9.71978
68664944009819,0.24323222,-0.7400703,9.765151
68664963864284,0.31579664,-0.6420306,9.752394
68664983718749,0.27820212,-0.6276013,9.751057
68665003573214,0.20066278,-0.6960542,9.712441
68665023427679,0.2624956,-0.6962804,9.726087
68665043279608,0.29612416,-0.6806879,9.785408
68665063134073,0.28229886,-0.6723838,9.813302
68665082988538,0.24171032,-0.68276083,9.812931
68665102843003,0.2542629,-0.68804324,9.793377
68665122688044,0.2745689,-0.7015544,9.758727
68665142542253,0.2770445,-0.6749758,9.718525
68665162396570,0.2871261,-0.63567007,9.696193
68665182250779,0.27091426,-0.60231614,9.748348
68665202105116,0.30542752,-0.59513503,9.760643
68665221954243,0.30786428,-0.5743895,9.748683
68665241808324,0.23015952,-0.63824177,9.738639
68665261662405,0.19799772,-0.67303467,9.731205
68665281516486,0.25058943,-0.63530916,9.740694
68665301370567,0.27693298,-0.6213087,9.760277
68665321224776,0.2754839,-0.62349975,9.79455
68665341075315,0.21965535,-0.65535045,9.789317
68665360929396,0.2375749,-0.643812,9.77893
68665380783349,0.27308217,-0.6416831,9.777388
68665400637430,0.2499935,-0.64520264,9.757944
68665420488373,0.26963073,-0.6091074,9.754052
68665440342326,0.26524428,-0.6139157,9.765442
68665460196151,0.24721237,-0.6019359,9.779671
68665480050104,0.23942648,-0.62314665,9.786856
68665499903929,0.24026157,-0.64720494,9.765438
68665519757882,0.27579406,-0.6221783,9.770046
68665539619795,0.23562886,-0.6246034,9.779239
68665559473876,0.25594217,-0.63157296,9.746347
68665579327957,0.24025075,-0.6570183,9.762801
68665599181910,0.24500059,-0.631971,9.702179
68665619035991,0.28579053,-0.59348315,9.682766
68665638887400,0.25892824,-0.64345765,9.705716
68665658741481,0.27817258,-0.6839193,9.706118
68665678595562,0.34767178,-0.64595884,9.714663
68665698449515,0.30806392,-0.6443237,9.734849
68665718299548,0.21193337,-0.64783,9.774409
68665738153501,0.18916245,-0.65108436,9.851896
68665758007454,0.25953594,-0.638947,9.930458
68665777861407,0.32179126,-0.6613701,9.915757
68665797715232,0.30318734,-0.658937,9.795799
68665817569185,0.25975335,-0.6471803,9.71957
68665837422792,0.21976475,-0.6066458,9.621059
68665857276617,0.2405078,-0.6292697,9.561581
68665877130570,0.30284867,-0.60333514,9.53006
68665896984523,0.31533876,-0.5770508,9.608417
68665916838348,0.26963353,-0.6359853,9.717022
68665936694513,0.26426336,-0.6636752,9.826653
68665956548466,0.2774404,-0.6706417,9.878647
68665976402291,0.2494966,-0.6691482,9.925425
68665996256244,0.22988455,-0.68234575,9.935466
68666016114665,0.214874,-0.67968875,9.879941
68666035968746,0.20354867,-0.65205693,9.835874
68666055822699,0.26045612,-0.60704935,9.772541
68666075676780,0.32799774,-0.58984274,9.740848
68666095530733,0.32325467,-0.6007496,9.683552
68666115384792,0.2746863,-0.6161589,9.630137
68666135238135,0.23811485,-0.5806133,9.621994
68666155092088,0.24386926,-0.5885516,9.631938
68666174946169,0.25529695,-0.6193662,9.7074375
68666194800122,0.24213037,-0.64033324,9.739847
68666214654075,0.26068074,-0.6540856,9.764856
68666234515728,0.2825494,-0.6663734,9.849679
68666254369809,0.30537036,-0.65507066,9.866261
68666274224018,0.29518116,-0.59969157,9.849455
68666294078099,0.2608723,-0.6056396,9.780347
68666313932308,0.2663264,-0.63523495,9.779522
68666333786389,0.29502487,-0.6455754,9.804843
68666353638798,0.25758153,-0.6488314,9.771421
68666373492879,0.20409465,-0.65021175,9.724554
68666393347088,0.25315666,-0.6217261,9.729286
68666413201297,0.32141742,-0.60833055,9.67914
68666433061694,0.3028346,-0.6240175,9.646222
68666452915903,0.26896667,-0.6434054,9.672839
68666472770240,0.23839313,-0.6163301,9.70926
68666492624577,0.25794566,-0.59844327,9.760097
68666512478914,0.28491634,-0.61300534,9.814197
68666532340717,0.26923582,-0.62863755,9.833286
68666552195182,0.26169622,-0.67725813,9.83806
68666572049647,0.22665103,-0.66560185,9.820923
68666591904220,0.22234567,-0.6554723,9.776704
68666611758685,0.22506107,-0.63269633,9.770242
68666631613150,0.20834076,-0.6179054,9.747886
68666651469505,0.27347788,-0.59200424,9.736062
68666671324098,0.30492693,-0.5770068,9.7258
68666691178563,0.25485995,-0.6102538,9.732267
68666711033156,0.22075218,-0.62583816,9.7251425
68666730884403,0.22893983,-0.6163019,9.72225
68666750738868,0.28417954,-0.5878028,9.74649
68666770593333,0.28696862,-0.5943783,9.76443
68666790447798,0.24812296,-0.55730087,9.776706
68666810302263,0.25298834,-0.59024775,9.7948885
68666830151834,0.31037804,-0.6174713,9.843773
68666850006171,0.3110916,-0.5675267,9.899379
68666869860636,0.25650814,-0.56067234,9.834918
68666889714973,0.15014967,-0.6697044,9.816925
68666909569438,0.22351968,-0.6520405,9.737811
68666929423775,0.34379172,-0.5298326,9.674058
68666949278410,0.27677536,-0.5346721,9.627068
68666969132747,0.23934081,-0.6261593,9.602231
68666988987084,0.25615996,-0.6474043,9.655138
68667008841549,0.27398124,-0.6370103,9.733876
68667028691424,0.3039712,-0.60386837,9.793161
68667048545633,0.27098146,-0.60806084,9.808903
68667068399949,0.21020561,-0.6520512,9.803186
68667088254286,0.16759916,-0.70864224,9.785551
68667108108495,0.19680922,-0.6895507,9.766583
68667127962832,0.28521934,-0.6182262,9.787934
68667147810347,0.31203574,-0.5806273,9.791472
68667167664684,0.2618628,-0.6139627,9.765631
68667187518893,0.23545177,-0.65996534,9.767264
68667207373102,0.22815955,-0.6680997,9.725767
68667227227311,0.24752893,-0.6242213,9.719015
68667247077082,0.24244413,-0.6357407,9.716223
68667266931163,0.2352155,-0.65289134,9.734402
68667286785244,0.25707385,-0.6372453,9.734819
68667306639325,0.25679517,-0.6392756,9.729322
68667326484818,0.22645344,-0.6526941,9.759816
68667346338771,0.23390032,-0.65897363,9.770106
68667366192596,0.2662312,-0.62551,9.749847
68667386046549,0.25280777,-0.62888056,9.782035
68667405900374,0.20105898,-0.6539734,9.790795
68667425754327,0.16201818,-0.6686131,9.786701
68667445607428,0.19545572,-0.66371965,9.748765
68667465461125,0.25053635,-0.6542266,9.765423
68667485314950,0.2690203,-0.6320857,9.767788
68667505168775,0.24524401,-0.6325031,9.736797
68667525022600,0.18625942,-0.68128806,9.76198
68667544883357,0.20105457,-0.6873931,9.752006
68667564737310,0.28093567,-0.58847034,9.748988
68667584591263,0.25141934,-0.5678648,9.711569
68667604445088,0.20525065,-0.66313535,9.681269
68667624296463,0.20011993,-0.6870302,9.704963
68667644150416,0.2145805,-0.68720526,9.751251
68667664004241,0.23869212,-0.66256887,9.763887
68667683858194,0.2704135,-0.62193465,9.795274
68667703712019,0.2370004,-0.63407916,9.801452
68667723565844,0.19172883,-0.66765034,9.80258
68667743420535,0.18116385,-0.70262074,9.756552
68667763274360,0.21062818,-0.67424816,9.77484
68667783128313,0.23152101,-0.6273816,9.796125
68667802982138,0.22734246,-0.6276857,9.751578
68667822835963,0.22948633,-0.62205493,9.730608
68667842688078,0.20652428,-0.6360082,9.710837
68667862541903,0.2344472,-0.62697953,9.696697
68667882395728,0.21892571,-0.6236057,9.723368
68667902249553,0.22652459,-0.61742103,9.739482
68667922103378,0.20190844,-0.66494685,9.772891
68667941957331,0.17830087,-0.7044407,9.795978
68667961806328,0.23373125,-0.6576443,9.797798
68667981659897,0.2567428,-0.62804425,9.791961
68668001513594,0.22160843,-0.6680166,9.790765
68668021367268,0.19502765,-0.7428387,9.782181
68668041233869,0.25004184,-0.697452,9.7761965
68668061087822,0.27284595,-0.6346091,9.744525
68668080941775,0.21441174,-0.64812905,9.697176
68668100795728,0.21391451,-0.6644762,9.744977
68668120649681,0.24868472,-0.6748918,9.757497
68668140509686,0.25447422,-0.68026793,9.738318
68668160363767,0.20742573,-0.6959603,9.712064
68668180217848,0.23736894,-0.7053424,9.759925
68668200072057,0.25870606,-0.6610461,9.758137
68668219926138,0.21716201,-0.6605378,9.743359
68668239780219,0.21584979,-0.693498,9.742032
68668259636318,0.24582091,-0.7068605,9.759014
68668279490527,0.2637018,-0.70115554,9.776872
68668299344736,0.21505229,-0.7315025,9.779066
68668319198945,0.23195249,-0.7378099,9.776365
68668339058000,0.25938278,-0.6739615,9.767046
68668358912337,0.24920355,-0.6389178,9.714967
68668378766674,0.20433378,-0.68416387,9.7203865
68668398621011,0.17231666,-0.713035,9.717019
68668418475220,0.22147098,-0.66739625,9.788456
68668438328709,0.25137573,-0.64486486,9.782792
68668458183046,0.29148823,-0.6236105,9.716561
68668478037383,0.25711617,-0.6281409,9.707456
68668497891699,0.14951017,-0.7112532,9.703952
68668517745908,0.13340624,-0.7348375,9.713478
68668537600245,0.20499691,-0.6800148,9.763691
68668557464992,0.27939743,-0.64228994,9.799205
68668577319585,0.24310338,-0.67261004,9.840416
68668597174178,0.20913316,-0.68881476,9.835601
68668617028771,0.21831422,-0.7144796,9.780962
68668636885876,0.23513438,-0.6678287,9.79001
68668656740469,0.18574898,-0.64282423,9.762409
68668676595190,0.21028681,-0.6371138,9.747578
68668696449783,0.18859044,-0.66063106,9.71771
68668716304504,0.23155828,-0.68184614,9.692063
68668736159097,0.24340603,-0.67023283,9.694478
68668756013200,0.24761617,-0.67063737,9.7090225
68668775867793,0.24381496,-0.67536527,9.700527
68668795722386,0.19355375,-0.7301802,9.728536
68668815576979,0.19811326,-0.73102844,9.810011
68668835431572,0.23886168,-0.6714963,9.855872
68668855280577,0.22625996,-0.64411384,9.819269
68668875135042,0.18239795,-0.71147615,9.776456
68668894989635,0.19816566,-0.7422597,9.747374
68668914844100,0.25094804,-0.6862368,9.734441
68668934690165,0.17218342,-0.67899436,9.753499
68668954544502,0.16120677,-0.68195504,9.738452
68668974398690,0.22290574,-0.6782896,9.750668
68668994253027,0.23843074,-0.67839247,9.724874
68669014107364,0.19403018,-0.7033107,9.71337
68669033961701,0.19344416,-0.7335402,9.695347
68669053809096,0.23755608,-0.69031614,9.736627
68669073663177,0.2392458,-0.66177964,9.774003
68669093517386,0.19638586,-0.69750273,9.75702
68669113371595,0.15731643,-0.7383115,9.745898
68669133225804,0.16480213,-0.7387573,9.727943
68669153074545,0.2406274,-0.69159067,9.760942
68669172928626,0.24906202,-0.6793154,9.793547
68669192782707,0.192528,-0.72441953,9.772375
68669212636916,0.17979841,-0.75449896,9.779956
68669232491619,0.17953698,-0.77032256,9.740942
68669252345700,0.26473105,-0.7036453,9.7339115
68669272199781,0.24641699,-0.69696695,9.741765
68669292053862,0.2034167,-0.70519185,9.759503
68669311907943,0.17367737,-0.7323237,9.736597
68669331762024,0.18062022,-0.72374594,9.711163
68669351610645,0.23649111,-0.6827906,9.689032
68669371464598,0.25056353,-0.6883558,9.696635
68669391318551,0.22559161,-0.7118317,9.6992655
68669411172632,0.19616568,-0.7721177,9.734501
68669431026585,0.21078183,-0.7565579,9.787493
68669450875800,0.23142362,-0.75344837,9.854169
68669470729625,0.24327855,-0.7352928,9.858341
68669490583450,0.22789866,-0.69152147,9.806433
68669510437147,0.21141651,-0.74083084,9.742
68669530290972,0.22510795,-0.7452435,9.712673
68669550144797,0.23219624,-0.7005951,9.729217
68669570001492,0.20133963,-0.70896983,9.721352
68669589855189,0.22617759,-0.68160224,9.717289
68669609709014,0.25408614,-0.68565804,9.699635
68669629562839,0.23475903,-0.7204318,9.679021
68669649421826,0.22882825,-0.7177062,9.69501
68669669275779,0.21737233,-0.7206587,9.732161
68669689129732,0.25330028,-0.68369997,9.777212
68669708983685,0.23240532,-0.6735401,9.830867
68669728837510,0.19071314,-0.68222487,9.811145
68669748690537,0.21801473,-0.7059875,9.808102
68669768544490,0.20209429,-0.71781665,9.793451
68669788398315,0.21426669,-0.6917978,9.774878
68669808252268,0.23348422,-0.66038334,9.7623005
68669828106221,0.22149895,-0.67137635,9.757577
68669847960046,0.1964355,-0.68185633,9.731412
68669867811087,0.18532477,-0.68092513,9.714934
68669887664912,0.2181806,-0.6728411,9.697763
68669907518737,0.25100127,-0.6673193,9.709712
68669927372539,-0.62081426,-0.36191642,9.727218
68669947227486,-0.6342296,-0.3403171,9.753594
68669967081311,-0.64308846,-0.3326137,9.767137
68669986935136,-0.6251768,-0.3321377,9.766723
68670006788961,-0.6348064,-0.30962703,9.79167
68670026642786,-0.6451411,-0.33081692,9.818988
68670046504071,-0.6405494,-0.3852351,9.816521
68670066358024,-0.6505799,-0.37002262,9.815706
68670086211977,-0.6424692,-0.34192774,9.81096
68670106065930,-0.6295538,-0.3252808,9.751488
68670125919883,-0.57228845,-0.35024187,9.67862
68670145773836,-0.6192726,-0.3544852,9.663853
68670165635695,-0.6233045,-0.37428463,9.660618
68670185489776,-0.6233645,-0.33831328,9.699416
68670205343985,-0.6747112,-0.31277794,9.724154
68670225198194,-0.6614065,-0.354897,9.752581
68670245060827,-0.6194769,-0.38904285,9.781643
68670264915164,-0.6182606,-0.35457036,9.790785
68670284769629,-0.6539061,-0.3090755,9.769543
68670304623966,-0.6544454,-0.3353478,9.771429
68670324478303,-0.6024104,-0.36071002,9.77669
68670344332768,-0.5723153,-0.3383529,9.774342
68670364194251,-0.5746998,-0.33436707,9.78661
68670384048844,-0.5850343,-0.31851125,9.773371
68670403903416,-0.5968161,-0.29142645,9.755112
68670423758009,-0.59179896,-0.2988599,9.745843
68670443612602,-0.62241167,-0.2575293,9.706647
68670463466159,-0.6131329,-0.26990727,9.703032
68670483320752,-0.6196288,-0.27268067,9.708546
68670503175473,-0.6145984,-0.28222892,9.70655
68670523030066,-0.6463345,-0.27080807,9.741477
68670542885733,-0.6640076,-0.29534993,9.776964
68670562740454,-0.6293587,-0.34306955,9.816661
68670582595047,-0.5944859,-0.3153332,9.82072
68670602449768,-0.6170721,-0.2694814,9.808853
68670622304361,-0.6588022,-0.24367142,9.810123
68670642159082,-0.6235733,-0.25543314,9.788499
68670662009933,-0.57455313,-0.3129645,9.759062
68670681864526,-0.59761184,-0.3082551,9.718669
68670701719119,-0.63758695,-0.30491468,9.728389
68670721573712,-0.657467,-0.33553746,9.715576
68670741428305,-0.6046523,-0.3306424,9.707439
68670761283386,-0.5852829,-0.30915615,9.699455
68670781137851,-0.6268894,-0.31333375,9.718033
68670800992444,-0.6688057,-0.29531237,9.735969
68670820847037,-0.7000704,-0.26841086,9.769876
68670840694694,-0.6910716,-0.30530268,9.776484
68670860549159,-0.65511453,-0.32119033,9.799406
68670880403600,-0.29373989,-0.22365744,9.829525
68670900258065,-0.30759344,-0.24656866,9.8291235
68670920112530,-0.31301394,-0.24107064,9.830993
68670939966995,-0.29089433,-0.20237833,9.802784
68670959815616,-0.2724817,-0.18169297,9.80147
68670979669953,-0.28360996,-0.1826391,9.79653
68670999524290,-0.25962883,-0.23745935,9.754169
68671019378499,-0.22887231,-0.24918847,9.690618
68671039232836,-0.269816,-0.18854971,9.700408
68671059086035,-0.31092775,-0.14053941,9.679322
68671078940372,-0.26688236,-0.2077699,9.753212
68671098794581,-0.25301158,-0.22097263,9.8139
68671118648918,-0.27191737,-0.21386808,9.81797
68671138503127,-0.32351246,-0.18640344,9.802373
68671158357336,-0.35483804,-0.18014449,9.754467
68671178201335,-0.2952453,-0.21040134,9.724717
68671198055416,-0.3159291,-0.18792902,9.727529
68671217909497,-0.32162473,-0.1788659,9.764167
68671237763578,-0.28496328,-0.19212933,9.842034
68671257617501,-0.2554476,-0.19189687,9.853296
68671277471582,-0.29405102,-0.21789975,9.854667
68671297325663,-0.30607355,-0.18389784,9.7719
68671317179744,-0.32068276,-0.16956258,9.757941
68671337033825,-0.29418162,-0.16268542,9.722473
68671356877937,-0.18567502,-0.24904938,9.68943
68671376731762,-0.2223107,-0.25749314,9.728091
68671396585715,-0.2685786,-0.2614761,9.73605
68671416439540,-0.2347132,-0.32085332,9.780689
68671436293365,-0.2798553,-0.28756896,9.843402
68671456147190,-0.29317504,-0.2535916,9.862979
68671476000095,-0.24150133,-0.2256073,9.842241
68671495853920,-0.21923344,-0.22542238,9.792314
68671515707617,-0.2474511,-0.23070112,9.739497
68671535561442,-0.27898175,-0.25106627,9.765111
68671555415815,-0.203268,-0.29143193,9.761276
68671575269512,-0.18660884,-0.254931,9.794233
68671595123209,-0.2530742,-0.23001829,9.782833
68671614976906,-0.24131477,-0.2518945,9.769615
68671634830603,-0.2047616,-0.24437542,9.748031
68671654685166,-0.25670484,-0.19528611,9.732972
68671674538863,-0.31236702,-0.20382138,9.740973
68671694392560,-0.2768782,-0.23036397,9.748777
68671714246257,-0.19017373,-0.27078202,9.739619
68671734099954,-0.19300736,-0.2721453,9.7758045
68671753953779,-0.22014578,-0.23358488,9.795897
68671773811230,-0.26116472,-0.21950312,9.795118
68671793665055,-0.30778804,-0.22289422,9.788328
68671813518880,-0.22244786,-0.24775875,9.793439
68671833372556,-0.31670287,-0.078655705,9.783586
68671853223729,-0.3416932,9.5215667E-4,9.787934
68671873077426,-0.3446761,0.018092366,9.786781
68671892931251,-0.33580154,-0.04736909,9.785676
68671912784948,-0.3319594,-0.05447091,9.759701
68671932638645,-0.336757,-0.02162787,9.742946
68671952492470,-0.3568047,-0.016884891,9.711081
68671972354253,-0.34204465,-0.041452028,9.675816
68671992208206,-0.2985928,-0.046401408,9.663942
68672012062031,-0.34446815,0.015021367,9.705728
68672031915984,-0.3710442,-0.010623101,9.786316
68672051769937,-0.38379556,-0.042185154,9.892429
68672071630460,-0.38710198,0.02293721,9.968647
68672091484413,-0.37201265,0.01673312,10.026456
68672111338494,-0.3928454,-0.011452451,10.049409
68672131192447,-0.39092493,-0.016023163,9.951573
68672151052770,-0.33441097,-0.043615308,9.808042
68672170906979,-0.3136618,-0.010358277,9.686529
68672190761060,-0.28221208,-0.04624468,9.589034
68672210615269,-0.2523093,-0.05588354,9.512622
68672230469478,-0.28333774,-0.07262603,9.518131
68672250323687,-0.3061239,-0.05844108,9.5641
68672270182602,-0.32217342,-0.046032716,9.6707325
68672290036939,-0.30555832,-0.026624324,9.811859
68672309891256,-0.22368181,0.24393246,9.918445
68672329745465,-0.2217698,0.33416158,9.970317
68672349599802,-0.22237787,0.34209058,9.988394
68672369458845,-0.20763092,0.28196904,9.940378
68672389313310,-0.2244005,0.21763173,9.896323
68672409167775,-0.2024187,0.23216504,9.820248
68672429022368,-0.22850014,0.22933549,9.714
68672448873999,-0.2679093,0.183809,9.638722
68672468728464,-0.24894631,0.15820192,9.5871315
68672488582929,-0.2456045,0.13761787,9.5816765
68672508437266,-0.19226968,0.22590685,9.648187
68672528291731,-0.2115191,0.25675914,9.698735
68672548146196,-0.2409631,0.24397485,9.763638
68672568005311,-0.22965202,0.28485665,9.850797
68672587859904,-0.22302441,0.3094001,9.878965
68672607714369,-0.21376559,0.2963336,9.909756
68672627568962,-0.2013638,0.27433297,9.883652
68672647423555,-0.20999658,0.28075117,9.824702
68672667275054,-0.2554129,0.23857224,9.834059
68672687129647,-0.24248473,0.26955426,9.832327
68672706984240,-0.24467684,0.24613015,9.7479725
68672726838833,-0.21042566,0.23193495,9.733141
68672746693298,-0.19711378,0.26183778,9.665262
68672766547891,-0.19954328,0.27052832,9.6436
68672786396097,-0.16080347,0.2638501,9.679235
68672806250562,-0.20677586,0.24394475,9.703716
68672826104899,-0.20757988,0.25293133,9.782853
68672845959364,-0.18879081,0.27336025,9.812255
68672865813805,-0.17771569,0.27176905,9.835742
68672885668270,-0.16144234,0.29988003,9.885411
68672905522607,-0.12751283,0.32155833,9.854519
68672925377072,-0.13399945,0.29170656,9.820876
68672945231537,-0.15910389,0.2672923,9.794182
68672965079382,-0.14966145,0.2692796,9.772525
68672984933591,-0.17950185,0.24638215,9.732782
68673004787800,-0.19193085,0.2590413,9.697006
68673024642009,-0.18806575,0.25949085,9.719392
68673044496218,-0.16664018,0.26996204,9.7339325
68673064350555,-0.1593274,0.26874492,9.761906
68673084190532,-0.11252001,0.29288158,9.771019
68673104044485,-0.13837907,0.28735742,9.789433
68673123898438,-0.16974807,0.2871002,9.7963915
68673143752519,-0.15636149,0.29441926,9.810845
68673163600054,-0.15222932,0.30428025,9.796865
68673183453879,-0.16781361,0.34219667,9.797257
68673203307704,-0.16668782,0.35178033,9.807633
68673223161529,-0.18122128,0.30171525,9.799617
68673243015354,-0.18032204,0.2764902,9.773062
68673262869701,-0.047863882,0.3056102,9.766613
68673282723526,-0.03637567,0.33740923,9.722534
68673302577223,-0.039281048,0.33989826,9.753894
68673322431048,-9.1308734E-4,0.35855508,9.766943
68673342284873,-0.017027207,0.3345816,9.769914
68673362138570,-0.04825877,0.30466083,9.801222
68673381989043,-0.031124115,0.31343597,9.779614
68673401842868,-0.00948187,0.35404268,9.745837
68673421696565,-0.022680506,0.35813862,9.749777
68673441550262,-0.09203516,0.3222403,9.784796
68673461397151,-0.07508154,0.2829448,9.818385
68673481250592,-0.009982865,0.29915753,9.80996
68673501104033,-0.015350353,0.33219475,9.792575
68673520957602,-0.063613884,0.3163431,9.781312
68673540811043,-0.07678865,0.2872154,9.741249
68673560664484,-0.052156802,0.2883418,9.741064
68673580519361,0.0050294544,0.31285346,9.75283
68673600372802,-0.02049724,0.31757692,9.79344
68673620226243,-0.060470503,0.32706693,9.769046
68673640079812,-0.07946263,0.30344963,9.794037
68673659933253,-0.04385003,0.31286526,9.787078
68673679791594,3.2524713E-5,0.34922156,9.77399
68673699645163,-0.01159456,0.3586792,9.771796
68673719498732,-0.028667822,0.3451054,9.77239
68673739352279,-0.029567001,0.3060097,9.78781
68673759216192,-0.006175359,0.2990779,9.810562
68673779070017,0.034053985,0.30520612,9.800314
68673798923714,0.029181447,0.31561527,9.771179
68673818777539,0.023818975,0.34489548,9.66913
68673838631236,-0.0018263081,0.355755,9.682419
68673858485061,0.0017128704,0.3376279,9.740323
68673878342824,-0.039617803,0.30328646,9.781431
68673898196649,0.0094157485,0.32438302,9.826447
68673918050602,0.021585193,0.3515661,9.819948
68673937904427,-0.014223791,0.34450454,9.842511
68673957758252,0.042317566,0.32913095,9.836422
68673977611809,0.06444414,0.3122568,9.775501
68673997465634,0.048867274,0.31370172,9.736489
68674017319459,0.012311701,0.33132696,9.702041
68674037173412,-0.009595978,0.35177988,9.69096
68674057025171,-0.03718317,0.3392176,9.721802
68674076878996,-0.014691508,0.31978965,9.762091
68674096732821,0.0019044729,0.2951477,9.801309
68674116586646,0.04623369,0.3203182,9.79895
68674136440471,0.073527835,0.3555324,9.814647
68674156294296,0.0832946,0.36139622,9.785969
68674176154241,0.044058062,0.3368357,9.83219
68674196008194,0.0026463976,0.30190808,9.807144
68674215862252,0.027117094,0.31046218,9.776826
68674235716205,0.08461806,0.35862267,9.733968
68674255570286,0.091974966,0.35180622,9.713025
68674275433671,0.012159922,0.28756148,9.716305
68674295287880,0.008856037,0.29756802,9.75845
68674315142089,0.028645527,0.3376821,9.780556
68674334996298,0.02359047,0.3194354,9.814301
68674354850507,0.018201536,0.30588242,9.795454
68674374704588,0.05471811,0.28201476,9.779348
68674394561855,0.08384776,0.2828687,9.770405
68674414416192,0.0473161,0.31672955,9.772022
68674434270401,-0.0132148275,0.32426128,9.775697
68674454124738,0.007637287,0.34570315,9.755228
68674473987573,0.018393965,0.3206581,9.816732
68674493842038,0.0021367525,0.32122684,9.810015
68674513696631,-0.016524592,0.28044897,9.795367
68674533551096,0.06687731,0.30199176,9.766984
68674553405689,0.06430771,0.35183868,9.736437
68674573254620,0.020190582,0.33766383,9.731852
68674593109085,0.014994166,0.33680546,9.749478
68674612963550,0.038734592,0.31578106,9.782464
68674632818143,0.042038392,0.2995306,9.785901
68674652672608,0.00601228,0.3017292,9.809231
68674672527073,0.03511151,0.31216276,9.8472805
68674692373226,-0.19689833,0.25230485,9.807852
68674712227435,-0.20598227,0.21595643,9.809125
68674732081772,-0.15649787,0.24354438,9.79195
68674751935981,-0.16791022,0.22440568,9.745358
68674771790866,-0.17931,0.22362907,9.731973
68674791645075,-0.1796825,0.2466443,9.7151
68674811499284,-0.17935719,0.23627846,9.763846
68674831353621,-0.16121532,0.26176575,9.782913
68674851207830,-0.2298413,0.20558688,9.815904
68674871063235,-0.18713696,0.21598198,9.786647
68674890917572,-0.17237364,0.24473049,9.753122
68674910771781,-0.12916139,0.295878,9.760064
68674930626118,-0.14278923,0.29745546,9.775434
68674950480455,-0.19481032,0.22529405,9.7815
68674970334792,-0.21663295,0.20312883,9.81294
68674990179645,-0.20733324,0.21255367,9.819471
68675010033726,-0.1942008,0.22513095,9.8037
68675029887807,-0.15186869,0.25854138,9.75757
68675049741888,-0.17604099,0.24035491,9.746217
68675069585485,-0.1965629,0.21074781,9.727701
68675089439438,-0.21110575,0.18905471,9.752486
68675109293263,-0.15994474,0.24622446,9.776303
68675129147088,-0.15960585,0.26470616,9.770229
68675149001041,-0.16619115,0.24390401,9.773616
68675168854844,-0.29803655,0.14006595,9.764094
68675188706637,-0.3243009,0.06545511,9.773139
68675208560462,-0.32897282,0.056053266,9.841838
68675228414287,-0.30224916,0.105765976,9.847535
68675248267984,-0.2887927,0.08127617,9.832993
68675268121809,-0.27424708,0.096680716,9.785407
68675287975860,-0.29385105,0.08823792,9.752694
68675307829557,-0.30311623,0.11475881,9.718789
68675327683382,-0.28508937,0.11390035,9.715221
68675347537079,-0.3139366,0.08001696,9.722315
68675367395556,-0.3072502,0.041552804,9.739633
68675387249381,-0.2743728,0.026449619,9.745397
68675407103334,-0.2832338,0.054169048,9.721284
68675426957159,-0.28460583,0.10608548,9.7308
68675446811112,-0.28206825,0.13012825,9.726581
68675466664937,-0.26471582,0.091762066,9.714161
68675486523340,-0.27664927,0.11416499,9.709569
68675506377293,-0.3370079,0.10373223,9.698109
68675526231246,-0.3378896,0.05008482,9.67601
68675546085199,-0.3059225,0.0169215,9.673479
68675565939152,-0.28714526,0.05974292,9.648721
68675585790721,-0.28561115,0.08873665,9.64628
68675605644546,-0.27873123,0.05051707,9.624317
68675625498499,-0.2874185,0.038619466,9.613832
68675645352302,-0.27562475,-0.049089186,9.624158
68675665205981,-0.27521905,-0.016589507,9.641066
68675685059806,-0.28939068,-0.030001542,9.638009
68675704913631,-0.2994625,-0.07033166,9.621458
68675724767456,-0.31107056,-0.03658485,9.613525
68675744621281,-0.29269916,-0.03736981,9.595594
68675764475106,-0.25062588,-0.07283552,9.5711565
68675784328713,-0.2509754,-0.05977418,9.526719
68675804182538,-0.30985844,-0.017627185,9.483418
68675824036363,-0.3155822,-0.03383012,9.487223
68675843890060,-0.3032919,-0.05771483,9.505017
68675863743885,-0.27647525,-0.0036344721,9.537484
68675883603314,-0.2637999,-0.0074276724,9.5404
68675903457267,-0.2836015,-0.025107576,9.548396
68675923311220,-0.29719645,-0.022993091,9.5158205
68675943165301,-0.30052355,-0.013548384,9.456016
68675963019254,-0.27495793,-0.07094771,9.435459
68675982873207,-0.2644163,-0.028598739,9.444725
68676002731030,-0.26118815,-0.0315929,9.450403
68676022585111,-0.2792427,-0.038678348,9.44885
68676042439192,-0.28564644,-0.035522185,9.457185
68676062293273,-0.28258106,-0.001584921,9.43293
68676082147580,-0.26868296,-0.023191694,9.39949
68676102001789,-0.2546253,-0.034122955,9.363507
68676121855846,-0.1673262,-0.20020881,9.332675
68676141710055,-0.20875698,-0.1936218,9.333718
68676161564136,-0.16368689,-0.23375419,9.326111
68676181418003,-0.17223114,-0.21634665,9.344263
68676201272084,-0.19461572,-0.21546726,9.340467
68676221126165,-0.21432808,-0.18544367,9.341266
68676240980246,-0.18563813,-0.24784347,9.357097
68676260834455,-0.15950294,-0.27477264,9.355407
68676280688536,-0.13417237,-0.23837303,9.32326
68676300544635,-0.18468957,-0.18786536,9.301922
68676320398716,-0.26184928,-0.17380181,9.238848
68676340252797,-0.18364184,-0.2299279,9.163584
68676360107006,-0.1544274,-0.24642187,9.16882
68676379965537,-0.21634129,-0.190823,9.256681
68676399819874,-0.16642505,-0.21483213,9.301304
68676419674083,-0.09768186,-0.23579697,9.221995
68676439528420,-0.1730966,-0.18170616,9.162435
68676459382629,-0.2609721,-0.17312564,9.170356
68676479242268,-0.27197474,-0.2460307,9.204756
68676499096733,-0.18807031,-0.27946424,9.300641
68676518951198,-0.14903755,-0.24247508,9.369176
68676538805663,-0.21201053,-0.19469523,9.293717
68676558660000,-0.24279049,-0.18480772,9.196437
68676578514465,-0.24818102,-0.19345732,9.108344
68676598368830,-0.07292409,-0.3033446,9.041076
68676618223295,-0.07401092,-0.30952293,9.08386
68676638077632,0.017906345,-0.28526336,9.181133
68676657932097,0.028071271,-0.28707382,9.267332
68676677787684,-0.012115867,-0.29167658,9.302918
68676697642021,-0.059217926,-0.30325904,9.326728
68676717496486,-0.075077,-0.29206297,9.313328
68676737350823,-2.2795382E-4,-0.2606505,9.224445
68676757205288,-0.11063584,-0.2559188,9.186128
68676777059625,-0.16422528,-0.28693336,9.134169
68676796916342,-0.0497675,-0.31730103,9.103463
68676816770679,0.041594785,-0.33478016,9.118141
68676836625144,0.05939215,-0.31637332,9.162545
68676856479609,0.016419208,-0.30101463,9.182573
68676876334074,-0.054054614,-0.29374728,9.221114
68676896189667,-0.08448536,-0.28505796,9.252833
68676916044132,-0.044738937,-0.26532215,9.254816
68676935898597,-0.01278129,-0.23197132,9.254276
68676955753062,-0.057586424,-0.2499954,9.2498665
68676975602833,-0.07193626,-0.3013992,9.198641
68676995457170,-0.05214936,-0.3344367,9.200272
68677015311635,-0.03217464,-0.35034254,9.230123
68677035165972,0.019820426,-0.3162962,9.162354
68677055020309,0.036326274,-0.2718488,9.123878
68677074874754,0.06856234,-0.23665853,9.11663
68677094722081,0.02362937,-0.29941165,9.1494255
68677114576290,0.0018499418,-0.3682717,9.185644
68677134430627,0.025771597,-0.372201,9.194458
68677154284964,0.064894125,-0.32472843,9.212266
68677174139173,0.1035465,-0.2573456,9.205085
68677193985744,0.08319731,-0.24833444,9.209662
68677213839953,0.02297536,-0.3073526,9.233557
68677233694034,0.04182995,-0.3049583,9.187363
68677253548243,0.08308921,-0.26042634,9.160318
68677273402246,0.039955966,-0.22636497,9.155902
68677293256327,0.05152344,-0.24622536,9.161208
68677313110536,0.064954355,-0.27535465,9.174245
68677332964617,0.078842685,-0.34067732,9.181619
68677352818698,0.0899161,-0.33957967,9.157264
68677372672907,0.09412176,-0.25828066,9.1951065
68677392520180,0.07951824,-0.23189317,9.203551
68677412374133,0.039991915,-0.26312304,9.2409315
68677432228086,-0.012627741,-0.31298527,9.20793
68677452082167,0.007098517,-0.24485286,9.2329235
68677471936120,0.02091064,-0.2203758,9.164706
68677491790813,0.03484728,-0.23580083,9.131722
68677511644766,-0.0040992885,-0.24123485,9.300062
68677531498719,-0.029655097,-0.25270325,9.098807
68677551352778,-0.04135396,-0.26639038,9.106001
68677571202561,-0.108264975,-0.24911031,9.228158
68677591056386,-0.049371365,-0.16846168,9.250934
68677610910339,-0.13775636,-0.22932981,9.220523
68677630764164,-0.13377671,-0.3348029,9.2384205
68677650618117,-0.010530233,-0.30983013,9.233509
68677670471942,-0.037888695,-0.23864007,9.25466
68677690323573,-0.039665587,-0.2156278,9.200938
68677710177398,-0.017911954,-0.26173407,9.18303
68677730031095,-0.13879283,-0.6137883,9.116517
68677749884920,-0.28319758,-0.2969821,9.395167
68677769738617,0.09654287,0.54357004,9.148147
68677789597154,0.06699956,-0.09073817,9.370923
68677809450979,0.39267623,-0.4672231,9.256965
68677829304804,1.2283113,-1.124313,9.056978
68677849158629,0.39255595,-0.4402157,9.113287
68677869012454,0.116196275,0.035159994,9.2321
68677888866279,-0.33144727,-0.36780342,9.413835
68677908719836,0.0021262735,-0.13678777,9.270059
68677928573661,0.6443562,-0.33839518,9.0881405
68677948427486,-0.05496656,-0.4925937,9.401205
68677968281311,-0.17148893,-0.28451893,9.267186
68677988135008,-0.038116578,-0.1515187,9.095094
68678007991821,0.10584276,-0.33773923,8.958883
68678027845622,0.15022048,-0.45357764,9.221343
68678047699447,0.2597304,-0.39897344,9.313249
68678067553272,0.8347101,-0.5023387,9.143974
68678087407097,1.2914973,-0.32531446,9.227121
68678107263726,-0.09687171,-0.31858596,9.799933
68678127117551,-0.011211934,-0.062656134,9.330419
68678146971504,0.46816817,0.18565121,9.488967
68678166825329,-0.72001433,0.2534204,9.534892
68678186679282,-0.43367803,-0.38836008,8.8679285
68678206538909,-0.06201866,-1.0915247,9.159477
68678226392862,-0.5821722,-0.5585234,9.422773
68678246246943,0.34405476,0.3207955,9.396721
68678266100896,0.5318137,0.10027949,9.303139
68678285954977,0.42010447,-0.7814068,9.664622
68678305815582,0.14774096,-0.6884974,10.046677
68678325669791,0.12670869,-0.24318564,9.314156
68678345524000,0.39823365,0.056881454,8.942657
68678365378081,-0.39746177,-0.25639594,9.473052
68678385232290,-0.7204736,-0.17229262,9.581159
68678405086539,-0.8453513,0.27520785,10.1516905
68678424940748,0.22188205,-0.39320529,9.500344
68678444795085,1.6250104,-1.1919763,8.759761
68678464649294,0.29070756,-1.0172007,9.672297
68678484503503,-0.62123317,-0.42059645,10.042835
68678504360932,0.076364055,0.079135045,9.320585
68678524215269,0.69427884,0.15892833,8.812417
68678544069606,0.115136325,-0.38207427,9.139201
68678563924071,-0.671547,-0.6214752,9.910649
68678583778408,-0.34311405,-0.2550488,9.773393
68678603631447,0.21263753,0.36717016,9.654972
68678623485912,0.11332139,0.36594087,9.491651
68678643340249,-0.21937118,-0.037438456,9.561814
68678663194586,-0.2652337,-0.4381311,9.778233
68678683049051,-0.090439804,-0.3771046,9.885617
68678702905668,0.11333511,-0.028728133,9.63387
68678722760133,0.22987978,0.12678629,9.452846
68678742614470,0.1296366,-0.108239785,9.598144
68678762468935,-0.113480225,-0.3530994,9.813329
68678782323272,-0.07236062,-0.19880734,9.7603655
68678802177207,0.09203044,-0.0055519985,9.635026
68678822031544,0.18186267,-0.08020024,9.680953
68678841885881,0.09263856,-0.23470412,9.8291645
68678861740346,0.036441512,-0.14940332,9.698291
68678881594683,0.12531593,-0.019773345,9.630486
68678901446966,0.32990366,-0.09105011,9.733954
68678921301303,0.49962547,-0.40489852,9.646735
68678941155640,0.15328918,-0.5016204,9.6291485
68678961010105,-0.16938376,-0.1116833,9.589786
68678980864419,0.5107506,0.36523676,9.693617
68679000710278,0.7749338,0.12279537,9.707742
68679020564487,0.494988,-0.17264101,9.710331
68679040418568,0.2120043,-0.03521256,9.957098
68679060272777,0.2766519,0.13626486,9.999008
68679080126858,0.7910655,0.09784289,9.721309
68679099974583,0.85793215,-0.0026064243,9.760626
68679119828664,0.6647287,-0.35945946,9.652819
68679139682745,-0.40278152,-0.2930287,9.950944
68679159536698,-1.8204442,0.10503851,10.302073
68679179390779,-3.3081486,0.7211217,10.942122
68679199234650,-3.309419,-0.26290995,10.321877
68679219088475,-3.395493,-0.99216044,10.559823
68679238942172,-3.004461,-0.21245123,10.122684
68679258795997,-0.6197488,-0.2411443,9.958503
68679278649822,8.638837,-13.377533,-0.36733788
68679298507773,4.5229993,-14.024847,8.592587
68679318361598,1.4513102,7.5085974,10.497278
68679338215423,7.80133,16.144531,8.896406
68679358069248,-1.2246822,7.4447136,12.132135
68679377923073,-2.5533617,5.11496,10.896766
68679397777314,1.2039862,3.753608,8.74021
68679417631139,-0.39514744,0.66940325,9.211963
68679437484964,-0.9729089,1.4140528,10.832156
68679457338895,-1.2267889,4.3294034,11.157077
68679477192720,0.74872756,6.322658,9.675098
68679497042491,2.5063372,6.8102484,8.085026
68679516896316,2.3399627,6.7910357,8.22615
68679536750013,2.4794714,6.1337194,9.16092
68679556603710,3.1575813,5.68139,8.835237
68679576457535,3.2405505,3.9927,8.470416
68679596313280,0.77892715,0.698361,10.777096
68679616167105,-0.24961706,0.0445156,11.246981
68679636020802,3.8515382,-0.35350835,9.385701
68679655874627,2.1623464,-2.0736487,9.226534
68679675728324,-1.788665,-1.323508,9.606559
68679695584959,-0.8676136,3.6161451,10.133763
68679715438784,3.588894,2.667326,7.916508
68679735292481,4.755873,-5.194245,3.5243511
68679755146306,-2.6606486,-4.4481287,7.3036647
68679775000131,-8.612519,-0.75260335,12.303071
68679794859960,-4.401053,-2.5126028,11.008268
68679814713913,4.223532,-0.69092935,8.128371
68679834567866,7.273024,0.70533633,6.2822366
68679854421691,1.0162675,-3.9822931,8.573374
68679874275644,-3.3139834,-6.717849,10.830082
68679894129597,-2.274541,-4.8957133,9.866556
68679913984440,-1.390242,-0.6125374,7.630688
68679933838370,-1.3641073,-7.5220346,7.0193977
68679953692323,-2.0656965,-9.727571,8.194786
68679973546276,-3.3503711,-10.001245,8.209566
68679993400229,-1.4018409,-6.613618,9.748753
68680013261648,-1.5816941,-6.6856976,9.238665
68680033115729,-2.288775,-7.0516148,10.383316
68680052969810,-1.7987087,-7.445545,11.002588
68680072823891,-1.9521092,-6.8867817,9.966764
68680092677972,-2.223108,-6.623615,9.597054
68680112531577,-2.3661253,-5.867078,8.857896
68680132385658,-2.8310022,-5.1959863,8.82118
68680152239739,-1.34935,-5.1746616,10.816343
68680172093820,-1.3415742,-6.2188516,12.489642
68680191947901,-1.0241246,-5.9047546,11.188508
68680211799136,-1.93352,-4.131958,8.036791
68680231653089,-2.1542053,-2.9502814,7.545614
68680251507170,-0.1388678,-1.132645,7.4274817
68680271361251,-0.96761554,-1.8137864,6.6671405
68680291215204,0.005865647,-1.8884128,6.923137
68680311080725,0.8399066,-1.0104736,6.180665
68680330935062,-0.4448972,2.042815,5.2357006
68680350789399,-0.60001546,0.52493405,8.74736
68680370643608,-0.6088577,-1.688267,10.011851
68680390497945,-0.6006223,0.8530041,7.942639
68680410354115,-2.7790582,-1.4431552,6.5397635
68680430208580,-3.3674304,-4.1297193,7.4652534
68680450062917,-4.4492717,-4.293753,8.3084135
68680469917382,-0.06727947,-0.7290482,10.894393
68680489771847,2.3841496,2.410889,10.969957
68680509626244,1.7494186,3.0418317,11.369727
68680529480709,-1.5223079,-0.6969227,10.343797
68680549335174,-3.902385,-4.1881485,9.473915
68680569189639,0.65775174,-1.5760539,10.488739
68680589044104,5.678235,1.5200988,11.054091
68680608896185,0.07972257,-0.49019092,12.3169
68680628750522,-3.125298,-2.928111,12.860159
68680648604987,-1.0518786,-1.8802783,12.9722395
68680668459452,1.6323999,-2.2221832,10.041331
68680688313789,0.86531997,-4.3596573,13.248274
68680708155070,-3.1867015,-4.841292,11.146402
68680728009151,0.62801,-2.6502445,10.235562
68680747863360,2.8316503,-1.0378162,11.619299
68680767717441,0.8157209,-0.2090518,9.904752
68680787571650,5.422886,1.6538681,10.257107
68680807403641,5.120615,2.0254903,10.244089
68680827257338,3.9397411,0.47798604,10.585263
68680847111035,3.5847948,1.6797318,10.922736
68680866964604,3.652855,4.0528455,10.340128
68680886818280,-5.5836253,-2.657079,9.537104
68680906686179,-6.0145035,-2.4246047,8.667191
68680926540132,-6.794118,-2.769329,7.498607
68680946394085,-6.564997,-3.783413,6.998626
68680966248038,-4.984979,-4.270532,6.361637
68680986101991,-3.563786,-2.9115312,5.8664713
68681005956888,-2.9984941,-1.1139548,4.968374
68681025810841,-1.3844709,-2.3336213,6.8004746
68681045664794,-3.5566926,-4.10921,7.0084057
68681065518747,-5.1933007,-4.787539,7.15214
68681085372572,-2.519137,-5.2932186,7.4570374
68681105227287,1.9818989,-6.0353465,9.7132435
68681125081112,2.0696518,-6.083775,7.7219963
68681144935065,1.9792005,-2.4739387,9.295086
68681164788890,4.030928,-3.626877,12.803227
68681184642843,1.5000154,-4.2458134,11.176502
68681204493522,-1.4570966,-1.8895359,8.787482
68681224347347,-0.36952096,-1.9075701,10.806098
68681244201172,0.8255691,-1.7183094,9.576739
68681264054997,2.9835422,0.7100056,7.334414
68681283908694,3.4378605,0.66947675,7.620659
68681303762519,1.6996473,-0.60447884,10.507604
68681323617806,1.0561775,-1.7604872,11.340595
68681343471631,2.313694,-1.3595806,9.836899
68681363325436,1.0454232,1.9465818,8.998909
68681383179261,-0.1200917,1.4368091,8.753192
68681403033086,0.42446586,0.6690781,9.200093
68681422886771,-0.27413368,0.5790863,9.714633
68681442740596,1.2644548,0.70241964,8.953031
68681462594421,0.70910585,0.3700805,8.607622
68681482448246,0.03469778,-0.34262413,8.233825
68681502302071,-0.3125195,-0.7100277,8.891021
68681522159088,-0.38822147,-0.2656323,9.876646
68681542012913,0.26285166,-1.5822723,10.520277
68681561866866,0.011127522,-1.9771128,10.803941
68681581720691,1.174705,0.7797542,9.392639
68681601574516,2.3495998,1.2432572,9.372559
68681621431773,-2.1876779,-0.7757992,10.939058
68681641285726,-4.482443,-1.9229833,8.9183235
68681661139807,-0.40924236,-1.4127584,9.173305
68681680993760,1.318447,-1.6064497,13.325779
68681700847713,-0.5081735,-0.79102504,8.827171
68681720700562,-0.06389213,1.2209623,8.496878
68681740554515,0.09675382,0.8570331,9.337002
68681760408468,-0.42186397,0.55585146,9.308113
68681780262421,-0.94453764,0.17553152,8.498686
68681800116374,-1.0506792,-2.1860554,8.9129715
68681819975117,0.3123957,-1.449863,12.368128
68681839829177,-2.0935893,1.4030135,12.181585
68681859683130,-2.4392855,0.63800794,10.180959
68681879537211,-1.3230542,-0.1328706,11.063123
68681899391164,0.0034003395,0.36167374,9.584071
68681919251523,-1.0869267,1.1842492,4.326784
68681939105732,-1.4906899,3.1956441,7.604527
68681958959941,-1.6789093,2.1069136,11.372194
68681978814150,-1.9411517,-0.4883922,10.734485
68681998668359,-2.260928,-1.5523648,8.095659
68682018523146,-2.9473155,-0.48296335,9.841774
68682038377355,-2.3014016,0.06873816,9.136262
68682058231692,-1.6142892,0.665103,7.4856834
68682078085901,-0.56910086,1.1979128,8.453554
68682097940110,-0.25862834,-0.85921115,9.231423
68682117771395,-0.9041801,-0.50989044,10.139843
68682137625348,-0.25146818,1.4890603,10.17948
68682157479173,-1.3539977,-0.36473343,10.132416
68682177333126,-2.6384962,0.32032368,13.615571
68682197186951,-1.3133913,0.93711656,13.817679
68682217049468,0.016933689,-0.55055773,13.54352
68682236903421,-1.1750467,8.346897,13.7061
68682256757502,-0.7789039,6.630222,8.561172
68682276611583,0.30854723,3.5735161,7.19113
68682296465664,0.5655779,4.0458646,8.56077
68682316325264,0.8739598,4.050308,9.020056
68682336179345,1.3897582,4.281361,8.786632
68682356033426,2.0018544,3.790358,9.497321
68682375887507,3.04217,1.4441571,11.048731
68682395741716,3.0395346,-2.155409,10.191212
68682415579305,1.9782,-4.067882,7.9166236
68682435432873,2.5205739,-1.4868646,8.078878
68682455286569,3.3947687,-0.07204936,7.97892
68682475140137,2.1630204,0.08158555,5.895415
68682494993705,0.79168195,1.313344,4.4595623
68682514862147,0.18459411,1.2976438,5.027375
68682534716099,0.2085969,-0.5000916,5.310193
68682554570052,-3.0189939,0.8467924,12.763771
68682574424003,-2.6643183,0.43271312,26.05632
68682594283563,-1.4605207,-1.337199,12.188449
68682614137644,-2.4167073,-4.0324817,7.5843897
68682633991723,-0.8359226,-1.8584341,12.210549
68682653845803,-0.7301191,0.6132264,12.700273
68682673699884,-1.6851367,1.9236695,8.953918
68682693553963,-3.36604,1.4908481,6.1472745
68682713418747,-4.6280713,0.6091306,5.9843
68682733273084,-4.290082,0.0586889,6.0624924
68682753127419,-3.330446,-1.1476538,4.3767805
68682772981755,-0.0012327231,-3.6396506,7.0562997
68682792836092,0.15435524,-1.9258788,10.747617
68682812700024,-0.40935093,-1.0880518,9.73609
68682832554616,1.0656986,-1.9356731,10.992219
68682852409081,0.6985905,-1.1169623,11.199087
68682872263672,0.15486546,0.3213693,9.562301
68682892116958,0.5425518,0.7815405,8.073369
68682911971423,1.3250679,0.7822571,7.99301
68682931826014,1.838531,0.11797017,8.433018
68682951680478,0.043609787,-0.10970046,8.679599
68682971535071,-1.6837845,-0.31267148,8.696471
68682991389534,-2.186814,-1.0409108,9.554684
68683011238092,0.26081082,-0.81326526,9.77184
68683031092429,2.1680796,-0.69735813,9.05466
68683050946892,1.5883456,-0.3115216,8.918896
68683070801228,-0.04107589,-0.5017776,9.493079
68683090655693,-0.21321264,-0.53874856,9.739558
68683110505530,0.3383822,0.57076913,8.938923
68683130359866,0.16236928,0.5754726,8.564154
68683150214203,1.3547621,0.2856445,9.573979
68683170068538,0.96008927,0.24203883,10.208873
68683189923002,-0.08303731,0.3660428,10.246372
68683209777339,1.7464657,1.052324,10.745188
68683229631278,2.8169057,2.494821,11.774721
68683249485614,2.8165524,3.479516,13.03477
68683269339951,1.145042,2.8479526,12.990325
68683289194286,-1.3772324,1.3594481,12.169767
68683309049312,-1.4246949,-0.34093302,11.977723
68683328903777,-1.5861804,-0.35188365,11.859372
68683348758112,-1.3618982,-0.21301413,12.3348
68683368612448,0.092722334,-0.08736573,10.88563
68683388466913,-0.56442595,1.5709386,10.194553
68683408303645,2.2709904,0.7097456,12.29059
68683428157725,2.3238676,-0.0063175093,12.039112
68683448011934,-0.7017524,-0.52380055,10.142066
68683467866013,-1.2275057,-0.37696612,9.485232
68683487720093,-0.40393314,-0.1416941,9.308256
68683507574174,-1.033041,-0.35435036,9.157487
68683527432179,-1.0993207,-0.31729662,8.811185
68683547286387,-0.58278596,-0.047313802,8.53564
68683567140596,-0.45999968,0.55028373,8.610883
68683586994803,-0.25093794,1.2200849,8.9293585
68683606842526,-0.34112036,0.71285015,8.998032
68683626696607,-0.41044486,-7.6530926E-4,8.840978
68683646550814,-0.32932073,0.10922263,7.793958
68683666404894,-0.3144744,0.5462126,6.941567
68683686258975,-0.65995026,-0.16555774,7.8288665
68683706100878,-0.71542066,-1.2987615,9.273433
68683725954574,-0.42166242,-0.9604583,9.730106
68683745808143,-0.04031282,0.19335996,10.8000345
68683765661710,0.3536057,0.8680388,10.96058
68683785515278,-0.2644027,0.6994745,9.9678
68683805368975,-0.9189234,0.77300286,8.679375
68683825230054,-0.6480531,0.40241855,8.687093
68683845083750,-0.40709677,-0.21991393,9.499904
68683864937575,-0.120295346,0.054982953,9.761203
68683884791270,0.20004112,0.46929878,10.016237
68683904655001,-0.21960412,1.4737207,10.314067
68683924508954,0.31073895,1.6339957,9.512025
68683944362905,-0.10358929,0.92998385,9.466487
68683964216857,0.094165795,0.13002278,9.893384
68683984070810,0.23681603,0.04162778,9.933265
68684003928271,0.08055237,-0.07499276,9.586138
68684023782095,-0.16901387,0.08111732,9.202127
68684043635920,-0.21226797,0.07555365,9.47705
68684063489615,0.08249399,-0.27202344,9.923456
68684083343439,0.049017075,-0.2816755,9.975612
68684103197264,0.17370161,0.67235774,9.725475
68684123052251,0.7549802,0.95990944,9.482904
68684142906075,0.08395672,0.25452036,9.958227
68684162759900,-0.22058786,-0.5762832,10.658888
68684182613723,-0.35532644,-0.70250636,10.783141
68684202471832,-0.23454082,-0.15531114,10.264518
68684222325657,-0.10875562,0.43352112,9.669424
68684242179608,-0.06297538,0.53072286,9.533515
68684262033432,-0.056775756,0.2574972,9.737145
68684281887385,-0.041794214,0.014667647,10.163959
68684301741336,0.08812665,0.12057274,10.49609
68684321607314,-0.07682689,0.25158346,10.148308
68684341461523,-0.30187064,0.314734,9.808708
68684361315730,-0.18816818,0.019895228,9.71627
68684381169938,-0.13351624,-0.29268137,9.759525
68684401024147,-0.046865717,0.049295187,10.270782
68684420889825,-0.11032921,0.5527034,9.885261
68684440744417,-0.31768432,0.5090783,9.334078
68684460598882,-0.29465482,0.20151483,9.386788
68684480453473,-0.16912079,0.091380134,9.706215
68684500313374,-0.14785454,0.21397904,9.689314
68684520168095,-0.20808162,0.15793173,9.555706
68684540022814,-0.05620835,0.0856401,9.61846
68684559877534,-0.08664795,0.11293565,9.547537
68684579732255,-0.10311687,0.24551064,9.495583
68684599586846,0.028071245,-0.0010610083,9.716198
68684619437470,-0.13163576,0.05411908,9.354874
68684639292191,-0.47263217,0.37051508,9.274622
68684659146782,-0.5021042,0.666881,9.06277
68684679001502,-0.28197083,0.21042016,9.495558
68684698856095,0.2169637,0.13807377,10.502736
68684718712583,0.017143473,0.47653756,10.548826
