UPTIMENANO,Ax,Ay,Az
69339134202526,-1.22146,9.580078,-0.8334668
69339154053253,-1.3148658000000002,9.651928999999999,-0.79035646
69339173909510,-1.3052857,9.68067,-0.73527104
69339193765639,-1.2454101999999998,9.663903999999999,-0.7232959
69339213621896,-1.219065,9.627979,-0.73048097
69339233478153,-1.2430152,9.616004,-0.7664063
69339253331174,-1.2813355,9.616004,-0.8167017
69339273187303,-1.2669654,9.620794,-0.7831714
69339293043432,-1.2502003000000002,9.635164,-0.78556645
69339312899561,-1.2621753,9.623189,-0.79993653
69339332755690,-1.2861254999999998,9.666299,-0.7568262
69339352613793,-1.2909156000000002,9.678274,-0.69695073
69339372469922,-1.2502003000000002,9.656719,-0.7161109
69339392326179,-1.2693603999999998,9.644744000000001,-0.8143066999999999
69339412182308,-1.2933106,9.642349000000001,-0.7927515
69339432038821,-1.2765454,9.618399,-0.732876
69339451894950,-1.2789403999999998,9.635164,-0.7544312
69339471751184,-1.2909156000000002,9.630374,-0.81909674
69339491607313,-1.3723463,9.611214,-0.83586186
69339511463570,-1.4370118,9.616004,-0.7711963000000001
69339531319699,-1.3891114,9.635164,-0.7209009
69339551178376,-1.3100758,9.639954,-0.7592211999999999
69339571034633,-1.2717555,9.623189,-0.7711963000000001
69339590890762,-1.3148658000000002,9.623189,-0.79035646
69339610747019,-1.3579761000000001,9.570497999999999,-0.8047266
69339630603148,-1.346001,9.565708,-0.79993653
69339650462983,-1.2813355,9.594449000000001,-0.76880133
69339670319368,-1.1999048,9.606423,-0.76880133
69339690175625,-1.2645704,9.673484,-0.77359134
69339710031882,-1.3148658000000002,9.699829,-0.728086
69339729888139,-1.2861254999999998,9.70941,-0.732876
69339749744524,-1.3076807,9.6686945,-0.80233157
69339769603335,-1.3579761000000001,9.604028999999999,-0.81909674
69339789459720,-1.3795313,9.570497999999999,-0.76161623
69339809315977,-1.3771361999999998,9.544153,-0.75203615
69339829172234,-1.3651612,9.544153,-0.81909674
69339849031611,-1.3962965,9.5489435,-0.8167017
69339868887996,-1.3891114,9.529783,-0.7711963000000001
69339888744381,-1.3891114,9.513017999999999,-0.7711963000000001
69339908600766,-1.3891114,9.505833,-0.7879615
69339928457151,-1.3843212999999999,9.484278,-0.8047266
69339948312417,-1.3891114,9.484278,-0.76401126
69339968168802,-1.3795313,9.486672,-0.6993457
69339988025187,-1.3148658000000002,9.457932000000001,-0.6490503000000001
69340007881700,-1.2525953,9.477093,-0.6777906
69340027738085,-1.2358301999999999,9.529783,-0.7041358
69340047594470,-1.2478052,9.513017999999999,-0.6825806
69340067458389,-1.2741505,9.481883,-0.68976563
69340087314902,-1.2837305,9.484278,-0.69695073
69340107171543,-1.22625,9.515413,-0.7209009
69340127028056,-1.1927198,9.501043,-0.68976563
69340146881357,-1.1927198,9.493857,-0.6490503000000001
69340166737870,-1.2334352,9.422008,-0.6658155
69340186594383,-1.2789403999999998,9.340575999999999,-0.68976563
69340206450896,-1.3292358999999998,9.338181500000001,-0.65384036
69340226307409,-1.3388159,9.354947,-0.69695073
69340246166914,-1.2885206,9.357342,-0.7711963000000001
69340266023555,-1.2741505,9.374106,-0.7831714
69340285880068,-1.3148658000000002,9.350157000000001,-0.7807764
69340305736709,-1.334026,9.369317,-0.7879615
69340325593222,-1.3100758,9.402847,-0.7568262
69340345449863,-1.2957056999999998,9.393267,-0.7161109
69340365304132,-1.2909156000000002,9.390872,-0.65384036
69340385160645,-1.3364209999999999,9.350157000000001,-0.60833496
69340405017286,-1.3891114,9.278306,-0.62989014
69340424873777,-1.3795313,9.256751,-0.7113208000000001
69340444730350,-1.3100758,9.2328005,-0.7592211999999999
69340464586863,-1.2909156000000002,9.189691,-0.7209009
69340484443504,-1.2645704,9.1849,-0.69216067
69340504300017,-1.2166698999999999,9.177715,-0.7185059
69340524156658,-1.2430152,9.187294999999999,-0.73048097
69340544013171,-1.2909156000000002,9.204061,-0.6945557
69340563872800,-1.3436059999999999,9.230406,-0.6466553
69340583729441,-1.3747413,9.220825,-0.6562354
69340603586082,-1.3388159,9.187294999999999,-0.7232959
69340623442723,-1.2621753,9.192085,-0.7209009
69340643299364,-1.2310401000000002,9.16095,-0.7089258
69340663152597,-1.2813355,9.072334,-0.73048097
69340683009110,-1.2885206,9.065149,-0.7448511
69340702865751,-1.2573853000000002,9.077125,-0.70174074
69340722722392,-1.1783496,9.077125,-0.67539555
69340742581385,-1.1735597,9.062755000000001,-0.6586304000000001
69340762437898,-1.2597803,9.11784,-0.6730005
69340782294539,-1.3004956,9.093889,-0.7113208000000001
69340802151180,-1.2669654,9.105865,-0.7089258
69340822007693,-1.2573853000000002,9.13221,-0.6346801999999999
69340841864334,-1.2358301999999999,9.144185,-0.61073
69340861719865,-1.2406201000000001,9.122630000000001,-0.61073
69340881576378,-1.2669654,9.0891,-0.62510014
69340901432999,-1.2741505,9.067544,-0.69216067
69340921289512,-1.2406201000000001,9.086704,-0.6849755999999999
69340941146153,-1.2022998,9.074729,-0.67539555
69340961001696,-1.1855347,9.057964,-0.68976563
69340980858209,-1.2094848999999999,9.074729,-0.70174074
69341000714722,-1.2693603999999998,9.081914999999999,-0.63707525
69341020571235,-1.2789403999999998,9.067544,-0.62510014
69341040422804,-1.2454101999999998,9.081914999999999,-0.6322852
69341060279189,-1.1927198,9.096285,-0.6586304000000001
69341080135702,-1.1759547,9.086704,-0.7209009
69341099992087,-1.2118799999999998,9.091495,-0.76161623
69341119848472,-1.22625,9.069939999999999,-0.76880133
69341139704857,-1.2454101999999998,9.069939999999999,-0.732876
69341159559426,-1.2741505,9.045989,-0.7065308000000001
69341179415811,-1.2669654,9.036408999999999,-0.7041358
69341199272324,-1.2645704,9.038803999999999,-0.7113208000000001
69341219128709,-1.2573853000000002,9.019644,-0.71371585
69341238985094,-1.2525953,9.060359,-0.7664063
69341258841971,-1.2549903,9.096285,-0.7664063
69341278698356,-1.2573853000000002,9.022039,-0.7544312
69341298554741,-1.2693603999999998,9.022039,-0.7664063
69341318411254,-1.2382251,9.048384,-0.7089258
69341338267639,-1.2022998,9.086704,-0.69216067
69341358124024,-1.1735597,9.081914999999999,-0.7113208000000001
69341377980475,-1.1855347,9.069939999999999,-0.6825806
69341397836860,-1.223855,9.065149,-0.732876
69341417693373,-1.22146,9.05557,-0.7544312
69341437549758,-1.2286451,9.048384,-0.732876
69341457398951,-1.219065,9.045989,-0.6658155
69341477255208,-1.22146,9.036408999999999,-0.6682104999999999
69341497111465,-1.2573853000000002,9.024434,-0.68737066
69341516967722,-1.2502003000000002,9.043594,-0.7089258
69341536823979,-1.2573853000000002,9.045989,-0.7209009
69341556680236,-1.2597803,9.053174,-0.7161109
69341576529497,-1.2454101999999998,9.074729,-0.69695073
69341596385626,-1.2669654,9.069939999999999,-0.67539555
69341616241755,-1.2525953,9.0891,-0.6610254
69341636097756,-1.2406201000000001,9.113049499999999,-0.613125
69341655953885,-1.2382251,9.069939999999999,-0.6490503000000001
69341675812038,-1.2717555,9.053174,-0.68018556
69341695668167,-1.2813355,9.048384,-0.728086
69341715524296,-1.2621753,9.026829,-0.7664063
69341735380553,-1.2454101999999998,9.017249000000001,-0.76161623
69341755233714,-1.2645704,9.060359,-0.7209009
69341775089715,-1.2717555,9.043594,-0.7161109
69341794945844,-1.2909156000000002,9.014853500000001,-0.7041358
69341814801845,-1.2813355,9.017249000000001,-0.70174074
69341834657846,-1.2813355,9.065149,-0.7065308000000001
69341854513951,-1.2549903,9.079519,-0.6825806
69341874371470,-1.2885206,9.101074,-0.6993457
69341894227471,-1.3028906999999998,9.101074,-0.7376661
69341914083600,-1.3268408999999999,9.038803999999999,-0.75203615
69341933939729,-1.3004956,9.017249000000001,-0.7185059
69341953795858,-1.2406201000000001,9.05557,-0.6945557
69341973647161,-1.219065,9.057964,-0.7592211999999999
69341993503034,-1.2813355,9.045989,-0.73048097
69342013359035,-1.3364209999999999,9.036408999999999,-0.6945557
69342033214908,-1.3196558,9.048384,-0.79035646
69342053066719,-1.2909156000000002,9.038803999999999,-0.83586186
69342072922592,-1.2693603999999998,9.069939999999999,-0.7448511
69342092778465,-1.2717555,9.057964,-0.7209009
69342112634210,-1.2789403999999998,9.0076685,-0.78556645
69342132490083,-1.2885206,8.990903999999999,-0.8262818000000001
69342152345956,-1.2765454,9.005274,-0.8382569
69342172201977,-1.2693603999999998,9.043594,-0.79993653
69342192057850,-1.2837305,9.038803999999999,-0.7376661
69342211913595,-1.3004956,9.022039,-0.7113208000000001
69342231769468,-1.3292358999999998,9.057964,-0.7161109
69342251625341,-1.3268408999999999,9.053174,-0.6849755999999999
69342271486426,-1.3004956,9.091495,-0.6322852
69342291342299,-1.2909156000000002,9.175321,-0.7089258
69342311198172,-1.2693603999999998,9.216036,-0.7592211999999999
69342331054021,-1.2118799999999998,9.139395,-0.7496411000000001
69342350909894,-1.2478052,9.110655,-0.7544312
69342370765767,-1.2813355,9.0891,-0.75203615
69342390628216,-1.2765454,9.1202345,-0.6993457
69342410484217,-1.2957056999999998,9.196876,-0.6586304000000001
69342430340346,-1.2837305,9.204061,-0.6777906
69342450196347,-1.2789403999999998,9.177715,-0.70174074
69342470054438,-1.3124708,9.14658,-0.728086
69342489910567,-1.3028906999999998,9.144185,-0.80233157
69342509766696,-1.2837305,9.206455,-0.78556645
69342529622825,-1.3004956,9.249566,-0.7664063
69342549478954,-1.2861254999999998,9.223221,-0.7807764
69342569337767,-1.3412110000000002,9.228010000000001,-0.7592211999999999
69342589193896,-1.334026,9.2328005,-0.7592211999999999
69342609050153,-1.3076807,9.218430499999998,-0.77359134
69342628906282,-1.3268408999999999,9.228010000000001,-0.7113208000000001
69342648762539,-1.2981006000000002,9.239985,-0.70174074
69342668618668,-1.2765454,9.216036,-0.7664063
69342688476327,-1.3220508,9.18011,-0.79035646
69342708332456,-1.3651612,9.295072,-0.69695073
69342728188713,-1.2957056999999998,9.412427000000001,-0.7065308000000001
69342748044970,-1.2597803,9.395662,-0.79035646
69342767903167,-1.3292358999999998,9.338181500000001,-0.7759864000000001
69342787759424,-1.3843212999999999,9.333391,-0.7185059
69342807615659,-1.3867163999999998,9.374106,-0.7232959
69342827471916,-1.2837305,9.354947,-0.7592211999999999
69342847328173,-1.2741505,9.347761,-0.7232959
69342867184494,-1.2813355,9.390872,-0.74006104
69342887040751,-1.2717555,9.453142,-0.80712163
69342906897008,-1.2621753,9.436378,-0.79754156
69342926753393,-1.2789403999999998,9.424402,-0.7592211999999999
69342946609650,-1.3603711,9.460327000000001,-0.7209009
69342966466035,-1.3699511999999998,9.4435625,-0.7783814
69342986323896,-1.3172607,9.390872,-0.82388675
69343006180281,-1.3220508,9.436378,-0.79035646
69343026036666,-1.3220508,9.505833,-0.7711963000000001
69343045893051,-1.3100758,9.553733,-0.8382569
69343065741550,-1.331631,9.5489435,-0.8861573
69343085597807,-1.3771361999999998,9.513017999999999,-0.855022
69343105454064,-1.3939015,9.520203,-0.80712163
69343125310193,-1.3723463,9.536968,-0.83586186
69343145166450,-1.3507911,9.527389,-0.81909674
69343165022707,-1.3627661,9.553733,-0.8286768
69343184876934,-1.3699511999999998,9.539363,-0.855022
69343204733191,-1.3747413,9.503438000000001,-0.9196875
69343224589320,-1.3699511999999998,9.524992999999998,-0.9244776
69343244445449,-1.3531861,9.577683,-0.9148975
69343264301578,-1.3364209999999999,9.594449000000001,-0.8669971
69343284153761,-1.3675561999999999,9.584868,-0.76161623
69343304009762,-1.3986914,9.611214,-0.79035646
69343323865891,-1.4130616000000003,9.642349000000001,-0.8861573
69343343721892,-1.4130616000000003,9.608819,-0.8214916999999999
69343363573841,-1.3819263000000002,9.604028999999999,-0.76401126
69343383429842,-1.3124708,9.580078,-0.87418216
69343403285843,-1.3412110000000002,9.553733,-0.9580079
69343423141844,-1.3699511999999998,9.553733,-0.94603276
69343442997845,-1.3986914,9.582474000000001,-0.8598120000000001
69343462853846,-1.4082716,9.625584,-0.87178713
69343482714059,-1.4106666,9.632769,-0.8669971
69343502570188,-1.4154567,9.592053,-0.78556645
69343522426189,-1.4154567,9.596844,-0.7927515
69343542282318,-1.3891114,9.568104,-0.8334668
69343562138319,-1.3723463,9.558523,-0.8909473
69343581988468,-1.3867163999999998,9.558523,-0.86939216
69343601844469,-1.3891114,9.572892999999999,-0.8478370000000001
69343621700342,-1.4130616000000003,9.608819,-0.855022
69343641556343,-1.4274316999999999,9.620794,-0.852627
69343661411174,-1.4202466,9.620794,-0.7927515
69343681267047,-1.4298267,9.649534,-0.7544312
69343701122920,-1.4226416000000002,9.656719,-0.79754156
69343720978793,-1.4058765,9.637559,-0.84544194
69343740834666,-1.4058765,9.604028999999999,-0.81909674
69343760690516,-1.4178516,9.589659,-0.82388675
69343780548797,-1.4106666,9.606423,-0.85741705
69343800404670,-1.3891114,9.587264,-0.8909473
69343820260543,-1.3843212999999999,9.604028999999999,-0.83586186
69343840116416,-1.4322218,9.644744000000001,-0.7831714
69343859972289,-1.453777,9.596844,-0.8047266
69343879826068,-1.4418018,9.570497999999999,-0.83586186
69343899681941,-1.3723463,9.587264,-0.84544194
69343919537686,-1.3651612,9.601633999999999,-0.8598120000000001
69343939393559,-1.4394068000000002,9.642349000000001,-0.8262818000000001
69343959249432,-1.465752,9.678274,-0.81909674
69343979105305,-1.4489869,9.683064,-0.8334668
69343998963300,-1.4154567,9.632769,-0.85023195
69344018819173,-1.3819263000000002,9.599238,-0.8214916999999999
69344038675046,-1.3675561999999999,9.568104,-0.80712163
69344058530919,-1.3723463,9.575289,-0.88376224
69344078389906,-1.4226416000000002,9.582474000000001,-0.9268726
69344098245779,-1.4394068000000002,9.594449000000001,-0.84065187
69344118101780,-1.3867163999999998,9.627979,-0.8047266
69344137957653,-1.3795313,9.642349000000001,-0.8310718
69344157813654,-1.4010864,9.6615095,-0.84065187
69344177676225,-1.453777,9.639954,-0.8047266
69344197532354,-1.4465919,9.599238,-0.8430469
69344217388483,-1.3915064,9.601633999999999,-0.87897223
69344237244462,-1.4106666,9.616004,-0.852627
69344257100591,-1.4202466,9.618399,-0.8095166
69344276956592,-1.3939015,9.620794,-0.8334668
69344296813789,-1.3939015,9.630374,-0.90771246
69344316669918,-1.4322218,9.666299,-0.9029224
69344336526047,-1.4298267,9.651928999999999,-0.7831714
69344356382176,-1.3939015,9.625584,-0.7711963000000001
69344376242181,-1.3962965,9.601633999999999,-0.8909473
69344396098438,-1.4058765,9.601633999999999,-0.90771246
69344415954695,-1.4465919,9.596844,-0.855022
69344435810952,-1.4250367,9.599238,-0.87418216
69344455667209,-1.4034815,9.599238,-0.8765772
69344475523704,-1.3915064,9.601633999999999,-0.8885523000000001
69344495379961,-1.4226416000000002,9.627979,-0.8646021
69344515236218,-1.4418018,9.6615095,-0.84065187
69344535092475,-1.4729371,9.604028999999999,-0.855022
69344554948732,-1.4513819,9.618399,-0.8981324
69344574804989,-1.3795313,9.639954,-0.8861573
69344594665196,-1.3915064,9.651928999999999,-0.91010743
69344614521581,-1.4394068000000002,9.618399,-0.8813671999999999
69344634377966,-1.4418018,9.594449000000001,-0.8382569
69344654234351,-1.4322218,9.608819,-0.8646021
69344674092358,-1.4250367,9.596844,-0.8765772
69344693948743,-1.3986914,9.601633999999999,-0.85741705
69344713805106,-1.3819263000000002,9.601633999999999,-0.8885523000000001
69344733661491,-1.4178516,9.596844,-0.9508228000000001
69344753517876,-1.4585668999999999,9.625584,-0.94603276
69344773374261,-1.453777,9.656719,-0.90771246
69344793232832,-1.4346168,9.656719,-0.8981324
69344813089217,-1.4418018,9.654325,-0.8813671999999999
69344832945730,-1.463357,9.616004,-0.852627
69344852802243,-1.4609618999999998,9.582474000000001,-0.8334668
69344872658628,-1.4250367,9.5489435,-0.84065187
69344892514861,-1.3915064,9.580078,-0.8646021
69344912371374,-1.4010864,9.580078,-0.9053174
69344932227759,-1.4154567,9.601633999999999,-0.91250247
69344952084272,-1.4130616000000003,9.604028999999999,-0.87178713
69344971937433,-1.4010864,9.587264,-0.87897223
69344991793818,-1.4154567,9.606423,-0.852627
69345011650203,-1.4322218,9.594449000000001,-0.84065187
69345031506460,-1.4154567,9.64714,-0.8310718
69345051362845,-1.4274316999999999,9.764495,-0.8478370000000001
69345071219230,-1.4178516,9.721385,-0.86939216
69345091067337,-1.3891114,9.6615095,-0.9029224
69345110923594,-1.4106666,9.613608000000001,-0.90771246
69345130779851,-1.4178516,9.592053,-0.852627
69345150636108,-1.3915064,9.558523,-0.80233157
69345170492365,-1.3723463,9.582474000000001,-0.86939216
69345190335966,-1.3962965,9.604028999999999,-0.9148975
69345210191967,-1.4465919,9.589659,-0.89573735
69345230047840,-1.465752,9.575289,-0.9053174
69345249903841,-1.4298267,9.553733,-0.87897223
69345269761360,-1.4178516,9.623189,-0.85741705
69345289617361,-1.4298267,9.685459,-0.7783814
69345309473362,-1.4418018,9.692644,-0.8047266
69345329329235,-1.4465919,9.659114,-0.8981324
69345349185236,-1.4585668999999999,9.625584,-0.91729254
69345369041237,-1.4465919,9.599238,-0.8478370000000001
69345388892160,-1.3771361999999998,9.592053,-0.9053174
69345408748033,-1.3507911,9.541758999999999,-1.0226734
69345428603906,-1.4250367,9.580078,-0.977168
69345448459779,-1.5088624,9.606423,-0.8669971
69345468315780,-1.5088624,9.596844,-0.855022
69345488171107,-1.4441968,9.589659,-0.9029224
69345508026852,-1.4058765,9.599238,-0.9148975
69345527882725,-1.4082716,9.575289,-0.90052736
69345547738470,-1.4226416000000002,9.575289,-0.90052736
69345567594343,-1.463357,9.611214,-0.9580079
69345587450216,-1.4753321000000001,9.649534,-0.97956306
69345607294403,-1.4609618999999998,9.699829,-0.9148975
69345627149892,-1.4250367,9.735755000000001,-0.87418216
69345647005509,-1.4154567,9.678274,-0.87897223
69345666860976,-1.4250367,9.637559,-0.9316626
69345686714259,-1.4370118,9.592053,-0.95561284
69345706569748,-1.4130616000000003,9.546548,-0.91729254
69345726425237,-1.4106666,9.522598,-0.91729254
69345746280598,-1.4130616000000003,9.508227999999999,-0.9436377
69345766136087,-1.4202466,9.529783,-0.95561284
69345785996026,-1.4465919,9.544153,-0.9364527
69345805851643,-1.465752,9.618399,-0.91729254
69345825707132,-1.4513819,9.630374,-0.9029224
69345845562749,-1.4322218,9.6758795,-0.9029224
69345865418238,-1.4465919,9.70941,-0.89573735
69345885273855,-1.4346168,9.68067,-0.8933423
69345905131886,-1.4753321000000001,9.639954,-0.8765772
69345924987503,-1.4705421,9.611214,-0.89573735
69345944843120,-1.4010864,9.584868,-0.92208254
69345964698609,-1.3795313,9.620794,-0.94603276
69345984554970,-1.4106666,9.620794,-0.90052736
69346004410459,-1.4441968,9.604028999999999,-0.8981324
69346024266076,-1.4465919,9.580078,-0.9484278
69346044121565,-1.4681469999999999,9.580078,-0.88376224
69346063977182,-1.4825171,9.5633135,-0.79754156
69346083830349,-1.4585668999999999,9.546548,-0.85023195
69346103685838,-1.4370118,9.575289,-0.95561284
69346123541327,-1.4585668999999999,9.644744000000001,-0.9580079
69346143396794,-1.4513819,9.678274,-0.92926764
69346163252283,-1.4298267,9.666299,-0.9436377
69346183107772,-1.4873072,9.6758795,-0.9244776
69346202970715,-1.5016773,9.6615095,-0.8286768
69346222826332,-1.4873072,9.654325,-0.7879615
69346242682077,-1.4992822000000001,9.627979,-0.83586186
69346262537694,-1.4849122,9.575289,-0.8669971
69346282406855,-1.4250367,9.539363,-0.8598120000000001
69346302262856,-1.3675561999999999,9.5489435,-0.8885523000000001
69346322118729,-1.3939015,9.5489435,-0.9484278
69346341974730,-1.4106666,9.5633135,-0.98195803
69346361830603,-1.4394068000000002,9.587264,-0.9388476999999998
69346381686604,-1.4370118,9.608819,-0.86220706
69346401545261,-1.4346168,9.637559,-0.8286768
69346421401262,-1.4801221000000002,9.644744000000001,-0.87178713
69346441257391,-1.4849122,9.635164,-0.84544194
69346461113392,-1.4729371,9.639954,-0.8286768
69346480969393,-1.4322218,9.613608000000001,-0.8765772
69346500830666,-1.4226416000000002,9.599238,-0.92926764
69346520686923,-1.4082716,9.572892999999999,-0.90771246
69346540543052,-1.4274316999999999,9.625584,-0.855022
69346560399309,-1.4465919,9.611214,-0.86220706
69346580252586,-1.4418018,9.596844,-0.91010743
69346600108843,-1.4513819,9.623189,-0.89573735
69346619965079,-1.4346168,9.639954,-0.8286768
69346639821336,-1.4489869,9.659114,-0.8813671999999999
69346659677465,-1.4513819,9.642349000000001,-0.90052736
69346679533722,-1.477727,9.635164,-0.855022
69346699394563,-1.4729371,9.639954,-0.86220706
69346719250820,-1.453777,9.618399,-0.90052736
69346739107205,-1.4489869,9.596844,-0.91729254
69346758963462,-1.4489869,9.551338000000001,-0.91250247
69346778819719,-1.4513819,9.513017999999999,-0.9388476999999998
69346798681138,-1.4992822000000001,9.534574000000001,-0.974773
69346818537523,-1.5280225,9.517808,-0.9627979
69346838393908,-1.5208374,9.560919,-0.9268726
69346858250293,-1.5160475,9.594449000000001,-0.9029224
69346878107056,-1.4992822000000001,9.627979,-0.9196875
69346897963441,-1.4801221000000002,9.656719,-0.91729254
69346917819954,-1.4992822000000001,9.678274,-0.9268726
69346937676339,-1.5160475,9.687855,-0.9244776
69346957532852,-1.5112573999999999,9.685459,-0.91010743
69346977389237,-1.5040723,9.637559,-0.9148975
69346997235358,-1.4992822000000001,9.594449000000001,-0.92208254
69347017091615,-1.5016773,9.5633135,-0.87897223
69347036947872,-1.477727,9.534574000000001,-0.9436377
69347056804129,-1.4753321000000001,9.5561285,-0.9651929
69347076660258,-1.4681469999999999,9.570497999999999,-0.92926764
69347096513770,-1.453777,9.546548,-0.9268726
69347116369899,-1.465752,9.575289,-0.9963281999999999
69347136226156,-1.4873072,9.616004,-0.9867481
69347156082413,-1.5088624,9.627979,-0.8885523000000001
69347175938670,-1.4968873,9.673484,-0.8646021
69347195794927,-1.4897022,9.718989,-0.9316626
69347215636640,-1.4944923,9.666299,-0.95561284
69347235492513,-1.5112573999999999,9.627979,-0.90052736
69347255348514,-1.477727,9.601633999999999,-0.9053174
69347275204387,-1.4465919,9.551338000000001,-0.95561284
69347295057670,-1.4585668999999999,9.539363,-0.91729254
69347314913543,-1.4489869,9.551338000000001,-0.852627
69347334769288,-1.453777,9.572892999999999,-0.87178713
69347354625033,-1.4441968,9.577683,-0.93405765
69347374480906,-1.465752,9.630374,-0.90771246
69347394332213,-1.4705421,9.623189,-0.85741705
69347414187958,-1.4226416000000002,9.608819,-0.90771246
69347434043575,-1.456172,9.608819,-0.9436377
69347453899320,-1.5136524,9.639954,-0.90771246
69347473755065,-1.4944923,9.625584,-0.8909473
69347493610682,-1.463357,9.654325,-0.91250247
69347513471071,-1.4489869,9.627979,-0.9268726
69347533326816,-1.456172,9.611214,-0.91010743
69347553182689,-1.4897022,9.589659,-0.91250247
69347573038413,-1.477727,9.589659,-0.9268726
69347592890098,-1.4441968,9.582474000000001,-0.8909473
69347612745843,-1.4274316999999999,9.5633135,-0.8933423
69347632601460,-1.4465919,9.568104,-0.91010743
69347652457077,-1.4585668999999999,9.536968,-0.8765772
69347672312822,-1.456172,9.587264,-0.8885523000000001
69347692167647,-1.4441968,9.630374,-0.8885523000000001
69347712023264,-1.456172,9.685459,-0.8981324
69347731878753,-1.4705421,9.726174,-0.88376224
69347751734370,-1.5088624,9.68067,-0.89573735
69347771589859,-1.4920973,9.649534,-0.93405765
69347791445476,-1.4705421,9.592053,-0.8861573
69347811301257,-1.4873072,9.637559,-0.86939216
69347831156874,-1.4968873,9.644744000000001,-0.91729254
69347851012363,-1.4705421,9.572892999999999,-0.9268726
69347870867980,-1.4489869,9.524992999999998,-0.96758795
69347890727529,-1.4418018,9.522598,-0.97237796
69347910583274,-1.4489869,9.5561285,-0.9268726
69347930438891,-1.4585668999999999,9.570497999999999,-0.87418216
69347950294636,-1.4801221000000002,9.608819,-0.8598120000000001
69347970150381,-1.5064673000000002,9.582474000000001,-0.85741705
69347990005998,-1.4346168,9.618399,-0.85741705
69348009871171,-1.3819263000000002,9.649534,-0.88376224
69348029727044,-1.4346168,9.623189,-0.9867481
69348049582896,-1.4897022,9.654325,-0.91250247
69348069438769,-1.477727,9.697434,-0.7831714
69348089294514,-1.4322218,9.678274,-0.92208254
69348109146657,-1.4418018,9.64714,-0.9627979
69348129002402,-1.4849122,9.642349000000001,-0.79993653
69348148858275,-1.477727,9.580078,-0.76401126
69348168714020,-1.4465919,9.536968,-0.91010743
69348188567443,-1.4202466,9.529783,-0.9627979
69348208423060,-1.4034815,9.544153,-0.8813671999999999
69348228278805,-1.4322218,9.558523,-0.8143066999999999
69348248134422,-1.4465919,9.5633135,-0.8646021
69348267990167,-1.4394068000000002,9.572892999999999,-0.87418216
69348287845784,-1.4609618999999998,9.625584,-0.8310718
69348307709959,-1.4370118,9.6686945,-0.79754156
69348327565960,-1.4298267,9.704619000000001,-0.80233157
69348347421833,-1.4394068000000002,9.678274,-0.855022
69348367277706,-1.4681469999999999,9.663903999999999,-0.90052736
69348387133579,-1.4585668999999999,9.6686945,-0.83586186
69348406995254,-1.4130616000000003,9.642349000000001,-0.8286768
69348426851383,-1.4130616000000003,9.637559,-0.84065187
69348446707512,-1.456172,9.618399,-0.8286768
69348466563641,-1.4729371,9.553733,-0.852627
69348486428840,-1.4944923,9.524992999999998,-0.87418216
69348506285225,-1.4801221000000002,9.510622999999999,-0.8813671999999999
69348526141588,-1.4489869,9.5561285,-0.86220706
69348545997845,-1.4178516,9.587264,-0.8909473
69348565854230,-1.4082716,9.608819,-0.84065187
69348585710615,-1.4178516,9.6686945,-0.79754156
69348605569462,-1.4226416000000002,9.690249,-0.79754156
69348625425847,-1.4346168,9.704619000000001,-0.80712163
69348645282232,-1.4154567,9.690249,-0.79035646
69348665138617,-1.4058765,9.651928999999999,-0.87178713
69348684995002,-1.4034815,9.613608000000001,-0.97956306
69348704851787,-1.4274316999999999,9.587264,-0.9963281999999999
69348724708172,-1.4513819,9.5561285,-0.98914313
69348744564685,-1.4897022,9.560919,-0.9580079
69348764421070,-1.4849122,9.592053,-0.86939216
69348784277455,-1.4729371,9.604028999999999,-0.86939216
69348804133840,-1.465752,9.613608000000001,-0.8909473
69348823989285,-1.4873072,9.599238,-0.8813671999999999
69348843845670,-1.465752,9.584868,-0.87897223
69348863702055,-1.465752,9.582474000000001,-0.9316626
69348883558440,-1.4489869,9.568104,-0.9867481
69348903414617,-1.4226416000000002,9.606423,-0.9699829
69348923271002,-1.4106666,9.632769,-0.92926764
69348943127387,-1.4178516,9.654325,-0.8933423
69348962983772,-1.4489869,9.642349000000001,-0.8598120000000001
69348982840157,-1.453777,9.639954,-0.8167017
69349002685489,-1.4202466,9.64714,-0.80233157
69349022541746,-1.3843212999999999,9.601633999999999,-0.8430469
69349042397875,-1.3723463,9.604028999999999,-0.8909473
69349062254004,-1.3962965,9.637559,-0.9029224
69349082110133,-1.4298267,9.596844,-0.8885523000000001
69349101966390,-1.4322218,9.572892999999999,-0.88376224
69349121812261,-1.3915064,9.5633135,-0.85023195
69349141668262,-1.3651612,9.575289,-0.80712163
69349161524263,-1.4130616000000003,9.637559,-0.8047266
69349181380264,-1.4370118,9.68067,-0.79754156
69349201224971,-1.456172,9.707015,-0.8047266
69349221080716,-1.4681469999999999,9.6615095,-0.8646021
69349240936461,-1.4513819,9.637559,-0.85023195
69349260792206,-1.4034815,9.592053,-0.77359134
69349280647951,-1.3436059999999999,9.592053,-0.85741705
69349300500404,-1.3747413,9.613608000000001,-0.9268726
69349320356021,-1.4370118,9.584868,-0.84544194
69349340211766,-1.4753321000000001,9.584868,-0.8646021
69349360067383,-1.5447876,9.630374,-0.852627
69349379923000,-1.5591576999999999,9.587264,-0.77359134
69349399778745,-1.3795313,9.5633135,-0.81909674
69349419627414,-1.3028906999999998,9.606423,-0.86220706
69349439482903,-1.4250367,9.570497999999999,-0.88376224
69349459338392,-1.5399976,9.608819,-0.7879615
69349479193860,-1.5040723,9.6615095,-0.69216067
69349499051823,-1.3986914,9.666299,-0.84065187
69349518907184,-1.3747413,9.695039999999999,-0.8813671999999999
69349538762673,-1.463357,9.683064,-0.68018556
69349558618162,-1.4825171,9.632769,-0.66342044
69349578473651,-1.463357,9.606423,-0.7927515
69349598329140,-1.4394068000000002,9.635164,-0.77359134
69349618185321,-1.4034815,9.611214,-0.7065308000000001
69349638040810,-1.3915064,9.580078,-0.73048097
69349657896427,-1.4202466,9.599238,-0.8167017
69349677751916,-1.4298267,9.589659,-0.85741705
69349697607405,-1.4513819,9.575289,-0.8143066999999999
69349717463888,-1.465752,9.596844,-0.7831714
69349737319377,-1.456172,9.627979,-0.7807764
69349757174866,-1.4609618999999998,9.64714,-0.7783814
69349777030355,-1.4705421,9.654325,-0.7424561
69349796883894,-1.4705421,9.651928999999999,-0.7113208000000001
69349816739255,-1.4441968,9.649534,-0.76401126
69349836594616,-1.4130616000000003,9.659114,-0.83586186
69349856449977,-1.3986914,9.663903999999999,-0.80712163
69349876305338,-1.3939015,9.620794,-0.7879615
69349896160699,-1.4274316999999999,9.577683,-0.81191164
69349916021600,-1.5352076000000001,9.592053,-0.8143066999999999
69349935877089,-1.5280225,9.625584,-0.7161109
69349955732429,-1.4178516,9.618399,-0.6993457
69349975587918,-1.3891114,9.618399,-0.7568262
69349995443407,-1.4585668999999999,9.616004,-0.8214916999999999
69350015301442,-1.5064673000000002,9.606423,-0.83586186
69350035156803,-1.4729371,9.594449000000001,-0.7807764
69350055012292,-1.4178516,9.587264,-0.7831714
69350074867781,-1.4034815,9.613608000000001,-0.7879615
69350094726880,-1.4441968,9.635164,-0.7544312
69350114582497,-1.4681469999999999,9.618399,-0.7664063
69350134438114,-1.4681469999999999,9.642349000000001,-0.73048097
69350154293603,-1.4178516,9.618399,-0.7041358
69350174149220,-1.3699511999999998,9.606423,-0.8310718
69350194004837,-1.3843212999999999,9.649534,-0.91729254
69350213864702,-1.4058765,9.642349000000001,-0.8262818000000001
69350233720319,-1.4465919,9.623189,-0.7232959
69350253576064,-1.4873072,9.673484,-0.7424561
69350273431809,-1.4609618999999998,9.671089,-0.7783814
69350293287426,-1.4226416000000002,9.620794,-0.7544312
69350313154345,-1.3891114,9.580078,-0.7113208000000001
69350333010346,-1.3388159,9.570497999999999,-0.77359134
69350352866347,-1.3412110000000002,9.623189,-0.85023195
69350372722220,-1.3436059999999999,9.627979,-0.8310718
69350392578221,-1.4178516,9.666299,-0.7568262
69350412434222,-1.4585668999999999,9.685459,-0.78556645
69350432298547,-1.4394068000000002,9.683064,-0.855022
69350452154676,-1.4178516,9.671089,-0.78556645
69350472010933,-1.4250367,9.6758795,-0.74006104
69350491867190,-1.4202466,9.64714,-0.83586186
69350511730529,-1.4082716,9.584868,-0.9268726
69350531587042,-1.4394068000000002,9.560919,-0.8981324
69350551443427,-1.4705421,9.587264,-0.79993653
69350571299940,-1.4441968,9.582474000000001,-0.79993653
69350591156325,-1.4154567,9.5561285,-0.8310718
69350611003928,-1.4250367,9.572892999999999,-0.83586186
69350630860313,-1.4489869,9.623189,-0.79035646
69350650716570,-1.463357,9.644744000000001,-0.81909674
69350670572955,-1.463357,9.656719,-0.8765772
69350690429212,-1.4489869,9.678274,-0.8214916999999999
69350710285597,-1.4226416000000002,9.683064,-0.74724615
69350730134138,-1.4130616000000003,9.651928999999999,-0.76880133
69350749990267,-1.4370118,9.635164,-0.8095166
69350769846396,-1.4705421,9.599238,-0.8167017
69350789702525,-1.456172,9.584868,-0.8262818000000001
69350809561568,-1.4202466,9.565708,-0.852627
69350829417825,-1.4106666,9.570497999999999,-0.852627
69350849273954,-1.4106666,9.627979,-0.80712163
69350869130083,-1.4226416000000002,9.630374,-0.7807764
69350888986212,-1.4513819,9.623189,-0.80233157
69350908836162,-1.4729371,9.613608000000001,-0.7759864000000001
69350928692163,-1.4322218,9.637559,-0.7568262
69350948548164,-1.4202466,9.639954,-0.7951465
69350968404293,-1.4346168,9.671089,-0.76161623
69350988260294,-1.463357,9.6686945,-0.7185059
69351008116295,-1.4465919,9.6758795,-0.8214916999999999
69351027961008,-1.4370118,9.666299,-0.8430469
69351047816753,-1.4681469999999999,9.695039999999999,-0.76880133
69351067672498,-1.4465919,9.649534,-0.75203615
69351087528243,-1.4489869,9.584868,-0.8382569
69351107374290,-1.4441968,9.5633135,-0.8262818000000001
69351127229907,-1.4322218,9.572892999999999,-0.8310718
69351147085524,-1.4370118,9.553733,-0.86939216
69351166941013,-1.4394068000000002,9.565708,-0.87178713
69351186796630,-1.4609618999999998,9.604028999999999,-0.8382569
69351206652247,-1.4801221000000002,9.606423,-0.852627
69351226505600,-1.4825171,9.659114,-0.84544194
69351246361089,-1.4920973,9.678274,-0.79993653
69351266216578,-1.4944923,9.6758795,-0.7807764
69351286072067,-1.4465919,9.620794,-0.7879615
69351305927556,-1.4489869,9.606423,-0.88376224
69351325779431,-1.4418018,9.620794,-0.9508228000000001
69351345634920,-1.453777,9.594449000000001,-0.9029224
69351365490281,-1.453777,9.544153,-0.8669971
69351385345621,-1.4346168,9.572892999999999,-0.8646021
69351405198342,-1.4298267,9.575289,-0.8765772
69351425053703,-1.4465919,9.577683,-0.80233157
69351444908936,-1.4729371,9.651928999999999,-0.75203615
69351464764297,-1.4609618999999998,9.649534,-0.8310718
69351484619530,-1.4705421,9.625584,-0.9053174
69351504474891,-1.465752,9.635164,-0.89573735
69351524336500,-1.4178516,9.611214,-0.83586186
69351544191989,-1.4274316999999999,9.618399,-0.8262818000000001
69351564047350,-1.453777,9.632769,-0.8214916999999999
69351583902711,-1.4825171,9.623189,-0.80712163
69351603758200,-1.4897022,9.613608000000001,-0.80712163
69351623616031,-1.4609618999999998,9.601633999999999,-0.84065187
69351643471520,-1.453777,9.592053,-0.8262818000000001
69351663327009,-1.4489869,9.558523,-0.84065187
69351683182370,-1.4681469999999999,9.553733,-0.8933423
69351703041741,-1.4801221000000002,9.589659,-0.92208254
69351722897102,-1.5232325,9.616004,-0.8765772
69351742752591,-1.5639478,9.606423,-0.7759864000000001
69351762608080,-1.5256275,9.604028999999999,-0.7592211999999999
69351782463569,-1.4370118,9.635164,-0.82388675
69351802319058,-1.4322218,9.642349000000001,-0.90052736
69351822170555,-1.4849122,9.656719,-0.87178713
69351842025788,-1.5112573999999999,9.642349000000001,-0.73527104
69351861881127,-1.5136524,9.625584,-0.80712163
69351881736488,-1.4801221000000002,9.64714,-0.91250247
69351901591849,-1.4250367,9.644744000000001,-0.8430469
69351921447420,-1.5208374,9.592053,-0.6993457
69351941302781,-1.5783178999999998,9.575289,-0.73527104
69351961158270,-1.5423926000000001,9.630374,-0.85741705
69351981013631,-1.4753321000000001,9.673484,-0.90771246
69352000868992,-1.4585668999999999,9.6758795,-0.8334668
69352020724481,-1.4513819,9.659114,-0.8214916999999999
69352040584462,-1.465752,9.570497999999999,-0.8765772
69352060439951,-1.5040723,9.536968,-0.9580079
69352080295440,-1.5447876,9.524992999999998,-0.8909473
69352100151057,-1.5208374,9.522598,-0.80712163
69352120017578,-1.5016773,9.584868,-0.8214916999999999
69352139873323,-1.5016773,9.616004,-0.8669971
69352159729068,-1.4825171,9.606423,-0.81909674
69352179584941,-1.4944923,9.608819,-0.80233157
69352199440686,-1.465752,9.618399,-0.8981324
69352219296559,-1.4729371,9.639954,-0.91010743
69352239151774,-1.5064673000000002,9.618399,-0.81191164
69352259007519,-1.5280225,9.618399,-0.7807764
69352278863264,-1.5112573999999999,9.618399,-0.8262818000000001
69352298719009,-1.4992822000000001,9.613608000000001,-0.8669971
69352318574754,-1.4968873,9.649534,-0.8598120000000001
69352338435640,-1.4992822000000001,9.663903999999999,-0.8382569
69352358291513,-1.4968873,9.608819,-0.83586186
69352378147386,-1.5328126,9.584868,-0.8478370000000001
69352398003259,-1.5376027,9.584868,-0.8430469
69352417865636,-1.5016773,9.592053,-0.84065187
69352437721765,-1.5088624,9.623189,-0.8334668
69352457577766,-1.5304176,9.64714,-0.8167017
69352477433895,-1.5304176,9.654325,-0.8095166
69352497290024,-1.4968873,9.639954,-0.7927515
69352517146153,-1.4944923,9.599238,-0.82388675
69352537002458,-1.4897022,9.592053,-0.8909473
69352556858587,-1.463357,9.584868,-0.974773
69352576714716,-1.456172,9.558523,-1.0059083
69352596570845,-1.5040723,9.601633999999999,-0.9867481
69352616426974,-1.5711329,9.616004,-0.9412427
69352636278031,-1.5687379,9.565708,-0.86220706
69352656134032,-1.5304176,9.541758999999999,-0.81909674
69352675990033,-1.5064673000000002,9.5489435,-0.8310718
69352695846162,-1.4849122,9.604028999999999,-0.85741705
69352715701359,-1.4873072,9.623189,-0.90052736
69352735557360,-1.5112573999999999,9.604028999999999,-0.9148975
69352755413361,-1.4992822000000001,9.604028999999999,-0.96040285
69352775269234,-1.4968873,9.623189,-0.9484278
69352795125235,-1.5208374,9.663903999999999,-0.84544194
69352814981215,-1.5088624,9.64714,-0.7879615
69352834829096,-1.4944923,9.639954,-0.8214916999999999
69352854684841,-1.4897022,9.618399,-0.84065187
69352874540714,-1.4849122,9.623189,-0.9029224
69352894396587,-1.4681469999999999,9.606423,-0.9364527
69352914252332,-1.4681469999999999,9.580078,-0.9412427
69352934107469,-1.4897022,9.551338000000001,-0.9148975
69352953963207,-1.4944923,9.544153,-0.8909473
69352973819080,-1.4849122,9.522598,-0.87897223
69352993674823,-1.4873072,9.539363,-0.8765772
69353013530567,-1.4992822000000001,9.553733,-0.8933423
69353033386440,-1.5112573999999999,9.630374,-0.94603276
69353053236972,-1.5208374,9.707015,-0.94603276
69353073092588,-1.5208374,9.79084,-0.9053174
69353092948205,-1.5208374,9.73815,-0.8646021
69353112803948,-1.5016773,9.663903999999999,-0.8310718
69353132655633,-1.4801221000000002,9.616004,-0.8598120000000001
69353152511122,-1.465752,9.565708,-0.8765772
69353172366737,-1.4705421,9.570497999999999,-0.85741705
69353192222353,-1.4489869,9.5633135,-0.90771246
69353212077970,-1.463357,9.539363,-0.98435307
69353231935871,-1.5136524,9.536968,-0.9388476999999998
69353251791487,-1.4944923,9.575289,-0.8669971
69353271647232,-1.4681469999999999,9.620794,-0.8981324
69353291502847,-1.4873072,9.666299,-0.87178713
69353311358463,-1.5376027,9.702225,-0.7831714
69353331214080,-1.5735278999999998,9.704619000000001,-0.8478370000000001
69353351064875,-1.5160475,9.671089,-0.9053174
69353370920491,-1.4609618999999998,9.639954,-0.82388675
69353390776108,-1.4394068000000002,9.606423,-0.7927515
69353410631723,-1.4058765,9.570497999999999,-0.86220706
69353430483347,-1.4585668999999999,9.541758999999999,-0.90771246
69353450338836,-1.4944923,9.553733,-0.8933423
69353470194325,-1.4992822000000001,9.572892999999999,-0.83586186
69353490049686,-1.5112573999999999,9.580078,-0.8167017
69353509905175,-1.5280225,9.560919,-0.8478370000000001
69353529767760,-1.5352076000000001,9.5489435,-0.8646021
69353549623249,-1.5040723,9.544153,-0.8598120000000001
69353569478738,-1.4609618999999998,9.584868,-0.87418216
69353589334227,-1.4394068000000002,9.625584,-0.9196875
69353609189844,-1.4825171,9.6758795,-0.92926764
69353629045333,-1.5088624,9.7142,-0.8909473
69353648892934,-1.4968873,9.702225,-0.86220706
69353668748156,-1.5040723,9.683064,-0.8669971
69353688603517,-1.4920973,9.654325,-0.8813671999999999
69353708458876,-1.4897022,9.644744000000001,-0.8861573
69353728318128,-1.4585668999999999,9.560919,-0.8646021
69353748173617,-1.465752,9.522598,-0.8933423
69353768028976,-1.453777,9.513017999999999,-0.90771246
69353787884464,-1.4465919,9.462723,-0.9029224
69353807739825,-1.4825171,9.441168,-0.8981324
69353827595312,-1.477727,9.496253,-0.9029224
69353847451974,-1.4729371,9.601633999999999,-0.8669971
69353867307463,-1.5040723,9.678274,-0.8813671999999999
69353887162822,-1.5567628,9.721385,-0.852627
69353907018310,-1.5591576999999999,9.7621,-0.85741705
69353926873799,-1.5328126,9.742939999999999,-0.91250247
69353946734018,-1.5184423999999999,9.697434,-0.8981324
69353966589634,-1.5160475,9.6615095,-0.8669971
69353986445123,-1.5016773,9.582474000000001,-0.9244776
69354006300738,-1.4897022,9.5489435,-1.0585986
69354026159873,-1.4920973,9.546548,-1.0633887
69354046015618,-1.5112573999999999,9.551338000000001,-0.9867481
69354065871233,-1.5495777,9.527389,-0.9244776
69354085726849,-1.5567628,9.527389,-0.9244776
69354105582466,-1.5471827,9.532178,-0.9244776
69354125438209,-1.5615528,9.539363,-0.91250247
69354145289724,-1.5423926000000001,9.570497999999999,-0.89573735
69354165145341,-1.5160475,9.606423,-0.9268726
69354185000956,-1.4873072,9.625584,-0.9987232
69354204852053,-1.4897022,9.651928999999999,-0.99393314
69354224707670,-1.5160475,9.666299,-0.9963281999999999
69354244570793,-1.5591576999999999,9.683064,-0.9364527
69354264426538,-1.5687379,9.659114,-0.86220706
69354284282283,-1.5208374,9.606423,-0.88376224
69354304138028,-1.477727,9.536968,-0.92926764
69354323999143,-1.4729371,9.551338000000001,-0.96040285
69354343855016,-1.4849122,9.5489435,-0.9963281999999999
69354363710889,-1.5232325,9.515413,-1.0394385
69354383566890,-1.5399976,9.510622999999999,-1.0418334999999999
69354403422763,-1.5232325,9.5633135,-1.0083033000000001
69354423278636,-1.5136524,9.623189,-0.96040285
69354443132689,-1.5112573999999999,9.656719,-0.8813671999999999
69354462988562,-1.5447876,9.64714,-0.88376224
69354482844307,-1.5423926000000001,9.64714,-0.91250247
69354502700180,-1.5040723,9.659114,-0.9268726
69354522556053,-1.463357,9.656719,-0.92926764
69354542413440,-1.4394068000000002,9.635164,-0.97956306
69354562269313,-1.4489869,9.601633999999999,-0.9867481
69354582125186,-1.5184423999999999,9.568104,-0.99393314
69354601981187,-1.5352076000000001,9.553733,-0.98914313
69354621837060,-1.5208374,9.560919,-0.9532178
69354641692933,-1.5184423999999999,9.5489435,-0.91010743
69354661552810,-1.5040723,9.541758999999999,-0.9196875
69354681408790,-1.5136524,9.572892999999999,-0.96040285
69354701264791,-1.5304176,9.618399,-0.97956306
69354721120792,-1.5208374,9.663903999999999,-0.95561284
69354740974093,-1.4753321000000001,9.663903999999999,-0.91729254
69354760829966,-1.5112573999999999,9.577683,-0.90052736
69354780685967,-1.5519726999999999,9.616004,-0.91729254
69354800541840,-1.5184423999999999,9.616004,-0.90771246
69354820397841,-1.4968873,9.596844,-0.92208254
69354840249622,-1.4944923,9.616004,-0.9364527
69354860105495,-1.4992822000000001,9.601633999999999,-0.9580079
69354879961496,-1.5208374,9.5633135,-0.9316626
69354899817369,-1.5160475,9.606423,-0.9412427
69354919673242,-1.5016773,9.613608000000001,-0.9388476999999998
69354939529115,-1.5376027,9.568104,-0.9364527
69354959374846,-1.5471827,9.558523,-0.90771246
69354979230591,-1.5088624,9.587264,-0.9148975
69354999086208,-1.477727,9.637559,-0.9532178
69355018941825,-1.5304176,9.64714,-0.8861573
69355038791848,-1.5567628,9.623189,-0.87897223
69355058647337,-1.5208374,9.580078,-0.91010743
69355078502826,-1.4920973,9.604028999999999,-0.9053174
69355098358315,-1.4801221000000002,9.616004,-0.852627
69355118213804,-1.4849122,9.582474000000001,-0.91729254
69355138071507,-1.5328126,9.560919,-0.96758795
69355157927105,-1.5687379,9.572892999999999,-0.93405765
69355177782722,-1.5376027,9.577683,-0.8861573
69355197638339,-1.4897022,9.611214,-0.84065187
69355217493956,-1.4849122,9.642349000000001,-0.84065187
69355237349573,-1.4825171,9.64714,-0.83586186
69355257205426,-1.5040723,9.623189,-0.8214916999999999
69355277061043,-1.5208374,9.592053,-0.87178713
69355296916532,-1.5160475,9.599238,-0.9148975
69355316772149,-1.4968873,9.627979,-0.9053174
69355336619722,-1.4729371,9.589659,-0.8286768
69355356475083,-1.4944923,9.570497999999999,-0.86939216
69355376330444,-1.5423926000000001,9.5561285,-0.8909473
69355396185933,-1.5232325,9.604028999999999,-0.85741705
69355416041294,-1.5064673000000002,9.627979,-0.86220706
69355435896655,-1.4873072,9.596844,-0.86220706
69355455754152,-1.4968873,9.608819,-0.8430469
69355475609513,-1.5160475,9.663903999999999,-0.8598120000000001
69355495465002,-1.5064673000000002,9.599238,-0.8382569
69355515320363,-1.5232325,9.553733,-0.8669971
69355535175724,-1.4801221000000002,9.580078,-0.8478370000000001
69355555031859,-1.4250367,9.642349000000001,-0.855022
69355574887348,-1.4202466,9.632769,-0.9053174
69355594742709,-1.4825171,9.613608000000001,-0.85023195
69355614598070,-1.5352076000000001,9.589659,-0.79993653
69355634453481,-1.5016773,9.560919,-0.83586186
69355654308842,-1.477727,9.582474000000001,-0.87178713
69355674164203,-1.4753321000000001,9.584868,-0.8765772
69355694019692,-1.465752,9.580078,-0.91729254
69355713875053,-1.4920973,9.582474000000001,-0.9244776
69355733730414,-1.5040723,9.64714,-0.8885523000000001
69355753585629,-1.463357,9.644744000000001,-0.8885523000000001
69355773440990,-1.456172,9.642349000000001,-0.87897223
69355793296223,-1.4753321000000001,9.627979,-0.8669971
69355813151584,-1.4873072,9.635164,-0.86939216
69355833006945,-1.4944923,9.601633999999999,-0.8885523000000001
69355852864276,-1.4825171,9.630374,-0.90771246
69355872719637,-1.477727,9.639954,-0.8861573
69355892574998,-1.4801221000000002,9.618399,-0.91010743
69355912430359,-1.4753321000000001,9.589659,-0.91250247
69355932288640,-1.4944923,9.572892999999999,-0.9268726
69355952144001,-1.4873072,9.539363,-0.87897223
69355971999490,-1.4968873,9.527389,-0.8430469
69355991854979,-1.4849122,9.568104,-0.86220706
69356011710340,-1.4729371,9.589659,-0.9268726
69356031565829,-1.4801221000000002,9.616004,-0.92208254
69356051430382,-1.4920973,9.687855,-0.83586186
69356071285999,-1.4920973,9.690249,-0.8933423
69356091141616,-1.5112573999999999,9.613608000000001,-0.94603276
69356110997209,-1.4968873,9.599238,-0.85023195
69356130852826,-1.4681469999999999,9.608819,-0.80712163
69356150713059,-1.4489869,9.635164,-0.88376224
69356170568804,-1.4370118,9.606423,-0.88376224
69356190424549,-1.4729371,9.584868,-0.87897223
69356210280294,-1.4729371,9.5633135,-0.91010743
69356230135075,-1.4705421,9.560919,-0.9053174
69356249990820,-1.4609618999999998,9.546548,-0.855022
69356269846693,-1.4609618999999998,9.558523,-0.8933423
69356289702438,-1.4944923,9.580078,-0.9244776
69356309558311,-1.5208374,9.635164,-0.92208254
69356329414056,-1.5088624,9.6686945,-0.89573735
69356349271435,-1.5040723,9.68067,-0.8598120000000001
69356369127308,-1.5088624,9.654325,-0.83586186
69356388983181,-1.5040723,9.632769,-0.8765772
69356408839054,-1.4920973,9.613608000000001,-0.8933423
69356428694927,-1.4849122,9.611214,-0.86220706
69356448550404,-1.477727,9.582474000000001,-0.8669971
69356468406277,-1.4801221000000002,9.570497999999999,-0.8933423
69356488262150,-1.477727,9.551338000000001,-0.9268726
69356508118023,-1.4968873,9.577683,-0.8933423
69356527973896,-1.5160475,9.599238,-0.8646021
69356547829769,-1.5160475,9.580078,-0.85741705
69356567687476,-1.5136524,9.599238,-0.8981324
69356587543326,-1.4944923,9.620794,-0.90052736
69356607399199,-1.4968873,9.618399,-0.8765772
69356627255072,-1.4992822000000001,9.656719,-0.86220706
69356647111499,-1.5112573999999999,9.654325,-0.8765772
69356666967372,-1.4968873,9.630374,-0.8861573
69356686823245,-1.4968873,9.618399,-0.855022
69356706679118,-1.4729371,9.601633999999999,-0.855022
69356726535119,-1.4489869,9.625584,-0.87418216
69356746395894,-1.4801221000000002,9.604028999999999,-0.8765772
69356766251895,-1.5040723,9.568104,-0.852627
69356786107896,-1.4920973,9.553733,-0.91729254
69356805963897,-1.4944923,9.570497999999999,-0.9388476999999998
69356825819770,-1.477727,9.568104,-0.8933423
69356845675771,-1.5016773,9.594449000000001,-0.8981324
69356865533600,-1.5352076000000001,9.630374,-0.9484278
69356885389601,-1.5447876,9.656719,-0.9244776
69356905245730,-1.5423926000000001,9.6686945,-0.8646021
69356925101859,-1.5376027,9.654325,-0.8167017
69356944951858,-1.5016773,9.635164,-0.84065187
69356964807731,-1.4920973,9.627979,-0.8646021
69356984663604,-1.5088624,9.596844,-0.87897223
69357004519605,-1.4968873,9.580078,-0.91010743
69357024375478,-1.4801221000000002,9.532178,-0.92208254
69357044231135,-1.4729371,9.513017999999999,-0.91729254
69357064087114,-1.5016773,9.532178,-0.88376224
69357083942987,-1.5352076000000001,9.558523,-0.87178713
69357103798860,-1.5352076000000001,9.558523,-0.8885523000000001
69357123654861,-1.5423926000000001,9.606423,-0.88376224
69357143510734,-1.5495777,9.6686945,-0.8981324
69357163364407,-1.5208374,9.666299,-0.91250247
69357183220280,-1.4897022,9.690249,-0.9196875
69357203076153,-1.5112573999999999,9.711803999999999,-0.8909473
69357222932026,-1.5208374,9.6686945,-0.89573735
69357242784297,-1.5423926000000001,9.584868,-0.87178713
69357262640042,-1.5184423999999999,9.560919,-0.8669971
69357282495915,-1.4801221000000002,9.570497999999999,-0.8598120000000001
69357302351660,-1.4849122,9.587264,-0.89573735
69357322207533,-1.4968873,9.5489435,-0.8885523000000001
69357342063278,-1.5112573999999999,9.534574000000001,-0.9029224
69357361918815,-1.5208374,9.515413,-0.92208254
69357381774688,-1.5160475,9.5561285,-0.91010743
69357401630433,-1.5399976,9.577683,-0.8765772
69357421486306,-1.5232325,9.587264,-0.9053174
69357441342051,-1.5471827,9.630374,-0.9316626
69357461190786,-1.5519726999999999,9.656719,-0.91010743
69357481046403,-1.5376027,9.68067,-0.86220706
69357500902020,-1.5304176,9.699829,-0.85741705
69357520757637,-1.5088624,9.659114,-0.8598120000000001
69357540618213,-1.5208374,9.599238,-0.86220706
69357560473958,-1.5471827,9.560919,-0.8669971
69357580329575,-1.5352076000000001,9.546548,-0.91250247
69357600185320,-1.4944923,9.546548,-0.9268726
69357620041065,-1.5040723,9.551338000000001,-0.91010743
69357639896682,-1.5280225,9.541758999999999,-0.88376224
69357659757071,-1.5232325,9.551338000000001,-0.84065187
69357679612816,-1.5064673000000002,9.577683,-0.86220706
69357699468689,-1.5208374,9.572892999999999,-0.8861573
69357719324562,-1.5519726999999999,9.623189,-0.87178713
69357739180307,-1.5423926000000001,9.6758795,-0.8765772
69357759036224,-1.5088624,9.654325,-0.91250247
69357778892097,-1.5064673000000002,9.632769,-0.91250247
69357798747970,-1.5256275,9.666299,-0.8310718
69357818603843,-1.4944923,9.604028999999999,-0.8214916999999999
69357838453414,-1.5016773,9.565708,-0.90771246
69357858309159,-1.5136524,9.553733,-0.90771246
69357878164776,-1.5184423999999999,9.568104,-0.8861573
69357898020521,-1.5208374,9.599238,-0.8933423
69357917876138,-1.5160475,9.616004,-0.87178713
69357937731883,-1.5136524,9.589659,-0.84065187
69357957584776,-1.5399976,9.584868,-0.85023195
69357977440393,-1.5304176,9.599238,-0.852627
69357997296010,-1.5160475,9.623189,-0.8669971
69358017151604,-1.5208374,9.606423,-0.92208254
69358037007221,-1.5639478,9.592053,-0.91250247
69358056868746,-1.5615528,9.608819,-0.84065187
69358076724363,-1.5160475,9.599238,-0.855022
69358096580108,-1.4992822000000001,9.625584,-0.8598120000000001
69358116435725,-1.5040723,9.608819,-0.8310718
69358136291470,-1.5064673000000002,9.616004,-0.852627
69358156147215,-1.5064673000000002,9.577683,-0.8861573
69358176007160,-1.5088624,9.606423,-0.87418216
69358195862905,-1.4968873,9.577683,-0.82388675
69358215718650,-1.4801221000000002,9.584868,-0.8310718
69358235574523,-1.4609618999999998,9.589659,-0.87418216
69358255435358,-1.4801221000000002,9.618399,-0.8885523000000001
69358275291231,-1.4825171,9.604028999999999,-0.8478370000000001
69358295147104,-1.4729371,9.613608000000001,-0.84065187
69358315002977,-1.4753321000000001,9.611214,-0.79035646
69358334858850,-1.4585668999999999,9.604028999999999,-0.81909674
69358354716319,-1.4585668999999999,9.558523,-0.8382569
69358374572320,-1.4465919,9.539363,-0.8669971
69358394428321,-1.456172,9.620794,-0.85741705
69358414284322,-1.4609618999999998,9.685459,-0.8262818000000001
69358434140323,-1.477727,9.6686945,-0.8885523000000001
69358453996324,-1.4873072,9.625584,-0.89573735
69358473855117,-1.463357,9.604028999999999,-0.8095166
69358493711096,-1.4753321000000001,9.666299,-0.7759864000000001
69358513567225,-1.5280225,9.673484,-0.81191164
69358533423226,-1.5280225,9.644744000000001,-0.88376224
69358553281701,-1.5232325,9.639954,-0.9268726
69358573137830,-1.5256275,9.604028999999999,-0.9268726
69358592993959,-1.5280225,9.582474000000001,-0.8669971
69358612850088,-1.4849122,9.522598,-0.8669971
69358632706217,-1.4705421,9.517808,-0.9029224
69358652555666,-1.463357,9.527389,-0.8765772
69358672411667,-1.4609618999999998,9.584868,-0.8861573
69358692267668,-1.4753321000000001,9.596844,-0.8861573
69358712123669,-1.5040723,9.611214,-0.9148975
69358731979670,-1.5256275,9.632769,-0.87178713
69358751835671,-1.5352076000000001,9.642349000000001,-0.8430469
69358771688576,-1.5064673000000002,9.632769,-0.82388675
69358791544449,-1.465752,9.654325,-0.8478370000000001
69358811400450,-1.477727,9.644744000000001,-0.86220706
69358831256323,-1.477727,9.649534,-0.87897223
69358851111508,-1.4753321000000001,9.620794,-0.90052736
69358870967509,-1.4681469999999999,9.618399,-0.8861573
69358890823382,-1.465752,9.627979,-0.87418216
69358910679383,-1.453777,9.620794,-0.85023195
69358930535256,-1.4681469999999999,9.575289,-0.852627
69358950391129,-1.477727,9.572892999999999,-0.87897223
69358970240858,-1.4585668999999999,9.551338000000001,-0.8669971
69358990096603,-1.453777,9.570497999999999,-0.87178713
69359009952476,-1.477727,9.642349000000001,-0.855022
69359029808221,-1.463357,9.601633999999999,-0.86220706
69359049664094,-1.4753321000000001,9.592053,-0.8909473
69359069512843,-1.4705421,9.608819,-0.87418216
69359089368460,-1.456172,9.627979,-0.85023195
69359109224077,-1.463357,9.611214,-0.85741705
69359129079694,-1.4968873,9.623189,-0.8598120000000001
69359148933299,-1.5160475,9.613608000000001,-0.8286768
69359168788788,-1.4873072,9.632769,-0.86220706
69359188644405,-1.4489869,9.630374,-0.8813671999999999
69359208500022,-1.4753321000000001,9.620794,-0.8646021
69359228355639,-1.463357,9.587264,-0.8646021
69359248211256,-1.465752,9.584868,-0.9316626
69359268065245,-1.4968873,9.596844,-0.92926764
69359287920862,-1.5399976,9.596844,-0.87897223
69359307776351,-1.5328126,9.613608000000001,-0.86220706
69359327631968,-1.5040723,9.632769,-0.852627
69359347487457,-1.4968873,9.608819,-0.86939216
69359367334614,-1.4873072,9.644744000000001,-0.9029224
69359387189975,-1.4729371,9.64714,-0.88376224
69359407045336,-1.477727,9.627979,-0.8669971
69359426900697,-1.4920973,9.580078,-0.85741705
69359446757872,-1.477727,9.5633135,-0.8478370000000001
69359466613233,-1.463357,9.582474000000001,-0.8478370000000001
69359486468466,-1.453777,9.616004,-0.86939216
69359506323827,-1.4585668999999999,9.604028999999999,-0.87178713
69359526179188,-1.4705421,9.582474000000001,-0.88376224
69359546034549,-1.4753321000000001,9.587264,-0.8909473
69359565892574,-1.4849122,9.606423,-0.8669971
69359585747935,-1.477727,9.580078,-0.84544194
69359605603296,-1.477727,9.608819,-0.852627
69359625458529,-1.4873072,9.663903999999999,-0.8646021
69359645313890,-1.4873072,9.649534,-0.8669971
69359665169717,-1.5088624,9.666299,-0.92208254
69359685025078,-1.4849122,9.673484,-0.90771246
69359704880439,-1.4729371,9.685459,-0.8646021
69359724735800,-1.4681469999999999,9.64714,-0.80712163
69359744591033,-1.463357,9.592053,-0.7544312
69359764446394,-1.4465919,9.553733,-0.8382569
69359784304277,-1.4513819,9.582474000000001,-0.92208254
69359804159638,-1.4681469999999999,9.587264,-0.86939216
69359824014999,-1.463357,9.582474000000001,-0.8334668
69359843870360,-1.463357,9.594449000000001,-0.89573735
69359863729787,-1.5016773,9.601633999999999,-0.9532178
69359883585276,-1.5735278999999998,9.601633999999999,-0.8478370000000001
69359903440765,-1.590293,9.568104,-0.728086
69359923296232,-1.5160475,9.587264,-0.77359134
69359943151721,-1.4298267,9.611214,-0.93405765
69359963009996,-1.465752,9.651928999999999,-1.0059083
69359982865485,-1.5256275,9.6758795,-0.8262818000000001
69360002721102,-1.5280225,9.666299,-0.7041358
69360022576591,-1.4920973,9.623189,-0.85023195
69360042432080,-1.5136524,9.613608000000001,-0.89573735
69360062287697,-1.5040723,9.611214,-0.7711963000000001
69360082145916,-1.4585668999999999,9.570497999999999,-0.7759864000000001
69360102001533,-1.465752,9.532178,-0.9053174
69360121857150,-1.5160475,9.534574000000001,-0.9699829
69360141712767,-1.5256275,9.536968,-0.90771246
69360161575644,-1.4992822000000001,9.589659,-0.8646021
69360181431389,-1.4968873,9.64714,-0.80233157
69360201287262,-1.477727,9.663903999999999,-0.79754156
69360221143135,-1.4873072,9.68067,-0.79993653
69360240998880,-1.5136524,9.74773,-0.8334668
69360260857807,-1.5136524,9.656719,-0.8885523000000001
69360280713680,-1.5112573999999999,9.558523,-0.8669971
69360300569553,-1.5184423999999999,9.575289,-0.84065187
69360320425426,-1.4729371,9.592053,-0.8286768
69360340281299,-1.465752,9.592053,-0.81191164
69360360137172,-1.4944923,9.596844,-0.7783814
69360379987011,-1.5016773,9.589659,-0.86220706
69360399842734,-1.5160475,9.594449000000001,-0.9484278
69360419698607,-1.5352076000000001,9.604028999999999,-0.87178713
69360439554352,-1.5208374,9.616004,-0.7951465
69360459410975,-1.5040723,9.596844,-0.82388675
69360479266848,-1.4897022,9.611214,-0.87178713
69360499122721,-1.4944923,9.637559,-0.8885523000000001
69360518978594,-1.5232325,9.666299,-0.87897223
69360538834467,-1.5136524,9.654325,-0.8310718
69360558690212,-1.4873072,9.601633999999999,-0.79035646
69360578547333,-1.4920973,9.580078,-0.855022
69360598403206,-1.5064673000000002,9.592053,-0.85023195
69360618259079,-1.5160475,9.611214,-0.82388675
69360638114824,-1.5136524,9.594449000000001,-0.852627
69360657970697,-1.5160475,9.611214,-0.92926764
69360677827826,-1.4992822000000001,9.613608000000001,-0.89573735
69360697683699,-1.5064673000000002,9.632769,-0.852627
69360717539572,-1.5256275,9.618399,-0.8167017
69360737395445,-1.5376027,9.616004,-0.8143066999999999
69360757255456,-1.5328126,9.613608000000001,-0.8214916999999999
69360777111457,-1.5208374,9.627979,-0.81909674
69360796967458,-1.4920973,9.618399,-0.8167017
69360816823459,-1.465752,9.572892999999999,-0.8981324
69360836679332,-1.4489869,9.565708,-0.91250247
69360856535333,-1.4705421,9.601633999999999,-0.86220706
69360876392701,-1.5304176,9.584868,-0.84065187
69360896248702,-1.5256275,9.560919,-0.852627
69360916104703,-1.4944923,9.592053,-0.81191164
69360935960704,-1.4825171,9.639954,-0.80233157
69360955816705,-1.5064673000000002,9.642349000000001,-0.8167017
69360975660462,-1.5352076000000001,9.623189,-0.84065187
69360995516207,-1.5376027,9.5633135,-0.9053174
69361015371824,-1.5160475,9.501043,-0.8981324
69361035227569,-1.4992822000000001,9.508227999999999,-0.84544194
69361055071836,-1.4968873,9.558523,-0.8167017
69361074927325,-1.4897022,9.637559,-0.85023195
69361094782814,-1.4992822000000001,9.666299,-0.89573735
69361114638431,-1.4992822000000001,9.73815,-0.8909473
69361134493920,-1.5184423999999999,9.759705,-0.8143066999999999
69361154349409,-1.5663428,9.745335,-0.80712163
69361174200576,-1.5783178999999998,9.663903999999999,-0.76161623
69361194055937,-1.5687379,9.592053,-0.7496411000000001
69361213911426,-1.5232325,9.541758999999999,-0.852627
69361233766787,-1.5208374,9.560919,-0.99393314
69361253622276,-1.5447876,9.527389,-0.9436377
69361273478993,-1.4825171,9.584868,-0.9268726
69361293334482,-1.5016773,9.517808,-0.80233157
69361313189843,-1.4441968,9.524992999999998,-0.9412427
69361333045332,-1.7986598000000003,9.570497999999999,-1.0083033000000001
69361352900671,-1.6789087,9.613608000000001,-0.6059399999999999
69361372756032,-1.4202466,9.551338000000001,-0.5939649
69361392613801,-1.2406201000000001,9.673484,-0.86939216
69361412469162,-1.2933106,9.582474000000001,-1.1256591999999999
69361432324651,-1.3771361999999998,9.635164,-1.0657837
69361452180012,-1.4250367,9.72378,-0.8382569
69361472039639,-1.465752,9.716595,-0.87418216
69361491895128,-1.5376027,9.639954,-0.8143066999999999
69361511750617,-1.5376027,9.618399,-0.70174074
69361531606106,-1.4465919,9.608819,-0.8143066999999999
69361551461595,-1.4394068000000002,9.584868,-0.9364527
69361571315408,-1.4705421,9.565708,-0.86220706
69361591170897,-1.5184423999999999,9.5489435,-0.8167017
69361611026258,-1.5423926000000001,9.560919,-0.8981324
69361630881747,-1.4873072,9.572892999999999,-0.9412427
69361650737236,-1.4873072,9.613608000000001,-0.852627
69361670592725,-1.5328126,9.642349000000001,-0.78556645
69361690450744,-1.5423926000000001,9.651928999999999,-0.80712163
69361710306105,-1.5280225,9.642349000000001,-0.76161623
69361730161594,-1.4897022,9.630374,-0.7161109
69361750017083,-1.4394068000000002,9.637559,-0.732876
69361769875046,-1.4058765,9.620794,-0.79754156
69361789730535,-1.4058765,9.539363,-0.8885523000000001
69361809586152,-1.4154567,9.570497999999999,-0.8933423
69361829441619,-1.4944923,9.623189,-0.84065187
69361849297236,-1.5495777,9.620794,-0.7831714
69361869153213,-1.5807129,9.568104,-0.75203615
69361889008830,-1.5783178999999998,9.534574000000001,-0.7927515
69361908864447,-1.5208374,9.580078,-0.8095166
69361928719936,-1.4825171,9.608819,-0.81191164
69361948575553,-1.5016773,9.599238,-0.8334668
69361968431170,-1.5280225,9.580078,-0.8933423
69361988281381,-1.5711329,9.620794,-0.98435307
69362008136742,-1.6262183000000001,9.666299,-0.96040285
69362027992231,-1.6956740000000001,9.687855,-0.8214916999999999
69362047847592,-1.6669337,9.656719,-0.6706055000000001
69362067703867,-1.6453785,9.630374,-0.7232959
69362087559356,-1.6549585999999998,9.572892999999999,-0.91250247
69362107414717,-1.6190332,9.584868,-0.9627979
69362127270206,-1.5399976,9.601633999999999,-0.9196875
69362147125695,-1.5040723,9.616004,-0.9436377
69362166981056,-1.5519726999999999,9.623189,-0.96758795
69362186835245,-1.5783178999999998,9.604028999999999,-0.9508228000000001
69362206690606,-1.5447876,9.589659,-0.85741705
69362226546095,-1.6094532,9.534574000000001,-0.7065308000000001
69362246401456,-1.5687379,9.515413,-0.732876
69362266256945,-1.4489869,9.553733,-0.9148975
69362286116116,-1.4513819,9.568104,-0.98914313
69362305971711,-1.5136524,9.592053,-0.87178713
69362325827200,-1.4681469999999999,9.618399,-0.83586186
69362345682689,-1.4370118,9.632769,-0.9268726
69362365546742,-1.4753321000000001,9.64714,-0.9316626
69362385402487,-1.5352076000000001,9.651928999999999,-0.80233157
69362405258232,-1.575923,9.671089,-0.7161109
69362425113977,-1.5208374,9.659114,-0.7711963000000001
69362444969722,-1.5064673000000002,9.627979,-0.8310718
