UPTIMENANO,Ax,Ay,Az
69331032758796,-0.19272561,-1.841068,8.1531105
69331052615053,0.24432953,-1.3368639,10.002881
69331072471436,0.4735288,-0.03085832,11.889621
69331092327820,0.35599518,0.50131357,11.100816
69331112184205,-0.05248681,0.65236765,9.576682
69331132040626,-0.22894035,-0.08335181,8.984327
69331151897010,-0.08379892,-0.6472601,9.8978815
69331171753395,0.7064564,-0.59275854,10.395354
69331191610269,0.56553733,-0.96418446,9.687012
69331211466653,-0.27516675,-0.34364352,10.165481
69331231323038,-0.0051105246,0.7624347,10.315379
69331251176989,0.03696426,0.42564318,9.636796
69331271033245,-0.4133175,-0.050631687,9.53731
69331290889630,-0.30564705,0.30153397,10.070324
69331310746013,0.31458974,0.86451644,10.630966
69331330604780,0.4468039,0.8460809,11.007509
69331350461165,0.6901059,1.4211606,10.72508
69331370317548,-0.096221566,0.3804848,9.759653
69331390173932,-0.33027464,-0.9062525,9.827103
69331410030317,0.14796987,-0.83943754,10.08984
69331429886596,-0.14768302,-0.89423823,9.035725
69331449742980,-1.288499,-0.9694478,8.016121
69331469599365,-0.07957734,-0.65994173,9.802857
69331489455748,1.1522309,-0.7368186,10.346158
69331509312132,-0.1425553,0.29640943,9.45204
69331529168389,-0.36906388,0.98654455,10.016964
69331549030319,0.19306532,0.2674908,9.781636
69331568886831,-0.5999239,0.107084915,8.608824
69331588743216,-1.3024608,1.0042044,8.576585
69331608599727,-0.6830789,0.50537884,9.281372
69331628456467,0.5542078,0.002436967,9.873627
69331648312980,0.50371826,0.25276497,9.471683
69331668169363,-1.0502275,0.6938286,8.552591
69331688025875,-1.0917778,0.5615727,8.742369
69331707882388,0.32299554,0.095855825,9.766379
69331727738899,1.4201171,-0.012994731,10.89813
69331747594478,0.61498165,0.21414174,10.245345
69331767450863,-0.14658861,-0.13792624,9.2173
69331787307374,-0.33092266,-0.32836822,9.674989
69331807163886,1.1364136,0.096543536,10.406818
69331827020271,2.3676138,0.29256904,11.177399
69331846880220,0.85208535,-0.73174345,10.57548
69331866736732,-0.70099854,-0.27151772,10.241101
69331886593373,-0.79590935,0.15915683,9.710763
69331906449884,-1.2092006,0.23780486,9.007939
69331926300278,0.8560236,0.24797016,10.144715
69331946156663,0.5162049,-0.6283555,10.188772
69331966013046,-0.39714906,0.33238387,9.062843
69331985869430,-0.3014541,0.7249923,9.926487
69332005725815,-0.16652802,-0.54727674,10.524639
69332025582326,-0.62752825,-0.56609726,9.179815
69332045434624,-1.0131723,0.19534086,9.1385565
69332065290881,-0.60839164,-0.08403478,9.068732
69332085147264,-0.1339367,-0.44414017,9.181753
69332105003520,0.48733434,-0.52784616,9.845202
69332124859905,0.6393604,-0.75984234,10.305507
69332144723573,1.1511091,-0.48746544,9.644462
69332164580085,1.1588612,0.22765996,9.124754
69332184436598,0.4467444,0.016286507,10.025124
69332204292981,0.9635235,0.24766149,10.724181
69332224151549,0.3237112,-0.0031180705,10.731104
69332244008062,-0.32919067,0.4869326,10.390501
69332263864573,-0.22058953,0.3515434,10.52063
69332283721213,0.42950243,-0.34831318,10.569874
69332303577726,0.72065413,-0.7767127,10.012755
69332323434237,1.4891806,-1.4252348,9.387643
69332343295258,1.0765269,-1.1771625,10.616073
69332363151899,0.66783506,0.9870454,11.335569
69332383008538,-0.34544137,2.8697023,10.616103
69332402865178,-0.27060017,2.06114,10.284078
69332422721819,0.32514864,0.37852257,10.524019
69332442576544,0.9572326,-0.3013463,10.565826
69332462433184,-1.0600706,0.8685167,7.4948134
69332482289825,-2.2583334,2.3979416,4.5480742
69332502146336,-1.3733448,0.6361117,5.4559693
69332522010461,-1.0397909,-0.24760897,6.1015954
69332541867102,-0.613137,-0.6446197,6.42253
69332561723869,-0.4981912,-0.97093207,6.785492
69332581580637,-0.5612731,-0.7992244,6.9169016
69332601437406,-0.03544969,0.055491388,6.4823346
69332621294173,0.19259314,1.2746259,6.835327
69332641149472,0.48879015,1.9119675,7.88255
69332661006241,1.5343817,1.9235231,8.734518
69332680862880,1.7002616,1.7901183,10.586604
69332700719648,0.98615605,1.2942446,11.739632
69332720576417,1.703026,0.7875893,11.187576
69332740430465,1.7919272,1.2195904,11.381815
69332760287105,0.96571684,1.7362316,13.028952
69332780143874,0.5475441,1.9278524,14.5309925
69332800000513,0.34151942,0.88039964,14.435162
69332819857281,0.3242874,-0.7695721,12.476577
69332839713922,0.6377616,-1.2970607,9.617212
69332859566642,2.4903514,0.21139893,1.6805764
69332879423154,2.9390843,-1.1586163,-0.27522543
69332899279795,1.3625332,-0.39483014,5.708073
69332919136306,0.70347714,4.7482705,5.2145243
69332938981816,-0.3126839,6.1346893,8.755802
69332958838201,-0.6089141,6.3796964,7.647498
69332978694584,0.88334405,9.023995,9.053037
69332998550968,0.7475648,7.015819,14.035863
69333018407352,-0.6479311,-0.63291585,11.143822
69333038263608,-0.29931992,-3.7006443,6.7984753
69333058116024,-1.1516562,-1.4412405,3.1226592
69333077972280,-2.8282943,0.16177037,7.0115995
69333097828536,-2.1927738,0.2360496,12.061642
69333117684920,-0.170576,2.2022383,14.235701
69333137541176,-3.5172994,5.9718466,11.267884
69333157391544,-5.396494,6.656194,11.263378
69333177247800,3.6708565,2.325627,14.299427
69333197103928,2.525419,-5.3194776,8.561398
69333216960752,-3.5647194,-2.134805,13.314473
69333236816880,-2.3440318,-3.3216357,17.24217
69333256667521,0.16135131,-1.6636837,17.557558
69333276523521,-2.3689876,4.032819,18.125877
69333296379649,-4.6181192,8.461293,18.244202
69333316235777,-4.601286,8.3544,17.97631
69333336091777,0.7911419,4.0344825,13.794732
69333355943878,2.8999655,1.7912345,11.374057
69333375799878,5.59725,1.162677,11.036027
69333395655878,3.848604,4.1056647,9.228739
69333415511878,-0.6914943,5.004595,8.707796
69333435367750,1.2480807,3.2418647,8.409986
69333455227345,2.9912734,3.171877,7.755564
69333475083345,1.8022637,2.569534,4.656816
69333494939345,2.2462573,2.555978,4.107981
69333514795473,1.194639,3.0149894,5.1595235
69333534651473,-1.2846094,2.9690142,4.769854
69333554513062,1.1705129,5.894326,4.93047
69333574369190,2.5913215,5.3904138,6.56285
69333594225190,2.229614,4.2879167,7.1072598
69333614081318,1.7790014,3.9850311,10.077879
69333633937318,1.4860479,2.0271695,10.529001
69333653785132,-0.6736491,-0.6430261,9.618029
69333673641004,-2.3770926,-2.3050635,13.760639
69333693496876,-4.1921744,-3.9705508,17.058037
69333713352620,-5.637056,-4.4150934,17.11973
69333733208492,-5.490904,0.7905112,13.191531
69333753077743,-6.917634,-0.21930756,9.6219225
69333772933743,-6.067671,-5.139265,6.2833557
69333792789871,1.2470132,-0.66780585,9.587302
69333812645999,4.4362626,1.69507,4.9687557
69333832501999,3.3323517,1.7507398,4.786919
69333852361095,1.8177643,2.9394956,9.008352
69333872217223,1.3016013,2.198538,7.0973573
69333892073351,0.44124165,1.2420624,7.376154
69333911929479,-1.0658289,1.8398819,14.95312
69333931785607,-2.5611663,1.222563,9.370526
69333951645782,-2.8634293,-1.3139338,7.260799
69333971502038,-3.5664194,-2.922883,7.5168085
69333991358294,-2.9437752,-4.936319,10.665983
69334011214550,-0.67901564,-1.7035899,17.102598
69334031070806,-0.05915233,-3.0860233,13.129455
69334050936656,0.046778463,-2.51949,10.026617
69334070793040,-0.0655823,-1.1602095,9.762132
69334090649424,-0.015189309,-1.1295625,9.414392
69334110505936,-0.17377494,-1.2123843,9.4044285
69334130362320,-0.6912745,-0.7304583,9.546465
69334150225395,-0.63057613,-0.77801055,9.759579
69334170082035,-0.09872726,-0.4988423,10.19757
69334189938675,0.47665998,-0.997054,9.684477
69334209795315,0.2307084,-0.6944299,9.607563
69334229652083,1.5000242,-0.5174579,6.8121085
69334249513416,-2.3995538,0.14846084,5.915314
69334269370184,-4.400819,0.16490817,19.564419
69334289227080,2.53346,-4.631734,19.934587
69334309083848,-0.88410693,-0.89001936,9.067742
69334328940616,0.020427963,1.0131404,8.112704
69334348796197,0.111291826,0.5182034,7.9554124
69334368653093,-0.31332493,0.04805237,8.56992
69334388509989,-0.5528928,0.6050459,11.135603
69334408366757,-0.19319344,-0.18477257,10.312553
69334428223653,-0.08528975,0.08782468,8.000319
69334448081171,0.9809814,0.9859329,7.9038377
69334467938195,0.8984043,2.7249198,9.486
69334487795091,-0.9461329,3.1376371,9.555231
69334507651987,-0.99343276,1.1071346,9.535306
69334527509011,0.65247416,-0.87205094,9.867765
69334547367217,1.0145962,-1.2247779,9.859272
69334567224241,1.2683165,-0.45165783,9.351115
69334587081137,1.4708676,0.94638073,8.960042
69334606938033,1.3772954,1.9278687,10.0849085
69334626795057,1.9801065,1.3098131,10.324034
69334646653708,-3.6569734,0.77669275,9.708788
69334666510732,-6.01371,-0.44562694,9.277205
69334686367756,-1.163134,-0.084644444,9.111237
69334706224652,2.317107,1.4319035,8.791765
69334726081676,0.62546086,1.8425754,9.293402
69334745938430,-0.28065324,1.5139011,8.140355
69334765795454,-1.1582606,1.0761673,8.107564
69334785652350,-4.705906,-1.8543547,12.155721
69334805509374,-8.591089,-8.64837,15.5472355
69334825366270,-1.6346763,-4.3542104,10.944724
69334845217314,1.6681463,-1.0559268,8.442064
69334865074082,-0.0990388,-3.1655126,8.765273
69334884930978,1.5895706,-2.104788,9.343744
69334904787746,0.38653025,-0.40210864,10.113201
69334924644514,-1.4954754,1.2434418,10.0748625
69334944488049,-0.9394554,1.8760836,9.856109
69334964344561,0.22169448,1.3418807,9.647684
69334984201073,1.2446119,0.27426946,9.70461
69335004057585,1.3010352,-0.2874425,9.790656
69335023914225,0.2873976,0.08398904,9.663156
69335043763520,-0.46070182,0.51158273,9.615833
69335063619904,-0.27505603,0.4482757,9.62062
69335083476288,0.20611244,0.15596327,9.632884
69335103332672,0.24340348,0.1615092,9.649037
69335123189056,0.05858508,0.28741243,9.715292
69335143045751,-0.17092763,0.11462561,9.747036
69335162902263,-0.43884224,-0.13729914,9.76068
69335182758647,-0.5222682,-0.38758495,9.772788
69335202615031,-0.4284144,-0.56271327,9.777312
69335222472107,-0.29161236,-0.538425,9.814925
69335242323182,-0.16255316,-0.29073656,9.7785
69335262179438,-0.123460196,0.004178615,9.761141
69335282035566,-0.14072579,0.20557001,9.67818
69335301891822,-0.2528626,0.2776202,9.650274
69335321747950,-0.3181754,0.06494219,9.750094
69335341590967,-0.29563853,-0.2946675,9.820555
69335361446967,-0.26905844,-0.54059374,9.800445
69335381302967,-0.27734613,-0.47831842,9.765199
69335401158967,-0.2394019,-0.30240253,9.744641
69335421014967,-0.13465281,-0.26039043,9.775895
69335440869900,-0.07046063,-0.28981364,9.755809
69335460725900,-0.079093724,-0.23903266,9.698359
69335480581772,-0.15895085,-0.11805906,9.79979
69335500437644,-0.29216036,-0.041902885,9.827997
69335520293516,-0.3428735,-0.051161192,9.753036
69335540153795,-0.33783835,-0.09674914,9.711473
69335560009667,-0.27794003,-0.14681444,9.70876
69335579865667,-0.24040905,-0.075837925,9.712219
69335599721539,-0.20035191,-0.034113258,9.7514305
69335619577539,-0.13553825,-0.09464491,9.74482
69335639433411,-0.21841711,-0.11175385,9.721498
69335659296092,-0.4700835,-0.098174565,9.769352
69335679152093,-0.590391,-0.20155038,9.844431
69335699008219,-0.5999316,-0.233479,9.842939
69335718864348,-0.51096874,-0.251865,9.745145
69335738720349,-0.4514165,-0.17424697,9.730294
69335758571882,-0.35437799,0.10542786,9.797838
69335778427879,-0.10441158,0.35062465,9.803637
69335798283751,0.20734829,0.3824117,9.701011
69335818139751,0.39325932,0.24685821,9.699353
69335837995751,0.32888308,-0.021378394,9.799344
69335857864513,0.107393995,-0.22977108,9.793643
69335877720770,-0.065188214,-0.2765711,9.705981
69335897576899,-0.0896091,-0.2692725,9.754873
69335917433156,-0.19496751,-0.18927194,9.817834
69335937289413,-0.255701,-0.09775563,9.750607
69335957148766,-0.2540726,-0.008422776,9.672621
69335977005017,-0.28536406,0.11217703,9.645245
69335996861273,-0.3469607,0.1703169,9.746155
69336016717401,-0.26068467,-0.030790381,9.80062
69336036573657,-0.0844958,-0.20170927,9.735913
69336056436294,0.04034013,-0.21722156,9.68737
69336076292678,-0.06058899,-0.085914575,9.722888
69336096149062,-0.16109185,-0.030332208,9.800112
69336116005318,-0.08632638,-0.14873083,9.8388405
69336135861702,-0.14137487,-0.23874204,9.773092
69336155722150,-0.32207447,-0.16154017,9.708112
69336175578534,-0.42157412,-0.0880993,9.721931
69336195435046,-0.36588553,-0.10751587,9.705444
69336215291559,-0.22137548,-0.14544885,9.70372
69336235148070,-0.12294077,-0.08639576,9.762835
69336255014078,-0.024885053,-0.08541877,9.765345
69336274870718,-0.005754932,-0.14312905,9.779148
69336294727486,-0.103524454,-0.16333331,9.793747
69336314584254,-0.24632841,-0.14000241,9.816041
69336334440894,-0.21913727,-0.20375802,9.80102
69336354309913,-0.10768966,-0.2379372,9.75191
69336374166938,-0.13791819,-0.14559385,9.706334
69336394024091,-0.2817762,-0.067460716,9.732004
69336413881113,-0.31441116,-0.045053657,9.748812
69336433738138,-0.17795378,-0.097673245,9.714934
69336453591693,-0.1901742,-0.076258555,9.715246
69336473448846,-0.24209829,-0.05664098,9.754663
69336493305871,-0.17702875,-0.042967662,9.728508
69336513163024,-0.09779453,-0.04615865,9.723291
69336533020043,-0.09929978,-0.11297691,9.783083
69336552881315,-0.17843232,-0.14741826,9.809837
69336572738467,-0.17188266,-0.1900729,9.743533
69336592595619,-0.1633869,-0.16606528,9.721173
69336612446998,-0.18215366,-0.13794869,9.742735
69336632304151,-0.217967,-0.11485842,9.75084
69336652154396,-0.23378134,-0.0724078,9.721385
69336672011421,-0.2311087,-0.06169102,9.708326
69336691868446,-0.22715442,-0.09787611,9.751037
69336711725471,-0.27134508,-0.12901466,9.821415
69336731582496,-0.2995937,-0.1900648,9.806824
69336751443859,-0.2964063,-0.2593757,9.728198
69336771301012,-0.2584001,-0.21283256,9.701259
69336791158293,-0.1675148,-0.0757826,9.72515
69336811015446,-0.1290543,-0.0013289738,9.759419
69336830872599,-0.10346171,-0.029067675,9.733549
69336850726410,-0.09963467,-0.077715576,9.767324
69336870583563,-0.12081835,-0.13264653,9.787749
69336890440716,-0.09666316,-0.16031939,9.776572
69336910297869,-0.042012706,-0.18430993,9.763678
69336930155022,-0.032010213,-0.16513619,9.741928
69336949992633,-0.052300535,-0.16049302,9.705569
69336969849274,-0.0727169,-0.10775081,9.709971
69336989705915,-0.07712893,-0.071810275,9.725386
69337009562556,-0.09612581,-0.076094806,9.732916
69337029419197,-0.07184953,-0.110291876,9.736613
69337049276052,-0.05431387,-0.18188974,9.767539
69337069132565,-0.047135253,-0.2618437,9.773673
69337088989183,-0.035124116,-0.2541695,9.759588
69337108845824,-0.06866399,-0.16576983,9.717655
69337128702465,-0.08227538,-0.15082106,9.745145
69337148552384,-0.09230498,-0.14372972,9.77263
69337168408897,-0.08219636,-0.14131229,9.773607
69337188265282,-0.07260491,-0.17999104,9.740756
69337208121795,-0.078642644,-0.18346657,9.729641
69337227978308,-0.048476525,-0.18139885,9.735315
69337247828591,-0.0070054024,-0.1778401,9.761218
69337267684976,-0.06603196,-0.15292917,9.781878
69337287541233,-0.16467187,-0.082545266,9.771133
69337307397618,-0.2091938,-0.08748012,9.721517
69337327254003,-0.16943958,-0.17082036,9.704306
69337347104794,-0.10774514,-0.14343952,9.726225
69337366960923,-0.138197,-0.102593,9.764052
69337386817052,-0.106493644,-0.13633421,9.7837
69337406673181,-0.06084963,-0.18340957,9.768468
69337426529310,-0.09232423,-0.18678169,9.726756
69337446391759,-0.13118242,-0.14608055,9.705204
69337466248016,-0.12920663,-0.075830854,9.71055
69337486104273,-0.09346228,-0.056623057,9.721767
69337505960530,-0.0481923,-0.13600911,9.737483
69337525816787,-0.06826482,-0.22036256,9.754634
69337545673044,-0.050210077,-0.26469687,9.759722
69337565532453,-0.011369673,-0.21341674,9.7711
69337585388710,0.012692785,-0.12579748,9.775013
69337605245095,0.011116548,-0.1016975,9.778655
69337625101352,-0.02168614,-0.0750308,9.764397
69337644957609,-0.09826453,-0.049316045,9.712287
69337664812842,-0.10632273,-0.07926619,9.705386
69337684669099,-0.09612581,-0.076094806,9.732916
69337704525484,-0.042703718,-0.105789945,9.776142
69337724381741,-0.055616546,-0.16420703,9.72556
69337744237998,-0.13604054,-0.14688179,9.780858
69337764099619,-0.16561434,-0.2056354,9.797748
69337783955876,-0.14439902,-0.2185444,9.715948
69337803812261,-0.17525302,-0.16983421,9.726766
69337823668646,-0.21161552,-0.12000029,9.762414
69337843524903,-0.2347056,-0.13853678,9.730179
69337863387658,-0.16873665,-0.21136624,9.679962
69337883244043,-0.03181547,-0.25553346,9.681843
69337903100556,-0.08392325,-0.2800181,9.682711
69337922957069,-0.11333884,-0.24528292,9.742529
69337942813582,-0.009014141,-0.24081174,9.767549
69337962673023,0.08587024,-0.18372196,9.824592
69337982529664,0.10171882,-0.09841756,9.878072
69338002386305,0.050503965,-0.13779926,9.836151
69338022242818,0.017113715,-0.24496411,9.771685
69338042099436,-0.09908118,-0.29497647,9.712135
69338061958527,-0.1488981,-0.27173802,9.7825
69338081815168,-0.049810823,-0.17034723,9.768708
69338101671809,-0.009069057,-0.099901386,9.701328
69338121528322,-0.01159487,-0.055027053,9.645837
69338141384963,-0.16353182,-0.07759454,9.688461
69338161241658,-0.12433314,-0.07878318,9.8141
69338181098299,-0.13752252,-0.028569728,9.791115
69338200955068,-0.14453663,-0.059477065,9.740598
69338220811709,-0.042136908,-0.2245148,9.75877
69338240668478,-0.06736346,-0.31856194,9.847292
69338260529385,-0.07427074,-0.2916781,9.682146
69338280386154,-0.0609018,-0.14471234,9.720272
69338300242923,0.08273267,-0.050818786,9.810028
69338320099692,-0.00995019,-0.047030255,9.732236
69338339956461,-0.20128657,0.0030012722,9.715248
69338359816284,-0.21805091,-0.082792304,9.778014
69338379673181,-0.1557837,-0.15514939,9.776621
69338399530078,-0.09002677,-0.19446649,9.68095
69338419386975,-0.023376107,-0.18819483,9.715549
69338439243872,0.031885777,-0.15134807,9.757095
69338459098447,-0.032681894,-0.118035465,9.814263
69338478955344,-0.09540377,-0.14805993,9.768442
69338498812241,-0.04996777,-0.12880296,9.761479
69338518669118,-0.031190664,-0.09616016,9.774101
69338538526015,-0.09769647,-0.107478976,9.744614
69338558378798,-0.124796465,-0.09793845,9.754803
69338578235567,-0.0014730527,-0.17748684,9.726624
69338598092336,-0.024596334,-0.18874528,9.706063
69338617949105,-0.117931746,-0.09480399,9.746481
69338637805874,-0.06428936,-0.07838618,9.75556
69338657661021,0.012245743,-0.074158765,9.757561
69338677517790,-0.0011246931,-0.058349162,9.751107
69338697374559,-0.049777705,-0.10315411,9.743035
69338717231328,-0.04779924,-0.13511768,9.766404
69338737088097,-0.01947878,-0.14410771,9.7657
69338756942604,-0.011064451,-0.13880809,9.759476
69338776799245,-0.009313085,-0.073020086,9.731244
69338796656014,-0.024410829,-0.047050294,9.729261
69338816512655,-0.023277516,-0.061162885,9.775889
69338836369424,-0.05476273,-0.041946907,9.795756
69338856217025,-0.036896206,-0.051291965,9.7456255
69338876073538,-0.008327488,-0.054343283,9.768734
69338895930051,0.018344628,-0.043664277,9.800963
69338915786436,-0.02898293,-0.016294604,9.747415
69338935642949,-0.12329602,-0.010347041,9.698733
69338955496056,-0.11805695,-0.046628498,9.663882
69338975352441,-0.10858113,-0.059872445,9.733578
69338995208805,-0.08356629,-0.095240474,9.814649
69339015065190,0.006912301,-0.13208927,9.785796
69339034921447,-0.039242774,-0.10712315,9.761261
69339054777114,-0.13740571,-0.06791384,9.752264
69339074633371,-0.12620671,-0.04966662,9.749764
69339094489756,-0.047683988,-0.011686564,9.759227
69339114346141,-0.024350908,-0.0061222822,9.697852
69339134202526,-0.11844295,-0.042442106,9.692715
69339154053253,-0.12139557,-0.14019984,9.771329
69339173909510,-0.06621588,-0.15959096,9.794382
69339193765639,-0.027125703,-0.1162052,9.769904
69339213621896,-0.02408482,-0.092164755,9.731836
69339233478153,-0.06840664,-0.094115056,9.725557
69339253331174,-0.13081013,-0.09993697,9.733924
69339273187303,-0.094404474,-0.10524198,9.734386
69339293043432,-0.08588724,-0.088956535,9.746858
69339312899561,-0.105775386,-0.092176884,9.737509
69339332755690,-0.07630373,-0.13278948,9.779612
69339352613793,-0.026678603,-0.1678439,9.787355
69339372469922,-0.024459086,-0.12447548,9.762784
69339392326179,-0.11890389,-0.08941582,9.760806
69339412182308,-0.11344052,-0.121235594,9.759531
69339432038821,-0.05719278,-0.14010693,9.729202
69339451894950,-0.07451324,-0.1297636,9.747763
69339471751184,-0.19720656,-0.07704615,9.748674
69339491607313,-0.2487503,-0.14452426,9.740363
69339511463570,-0.2172534,-0.23015705,9.748186
69339531319699,-0.1496575,-0.20726973,9.758093
69339551178376,-0.15031402,-0.11932533,9.75626
69339571034633,-0.14683647,-0.08097816,9.736004
69339590890762,-0.18223844,-0.11150442,9.742364
69339610747019,-0.21925868,-0.14809431,9.696191
69339630603148,-0.21044281,-0.1397496,9.689715
69339650462983,-0.15195037,-0.09280823,9.708483
69339670319368,-0.1163031,-0.018659253,9.710836
69339690175625,-0.14030571,-0.069664896,9.78516
69339710031882,-0.11757364,-0.13248834,9.813985
69339729888139,-0.10870053,-0.10384948,9.820452
69339749744524,-0.18486825,-0.09643111,9.787439
69339769603335,-0.22841805,-0.13936192,9.730406
69339789459720,-0.18954071,-0.18603848,9.6957245
69339809315977,-0.1828749,-0.19000912,9.66868
69339829172234,-0.23818222,-0.15037188,9.671924
69339849031611,-0.24860251,-0.1790424,9.680141
69339868887996,-0.20677935,-0.1936234,9.657169
69339888744381,-0.20866595,-0.19489679,9.640558
69339908600766,-0.2245623,-0.18822578,9.634601
69339928457151,-0.24005802,-0.17833798,9.613845
69339948312417,-0.20481524,-0.18968412,9.611813
69339968168802,-0.14242421,-0.20907933,9.608597
69339988025187,-0.07297005,-0.17518374,9.569043
69340007881700,-0.07005056,-0.10535256,9.582676
69340027738085,-0.08058655,-0.07482067,9.634717
69340047594470,-0.068242945,-0.09622971,9.618031
69340067458389,-0.089444846,-0.11910312,9.590784
69340087314902,-0.09970631,-0.12438267,9.594781
69340107171543,-0.09317483,-0.06002097,9.620509
69340127028056,-0.052563515,-0.044607446,9.600178
69340146881357,-0.016835285,-0.062892355,9.590252
69340166737870,-0.057367466,-0.09758609,9.525024
69340186594383,-0.10747406,-0.13417672,9.451363
69340206450896,-0.09694352,-0.19511889,9.452436
69340226307409,-0.13782133,-0.18365228,9.473145
69340246166914,-0.18274367,-0.106016755,9.474716
69340266023555,-0.18546844,-0.08663298,9.490458
69340285880068,-0.20338534,-0.12602012,9.471359
69340305736709,-0.21583402,-0.13861327,9.493093
69340325593222,-0.17388727,-0.12813862,9.521342
69340345449863,-0.13230395,-0.13371779,9.507351
69340365304132,-0.07464632,-0.15673111,9.500122
69340385160645,-0.05781132,-0.22047323,9.462007
69340405017286,-0.10774749,-0.2638207,9.398519
69340424873777,-0.22541414,-0.17871723,9.381565
69340444730350,-0.22712547,-0.095850416,9.352888
69340464586863,-0.1904456,-0.10518103,9.305333
69340484443504,-0.15264161,-0.10093539,9.295543
69340504300017,-0.14726092,-0.047171075,9.28456
69340524156658,-0.17091982,-0.060949754,9.297964
69340544013171,-0.16737232,-0.11977552,9.317791
69340563872800,-0.15571703,-0.18893977,9.346865
69340583729441,-0.18256348,-0.20907524,9.341687
69340603586082,-0.22024402,-0.14268033,9.308764
69340623442723,-0.17360988,-0.08178722,9.304319
69340643299364,-0.14985724,-0.06534732,9.268996
69340663152597,-0.2071748,-0.09844161,9.188582
69340683009110,-0.22381455,-0.0962589,9.183282
69340702865751,-0.16956562,-0.095594056,9.188566
69340722722392,-0.10278308,-0.047036804,9.177476
69340742581385,-0.08824832,-0.053773314,9.161543
69340762437898,-0.14267993,-0.1120422,9.227245
69340782294539,-0.20004897,-0.12393573,9.2109
69340802151180,-0.17733695,-0.09752587,9.218653
69340822007693,-0.10854736,-0.1317004,9.238612
69340841864334,-0.07530129,-0.12758546,9.24632
69340861719865,-0.08072063,-0.13267682,9.225529
69340881576378,-0.1116416,-0.14748505,9.1963825
69340901432999,-0.18315303,-0.08398104,9.180539
69340921289512,-0.15099995,-0.06671481,9.195067
69340941146153,-0.11789831,-0.04889993,9.178022
69340961001696,-0.11716801,-0.02748407,9.160431
69340980858209,-0.14054877,-0.033882327,9.180691
69341000714722,-0.14145137,-0.12176426,9.190401
69341020571235,-0.14260717,-0.13745543,9.176468
69341040422804,-0.120546035,-0.10953466,9.187245
69341060279189,-0.09687975,-0.05458111,9.197087
69341080135702,-0.12668347,0.0029594135,9.189923
69341099992087,-0.17944708,0.009895952,9.201721
69341119848472,-0.19771706,0.0052254214,9.182561
69341139704857,-0.1882981,-0.034384858,9.182337
69341159559426,-0.1954944,-0.07376735,9.160179
69341179415811,-0.18987812,-0.07106917,9.149677
69341199272324,-0.19250596,-0.06403352,9.152264
69341219128709,-0.19132492,-0.05799383,9.132602
69341238985094,-0.21695869,-0.014228948,9.176012
69341258841971,-0.21391414,-0.014866182,9.211884
69341278698356,-0.21777652,-0.027385486,9.13779
69341298554741,-0.2345288,-0.026313255,9.14003
69341318411254,-0.17011464,-0.048172794,9.158481
69341338267639,-0.12731582,-0.036007404,9.191045
69341358124024,-0.11925089,-0.002771389,9.184235
69341377980475,-0.09507905,0.020272389,9.172009
69341397836860,-0.13410655,0.070132315,9.175453
69341417693373,-0.1330533,0.092347376,9.167235
69341437549758,-0.1408719,0.07123649,9.159421
69341457398951,-0.13110095,0.004682323,9.1510725
69341477255208,-0.13464676,0.007707556,9.142043
69341497111465,-0.17190383,0.027062012,9.135841
69341516967722,-0.1626496,0.04732705,9.155516
69341536823979,-0.1695932,0.058981244,9.159605
69341556680236,-0.17107037,0.053656284,9.16666
69341576529497,-0.15406369,0.03326447,9.184914
69341596385626,-0.17586094,0.011743861,9.181181
69341616241755,-0.15918042,-0.0037014263,9.197408
69341636097756,-0.14402962,-0.052966736,9.216245
69341655953885,-0.14711389,-0.014051054,9.17586
69341675812038,-0.18266551,0.017625349,9.165494
69341695668167,-0.19314133,0.06557751,9.165346
69341715524296,-0.1770172,0.1056398,9.1444845
69341735380553,-0.16148305,0.10181957,9.132657
69341755233714,-0.1750033,0.057845954,9.174691
69341775089715,-0.18410723,0.054132525,9.158599
69341794945844,-0.20647663,0.04389859,9.131554
69341814801845,-0.19665919,0.041500993,9.132613
69341834657846,-0.19095539,0.042894907,9.180393
69341854513951,-0.13535781,0.08623452,9.189821
69341874371470,-0.15439534,0.11454235,9.216396
69341894227471,-0.14751375,0.15463021,9.22093
69341914083600,-0.16506663,0.1864957,9.163188
69341933939729,-0.16065072,0.14729014,9.136236
69341953795858,-0.11854268,0.09242001,9.165277
69341973647161,-0.06729377,0.13719422,9.169835
69341993503034,-0.13620763,0.14461342,9.163288
69342013359035,-0.20238231,0.14200696,9.157728
69342033214908,-0.1389712,0.21477641,9.174637
69342053066719,-0.09195843,0.2409843,9.165073
69342072922592,-0.11707095,0.14813204,9.186633
69342092778465,-0.1319722,0.13016245,9.173299
69342112634210,-0.108992964,0.19560489,9.129116
69342132490083,-0.097892545,0.23746292,9.116655
69342152345956,-0.08059632,0.24010077,9.130338
69342172201977,-0.09112513,0.19882645,9.164602
69342192057850,-0.13513649,0.15286878,9.15699
69342211913595,-0.16394505,0.14051074,9.1404505
69342231769468,-0.18392064,0.15437065,9.1798
69342251625341,-0.19782868,0.12696502,9.172481
69342271486426,-0.19906898,0.06386945,9.203403
69342291342299,-0.14671129,0.114813134,9.2909
69342311198172,-0.10014195,0.1424827,9.332345
69342331054021,-0.02764904,-0.12418613,9.248944
69342350909894,-0.022853645,-0.16354665,9.225126
69342370765767,-0.011618776,-0.19762458,9.207602
69342390628216,0.03851929,-0.17393473,9.233937
69342410484217,0.08584264,-0.17020766,9.3090725
69342430340346,0.0643087,-0.16329049,9.316185
69342450196347,0.039045073,-0.16909613,9.291311
69342470054438,0.022446012,-0.21261212,9.266439
69342489910567,-0.05141652,-0.22486778,9.26845
69342509766696,-0.038655,-0.19348861,9.326573
69342529622825,-0.01387457,-0.19813667,9.369829
69342549478954,-0.032760777,-0.19213371,9.3431015
69342569337767,0.004027533,-0.23767991,9.352803
69342589193896,0.0021170848,-0.23020904,9.356689
69342609050153,-0.019805977,-0.2112133,9.340392
69342628906282,0.045654196,-0.21047081,9.347528
69342648762539,0.04690758,-0.17884766,9.3552475
69342668618668,-0.02206842,-0.17994215,9.333777
69342688476327,-0.033075508,-0.23479855,9.305411
69342708332456,0.07299926,-0.2336945,9.41742
69342728188713,0.04799235,-0.15455836,9.52605
69342748044970,-0.043213185,-0.14646171,9.511407
69342767903167,-0.011417685,-0.21612623,9.461702
69342787759424,0.059367947,-0.25279674,9.459247
69342807615659,0.10899449,-0.21014626,9.500735
69342827471916,0.04026178,-0.12816022,9.4721365
69342847328173,0.070691295,-0.10856421,9.460998
69342867184494,0.05879318,-0.114643134,9.505861
69342887040751,-0.005405258,-0.118645705,9.571656
69342906897008,-1.4662887E-4,-0.10894166,9.553143
69342926753393,0.041119013,-0.11388802,9.540273
69342946609650,0.10554333,-0.17257085,9.58265
69342966466035,0.05395158,-0.20253213,9.571813
69342986323896,-0.008293836,-0.17542633,9.516911
69343006180281,0.026506308,-0.1626207,9.559841
69343026036666,0.047014616,-0.14661707,9.62703
69343045893051,-0.018485468,-0.15040514,9.678318
69343065741550,-0.05664882,-0.18677375,9.680018
69343085597807,-0.013457536,-0.2243101,9.647517
69343105454064,0.037513662,-0.22344936,9.652841
69343125310193,0.0038567388,-0.210241,9.669103
69343145166450,0.012165286,-0.1859927,9.65567
69343165022707,0.008039383,-0.1965866,9.683953
69343184876934,-0.014914631,-0.21387517,9.672709
69343204733191,-0.07554472,-0.2443863,9.642906
69343224589320,-0.08089072,-0.23841988,9.664033
69343244445449,-0.07556999,-0.21220337,9.713364
69343264301578,-0.035394143,-0.17862709,9.724094
69343284153761,0.076356746,-0.16885564,9.710079
69343304009762,0.059109986,-0.20285384,9.742269
69343323865891,-0.026904529,-0.23932265,9.782583
69343343721892,0.03346262,-0.2256621,9.744176
69343363573841,0.07907687,-0.18047817,9.73098
69343383429842,-0.04749159,-0.14924583,9.707737
69343403285843,-0.120289475,-0.20400736,9.691974
69343423141844,-0.10044802,-0.22786704,9.694511
69343442997845,-0.008460072,-0.22661,9.719465
69343462853846,-0.015282562,-0.23305017,9.764249
69343482714059,-0.009703103,-0.23295367,9.77126
69343502570188,0.06777845,-0.22008336,9.724973
69343522426189,0.06111593,-0.22145183,9.730293
69343542282318,0.013303889,-0.21205738,9.701947
69343562138319,-0.04691731,-0.21382318,9.69508
69343581988468,-0.022123333,-0.22133198,9.695087
69343601844469,-2.2334036E-4,-0.21546647,9.707849
69343621700342,0.0014277889,-0.23518427,9.746892
69343641556343,0.008421313,-0.24645439,9.760299
69343661411174,0.06352622,-0.22263536,9.75457
69343681267047,0.10414983,-0.21680808,9.781065
69343701122920,0.06116512,-0.22122782,9.790788
69343720978793,0.00969266,-0.22161685,9.773668
69343740834666,0.033448547,-0.21883878,9.738365
69343760690516,0.0043227635,-0.21394935,9.726502
69343780548797,-0.02902394,-0.2113712,9.744896
69343800404670,-0.067294285,-0.1998226,9.725975
69343820260543,-0.01361216,-0.1818351,9.737512
69343840116416,0.05002642,-0.21212271,9.779479
69343859972289,0.030925946,-0.243968,9.736528
69343879826068,-0.0033869834,-0.24222617,9.711499
69343899681941,-0.026365807,-0.17445523,9.720217
69343919537686,-0.041131698,-0.16837409,9.7346945
69343939393559,0.009305807,-0.22804962,9.781486
69343959249432,0.023748742,-0.24719769,9.819709
69343979105305,0.006468252,-0.23314916,9.823522
69343998963300,-0.019599061,-0.21093625,9.770966
69344018819173,-3.372222E-4,-0.17729892,9.731316
69344038675046,0.00902658,-0.16479065,9.697578
69344058530919,-0.06442323,-0.18377931,9.711468
69344078389906,-0.09561945,-0.24019703,9.728309
69344098245779,-0.007285118,-0.23754935,9.735274
69344118101780,0.018570023,-0.17461568,9.758982
69344137957653,-0.0078888135,-0.17093094,9.774426
69344157813654,-0.011713207,-0.19110608,9.796828
69344177676225,0.03322937,-0.23800622,9.779162
69344197532354,-0.007865752,-0.24433558,9.7410965
69344217388483,-0.054332834,-0.19776212,9.739517
69344237244462,-0.024915634,-0.19615264,9.754251
69344257100591,0.019109776,-0.20036916,9.754257
69344276956592,-0.0076909754,-0.17683108,9.755308
69344296813789,-0.080558494,-0.18397422,9.770911
69344316669918,-0.068679936,-0.21633783,9.810829
69344336526047,0.048625585,-0.202314,9.786431
69344356382176,0.054284364,-0.16912058,9.754899
69344376242181,-0.065592684,-0.18828255,9.741411
69344396098438,-0.081010595,-0.1996166,9.743995
69344415954695,-0.024143163,-0.23436011,9.740002
69344435810952,-0.04561066,-0.214994,9.741254
69344455667209,-0.05063981,-0.19404592,9.738755
69344475523704,-0.06381205,-0.18329513,9.740614
69344495379961,-0.034491982,-0.20769511,9.768579
69344515236218,-0.0061661876,-0.21934271,9.80215
69344535092475,-0.020412508,-0.25933233,9.7504015
69344554948732,-0.06478947,-0.24107905,9.765473
69344574804989,-0.06034573,-0.1660963,9.776803
69344594665196,-0.08177843,-0.17899817,9.79212
69344614521581,-0.049666893,-0.22738709,9.76259
69344634377966,-0.008295379,-0.22806269,9.73565
69344654234351,-0.03459659,-0.21969533,9.7508335
69344674092358,-0.04814267,-0.21558689,9.739084
69344693948743,-0.0320992,-0.18683422,9.738941
69344713805106,-0.04932141,-0.1667994,9.739629
69344733661491,-0.10599233,-0.21100877,9.74464
69344753517876,-0.09355162,-0.24642552,9.777769
69344773374261,-0.054349374,-0.23238043,9.804728
69344793232832,-0.047628943,-0.2122958,9.801514
69344813089217,-0.030202335,-0.21744382,9.798643
69344832945730,-0.0012537651,-0.23999926,9.761062
69344852802243,0.015123223,-0.23966569,9.7260065
69344872658628,6.877615E-4,-0.20992266,9.688947
69344892514861,-0.02571494,-0.17595272,9.717515
69344912371374,-0.06455278,-0.19077718,9.722138
69344932227759,-0.068177566,-0.20290402,9.745857
69344952084272,-0.028154906,-0.19480672,9.744506
69344971937433,-0.03806399,-0.18629129,9.72703
69344991793818,-0.008733671,-0.19428125,9.745564
69345011650203,0.0047036246,-0.21077663,9.734833
69345031506460,0.015226594,-0.18586476,9.784003
69345051362845,0.008089417,-0.18386404,9.902923
69345071219230,-0.017398158,-0.18320182,9.860913
69345091067337,-0.0585529,-0.16760857,9.800925
69345110923594,-0.063345976,-0.19593264,9.75669
69345130779851,-0.009334784,-0.19858997,9.731662
69345150636108,0.03436412,-0.17060018,9.690981
69345170492365,-0.033028346,-0.15745458,9.7178755
69345190335966,-0.0170279,-0.17894441,9.746369
69345210191967,0.016840301,-0.2221436,9.736882
69345230047840,0.0134313,-0.24525088,9.725936
69345249903841,0.025756652,-0.2064396,9.697809
69345269761360,0.04507152,-0.17814171,9.763065
69345289617361,0.12618588,-0.15517813,9.819286
69345309473362,0.105483994,-0.17366786,9.830179
69345329329235,0.017421827,-0.21264008,9.805723
69345349185236,0.0018408078,-0.23487324,9.775762
69345369041237,0.062487315,-0.20558488,9.7422085
69345388892160,-0.014697741,-0.15972897,9.731281
69345408748033,-0.1361982,-0.17957161,9.688387
69345428603906,-0.067494236,-0.22910267,9.731722
69345448459779,0.06492842,-0.2689369,9.758849
69345468315780,0.07584979,-0.26656628,9.748348
69345488171107,0.009273258,-0.22217064,9.7372
69345508026852,-0.01410888,-0.18862984,9.742848
69345527882725,-7.343841E-4,-0.1898694,9.718244
69345547738470,0.0039383816,-0.20333615,9.720063
69345567594343,-0.035656586,-0.254357,9.765686
69345587450216,-0.05055791,-0.26673284,9.806932
69345607294403,0.007922784,-0.22539209,9.849226
69345627149892,0.036178537,-0.17354578,9.876658
69345647005509,0.026183957,-0.17457408,9.819059
69345666860976,-0.007007513,-0.1944916,9.784855
69345686714259,-0.026076766,-0.22123168,9.743513
69345706569748,-0.001227159,-0.19194457,9.692155
69345726425237,-0.0029146262,-0.19337068,9.668187
69345746280598,-0.026826445,-0.20751604,9.656593
69345766136087,-0.03446755,-0.21528517,9.679851
69345785996026,-0.006279881,-0.23013783,9.695743
69345805851643,0.021122377,-0.2293565,9.76987
69345825707132,0.0293368,-0.20904681,9.778614
69345845562749,0.02353548,-0.18461369,9.821127
69345865418238,0.03672552,-0.1900436,9.855462
69345885273855,0.03345726,-0.18252797,9.825329
69345905131886,0.06310145,-0.21976247,9.78884
69345924987503,0.04263574,-0.22683035,9.761505
69345944843120,-0.008960411,-0.1769582,9.728904
69345964698609,-0.038123593,-0.16066886,9.763732
69345984554970,0.015772434,-0.17230365,9.7637415
69346004410459,0.030179996,-0.20466861,9.751251
69346024266076,-0.016183937,-0.22915202,9.732279
69346044121565,0.0517855,-0.22489792,9.729394
69346063977182,0.1364079,-0.20859452,9.7071495
69346083830349,0.0780548,-0.20874394,9.69212
69346103685838,-0.026621075,-0.22376595,9.72695
69346123541327,-0.018391503,-0.23390365,9.798531
69346143396794,-0.003172293,-0.1944781,9.82859
69346163252283,-0.0257556,-0.18330252,9.815189
69346183107772,0.016775688,-0.22477284,9.830492
69346202970715,0.108916126,-0.19871503,9.809952
69346222826332,0.13911092,-0.16957965,9.797491
69346242682077,0.10071971,-0.20484564,9.777136
69346262537694,0.065360084,-0.21354568,9.72589
69346282406855,0.04493589,-0.16272108,9.681992
69346302262856,-0.0058179926,-0.12239628,9.686436
69346322118729,-0.048162572,-0.17151563,9.695003
69346341974730,-0.07070187,-0.1985923,9.714254
69346361830603,-0.018886838,-0.20199163,9.737956
69346381686604,0.04943787,-0.16367248,9.752363
69346401545261,0.079138,-0.14272429,9.777563
69346421401262,0.06038645,-0.20060083,9.794282
69346441257391,0.085975595,-0.19505097,9.783184
69346461113392,0.095922254,-0.17646413,9.784918
69346480969393,0.03452026,-0.16482903,9.757702
69346500830666,-0.017346576,-0.1811108,9.74678
69346520686923,-0.0047772126,-0.16315068,9.717038
69346540543052,0.052060295,-0.14947368,9.767059
69346560399309,0.053670753,-0.1718299,9.755975
69346580252586,0.00820382,-0.19032194,9.745265
69346600108843,0.025852578,-0.1886173,9.771303
69346619965079,0.110040806,0.104370035,9.780108
69346639821336,0.14750236,0.06831071,9.80553
69346659677465,0.16254103,0.053624503,9.790967
69346679533722,0.16065618,0.106111914,9.783356
69346699394563,0.15985692,0.09747977,9.788083
69346719250820,0.16829929,0.05492782,9.767632
69346739107205,0.17686994,0.03828155,9.747186
69346758963462,0.18145554,0.04225079,9.701833
69346778819719,0.20380567,0.021552846,9.666614
69346798681138,0.2594153,0.017952079,9.697344
69346818537523,0.27924594,0.043762334,9.683521
69346838393908,0.24698241,0.06982297,9.722002
69346858250293,0.22471678,0.0871999,9.752384
69346878107056,0.2147129,0.063995495,9.784756
69346897963441,0.19307591,0.055463422,9.810405
69346917819954,0.21067254,0.05803001,9.835048
69346937676339,0.22167699,0.06926652,9.846503
69346957532852,0.21029513,0.078623176,9.842249
69346977389237,0.214544,0.0706376,9.794425
69346997235358,0.22131228,0.061974574,9.751856
69347017091615,0.2047707,0.09926016,9.717653
69347036947872,0.2247212,0.03207414,9.691784
69347056804129,0.23105903,0.012775881,9.71464
69347076660258,0.20333642,0.038817976,9.724739
69347096513770,0.18065009,0.07164662,9.69904
69347116369899,0.23358783,0.030509284,9.73508
69347136226156,0.23537724,0.05123978,9.777283
69347156082413,0.17893612,0.1350733,9.783349
69347175938670,0.14669259,0.14185469,9.824605
69347195794927,0.18212582,0.08820616,9.874463
69347215636640,0.21052583,0.07654517,9.825165
69347235492513,0.18905815,0.1283785,9.784714
69347255348514,0.17339668,0.10201072,9.754701
69347275204387,0.19528101,0.046213914,9.70534
69347295057670,0.17828993,0.08201259,9.691738
69347314913543,0.12408987,0.120159194,9.696637
69347334769288,0.13760956,0.10942231,9.72023
69347354625033,0.17430489,0.058764447,9.729151
69347374480906,0.16238244,0.09086203,9.781711
69347394332213,0.13122395,0.12978816,9.770843
69347414187958,0.1359836,0.06087654,9.754745
69347434043575,0.18452144,0.05954866,9.76231
69347453899320,0.1939389,0.12465077,9.797482
69347473755065,0.17108923,0.12324111,9.7793
69347493610682,0.16041133,0.08501111,9.805463
69347513471071,0.16474158,0.065564565,9.778814
69347533326816,0.16043444,0.08299015,9.761739
69347553182689,0.18859231,0.105889425,9.745083
69347573038413,0.20296705,-0.10764234,9.744308
69347592890098,0.17525813,-0.06908767,9.72974
69347612745843,0.16071717,-0.07151506,9.708844
69347632601460,0.17693786,-0.08975662,9.71752
69347652457077,0.19659974,-0.061128207,9.685411
69347672312822,0.18678477,-0.06758182,9.735819
69347692167647,0.16987461,-0.061850775,9.776844
69347712023264,0.17394578,-0.06706837,9.833639
69347731878753,0.18506068,-0.05034357,9.874475
69347751734370,0.226718,-0.071121015,9.835545
69347771589859,0.20912744,-0.110275365,9.80594
69347791445476,0.20067093,-0.0663458,9.742208
69347811301257,0.21387503,-0.04703631,9.787876
69347831156874,0.21650036,-0.094730616,9.800375
69347851012363,0.19787756,-0.10853772,9.726816
69347870867980,0.17725876,-0.1512243,9.680238
69347890727529,0.16986871,-0.15539321,9.677354
69347910583274,0.17863175,-0.10781489,9.707458
69347930438891,0.19292068,-0.055352163,9.718323
69347950294636,0.2113978,-0.03967974,9.757725
69347970150381,0.24077371,-0.042957343,9.734918
69347990005998,0.16573155,-0.031214572,9.761068
69348009871171,0.10685442,-0.048156556,9.787265
69348029727044,0.14907147,-0.15856178,9.777024
69348049582896,0.15280198,-0.1753926,9.808352
69348069438769,0.19984488,-0.050451208,9.838434
69348089294514,0.09594903,-0.15422302,9.825351
69348109146657,0.087572135,-0.19859955,9.799285
69348129002402,0.20243165,-0.07593836,9.78637
69348148858275,0.21770431,-0.04952954,9.720877
69348168714020,0.1248706,-0.16944432,9.686608
69348188567443,0.0774676,-0.20463207,9.680546
69348208423060,0.09993879,-0.12346985,9.68567
69348228278805,0.15566403,-0.07578211,9.6979265
69348248134422,0.14428489,-0.12589896,9.708783
69348267990167,0.13273941,-0.12972358,9.718123
69348287845784,0.16799407,-0.09458741,9.769329
69348307709959,0.15945347,-0.048314422,9.805967
69348327565960,0.14817438,-0.044359673,9.840928
69348347421833,0.13380456,-0.09860644,9.820608
69348367277706,0.13875826,-0.15369746,9.813999
69348387133579,0.16038492,-0.09185341,9.812013
69348406995254,0.12573823,-0.06826214,9.779463
69348426851383,0.1204677,-0.07943087,9.7757435
69348446707512,0.16545042,-0.091262795,9.761406
69348466563641,0.173804,-0.12875009,9.701729
69348486428840,0.18478702,-0.1614581,9.677963
69348506285225,0.16985592,-0.16313323,9.662509
69348526141588,0.028943881,-0.21181536,9.701385
69348545997845,-0.00847773,-0.18916558,9.730565
69348565854230,0.035114873,-0.15860596,9.746433
69348585710615,0.08040118,-0.14251634,9.803228
69348605569462,0.08284032,-0.14367348,9.825144
69348625425847,0.07890472,-0.15603174,9.841681
69348645282232,0.08678611,-0.1344342,9.823622
69348665138617,0.0066550532,-0.1614071,9.791331
69348684995002,-0.095161505,-0.20467989,9.762164
69348704851787,-0.10243732,-0.23678665,9.7406025
69348724708172,-0.08767954,-0.2607876,9.712302
69348744564685,-0.04427594,-0.28375083,9.719347
69348764421070,0.036882546,-0.24202599,9.742094
69348784277455,0.03272411,-0.22924134,9.752393
69348804133840,0.010342377,-0.22915377,9.762739
69348823989285,0.02690904,-0.24755687,9.750503
69348843845670,0.02058339,-0.2290575,9.733337
69348863702055,-0.028271303,-0.24883318,9.735375
69348883558440,-0.08601168,-0.2559093,9.723629
69348903414617,-0.07928542,-0.21980666,9.75672
69348923271002,-0.045323882,-0.18986045,9.777816
69348943127387,-0.008720505,-0.17997637,9.797035
69348962983772,0.03370022,-0.19798346,9.786389
69348982840157,0.075348444,-0.1868519,9.7810335
69349002685489,-0.032696832,-0.16505904,9.78263
69349022541746,-0.07101454,-0.12747967,9.736383
69349042397875,-0.115578644,-0.1066226,9.741139
69349062254004,-0.12800604,-0.12405228,9.778328
69349082110133,-0.12401145,-0.16398326,9.741205
69349101966390,-0.12222384,-0.16987388,9.717448
69349121812261,-0.08327939,-0.1374193,9.700018
69349141668262,-0.035226516,-0.118377574,9.704948
69349161524263,-0.034781743,-0.15866452,9.772436
69349181380264,-0.02745424,-0.17858915,9.817525
69349201224971,-0.035100687,-0.19303119,9.846607
69349221080716,-0.10053989,-0.19865596,9.808068
69349240936461,-0.086027585,-0.18762092,9.781072
69349260792206,-0.007343796,-0.16015522,9.723683
69349280647951,-0.078972906,-0.08612518,9.722875
69349300500404,-0.15017988,-0.101220965,9.753855
69349320356021,-0.084295474,-0.18033905,9.72676
69349340211766,-0.10974488,-0.2141904,9.733239
69349360067383,-0.10542097,-0.2791647,9.786134
69349379923000,-0.035012033,-0.31267107,9.738894
69349399778745,-0.05070263,-0.13151313,9.695934
69349419627414,-0.075066,-0.043888256,9.732252
69349439482903,-0.12121825,-0.16312541,9.71416
69349459338392,-0.043502547,-0.28889933,9.758921
69349479193860,-0.0134952,-0.24934275,9.79917
69349499051823,-0.11861522,-0.10061362,9.801845
69349518907184,-0.14584704,-0.06182784,9.830332
69349538762673,0.013347103,-0.21305613,9.814286
69349558618162,0.017110588,-0.24145651,9.765738
69349578473651,-0.1013302,-0.18298541,9.74728
69349598329140,-0.072291315,-0.16412397,9.771109
69349618185321,-4.9727125E-4,-0.1550475,9.737574
69349638040810,-0.022766955,-0.13884537,9.70711
69349657896427,-0.11081349,-0.1352676,9.736473
69349677751916,-0.15326804,-0.1316291,9.731408
69349697607405,-0.12134898,-0.16758011,9.716633
69349717463888,-0.09420772,-0.18934338,9.737375
69349737319377,-0.08526644,-0.17815256,9.76673
69349757174866,-0.082333244,-0.18159597,9.786104
69349777030355,-0.050817207,-0.20184499,9.79165
69349796883894,-0.021834344,-0.21243665,9.7868595
69349816739255,-0.06316129,-0.1704202,9.785188
69349836594616,-0.11956635,-0.116380386,9.796227
69349856449977,-0.08738133,-0.11200217,9.796869
69349876305338,-0.07283472,-0.11803999,9.752143
69349896160699,-0.11112137,-0.14567932,9.71572
69349916021600,-0.14635134,-0.2445987,9.744035
69349935877089,-0.047869034,-0.26730278,9.768613
69349955732429,0.053085674,-0.16439901,9.745929
69349975587918,-0.0048522465,-0.13660203,9.746657
69349995443407,-0.06797216,-0.20655936,9.758203
69350015301442,-0.08196112,-0.25546938,9.755998
69350035156803,-0.028676098,-0.22311349,9.735606
69350055012292,-0.032812886,-0.16946177,9.7216
69350074867781,-0.035934836,-0.15184948,9.746167
69350094726880,7.513645E-7,-0.18900885,9.770136
69350114582497,-0.012664518,-0.21507797,9.757563
69350134438114,0.024942191,-0.21153001,9.778478
69350154293603,0.048310176,-0.16445713,9.746298
69350174149220,-0.080188856,-0.12006269,9.738069
69350194004837,-0.1626081,-0.12975408,9.789179
69350213864702,-0.07193709,-0.15095437,9.777842
69350233720319,0.030198688,-0.1925617,9.756207
69350253576064,0.015752766,-0.226626,9.812646
69350273431809,-0.020821948,-0.20125306,9.809654
69350293287426,-0.0015477773,-0.16950518,9.753156
69350313154345,0.037649743,-0.1410293,9.705267
69350333010346,-0.026254041,-0.09316425,9.69412
69350352866347,-0.09866954,-0.08962211,9.752423
69350372722220,-0.0791568,-0.091141686,9.755993
69350392578221,-6.3879404E-4,-0.15887237,9.797713
69350412434222,-0.026963394,-0.19709851,9.824107
69350432298547,-0.02589654,-0.18714915,9.82492
69350452154676,0.032306667,-0.14663629,9.804839
69350472010933,0.07779685,-0.13817601,9.806933
69350491867190,-0.015202718,-0.16842656,9.785422
69350511730529,-0.10710195,-0.19538648,9.729461
69350531587042,-0.07056747,-0.21894039,9.707565
69350551443427,0.03320968,-0.2129519,9.729933
69350571299940,0.024462938,-0.18899086,9.721786
69350591156325,-0.0151761575,-0.17588376,9.694466
69350611003928,-0.016036289,-0.1838981,9.712653
69350630860313,0.03638996,-0.18440348,9.761901
69350650716570,0.014619141,-0.20381533,9.787324
69350670572955,-0.039300337,-0.22033334,9.803671
69350690429212,0.008751787,-0.18615967,9.818794
69350710285597,0.070459254,-0.13715632,9.81429
69350730134138,0.045965414,-0.13965139,9.783963
69350749990267,0.014768881,-0.17751461,9.773689
69350769846396,0.017756836,-0.2165147,9.743085
69350789702525,0.0035555365,-0.20823315,9.727772
69350809561568,-0.033669595,-0.18581048,9.706246
69350829417825,-0.036639396,-0.17613086,9.709741
69350849273954,0.008207594,-0.1531459,9.762987
69350869130083,0.03708062,-0.15562205,9.764838
69350888986212,0.02585734,-0.19045664,9.76315
69350908836162,0.122392386,-0.14843883,9.754801
69350928692163,0.115452625,-0.10079465,9.771544
69350948548164,0.0769535,-0.111752,9.775461
69350968404293,0.112620816,-0.10021456,9.805377
69350988260294,0.16444544,-0.10035447,9.803274
69351008116295,0.06957318,-0.14232244,9.816567
69351027961008,0.0463938,-0.14784503,9.807601
69351047816753,0.12521939,-0.1279546,9.834035
69351067672498,0.12737413,-0.108077064,9.784875
69351087528243,0.057513457,-0.16761084,9.728335
69351107374290,0.06490502,-0.16041186,9.705435
69351127229907,0.0541961,-0.15175863,9.713714
69351147085524,0.025169833,-0.17978989,9.698541
69351166941013,0.024449123,-0.18122187,9.710881
69351186796630,0.06408224,-0.17446174,9.74884
69351206652247,0.06282629,-0.19772272,9.754898
69351226505600,0.069824606,-0.1875722,9.806684
69351246361089,0.11282877,-0.16735424,9.823161
69351266216578,0.13008164,-0.1591165,9.819547
69351286072067,0.09771923,-0.1323427,9.759412
69351305927556,0.019619366,-0.18938331,9.753343
69351325779431,-0.040132187,-0.21827057,9.772065
69351345634920,0.006455616,-0.20573202,9.743706
69351365490281,0.036562208,-0.19369014,9.691086
69351385345621,-0.048048172,-0.14705408,9.717098
69351405198342,-0.0601522,-0.14279212,9.719822
69351425053703,0.015148231,-0.15404388,9.718252
69351444908936,0.07263464,-0.16639721,9.790907
69351464764297,-0.007055898,-0.16019961,9.793512
69351484619530,-0.08188348,-0.1779696,9.777299
69351504474891,-0.07203015,-0.17126468,9.785329
69351524336500,-0.017973904,-0.12324345,9.750328
69351544191989,-0.007178043,-0.13106935,9.757903
69351564047350,6.8462855E-4,-0.1547843,9.775203
69351583902711,0.016507411,-0.18354642,9.768373
69351603758200,0.016365672,-0.19197509,9.759868
69351623616031,-0.020084012,-0.16748929,9.747001
69351643471520,-0.0070554363,-0.1607557,9.73539
69351663327009,-0.024167884,-0.16163987,9.70283
69351683182370,-0.07541728,-0.18477051,9.705025
69351703041741,-0.10043475,-0.19354516,9.744487
69351722897102,-0.049909856,-0.22943173,9.772463
69351742752591,0.052572325,-0.26424178,9.760065
69351762608080,0.06608605,-0.22558707,9.751208
69351782463569,-0.0028255112,-0.13804784,9.775537
69351802319058,-0.07887531,-0.1374594,9.788361
69351822170555,-0.04515032,-0.18559797,9.807177
69351842025788,0.091583945,-0.20446432,9.785153
69351861881127,-0.17021194,0.036167506,9.775691
69351881736488,-0.107800275,0.12644088,9.801177
69351901591849,-0.07368984,0.04610898,9.785446
69351921447420,-0.20934711,-0.06165412,9.7345705
69351941302781,-0.25675258,-0.010698932,9.728916
69351961158270,-0.18389395,0.09117242,9.788569
69351981013631,-0.10156263,0.11756424,9.826121
69352000868992,-0.10489777,0.04173324,9.819978
69352020724481,-0.10304292,0.030369949,9.801442
69352040584462,-0.1120357,0.09722988,9.720557
69352060439951,-0.13089418,0.18902278,9.699532
69352080295440,-0.18898022,0.1362583,9.68769
69352100151057,-0.18850008,0.04997045,9.675031
69352120017578,-0.15944456,0.051694345,9.735064
69352139873323,-0.14394645,0.09178466,9.7696
69352159729068,-0.13933764,0.04205349,9.753509
69352179584941,-0.15498298,0.028687641,9.756115
69352199440686,-0.10102306,0.112359874,9.769637
69352219296559,-0.10234769,0.12316551,9.792899
69352239151774,-0.16285652,0.039794415,9.768014
69352259007519,-0.19174933,0.015317717,9.768369
69352278863264,-0.16363981,0.05480698,9.769874
69352298719009,-0.14191754,0.09145982,9.766906
69352318574754,-0.13754731,0.07977039,9.801436
69352338435640,-0.108136974,0.10411738,9.814225
69352358291513,-0.110805415,0.109147914,9.759331
69352378147386,-0.13252503,0.14412257,9.741647
69352398003259,-0.13925076,0.14335574,9.741904
69352417865636,-0.11244452,0.118342735,9.743847
69352437721765,-0.12082203,0.112469524,9.7749605
69352457577766,-0.14676748,0.10909483,9.800155
69352477433895,-0.1508786,0.10244099,9.806641
69352497290024,-0.13612981,0.07104157,9.786432
69352517146153,-0.11698088,0.09985684,9.748539
69352537002458,-0.07159888,0.14993383,9.7464285
69352556858587,0.0010448708,0.19975236,9.742761
69352576714716,0.024705214,0.22344539,9.7183895
69352596570845,-0.022158967,0.23149286,9.76592
69352616426974,-0.10201142,0.23526923,9.785508
69352636278031,-0.1524795,0.180225,9.728893
69352656134032,-0.15105681,0.12693544,9.696356
69352675990033,-0.12454338,0.12040644,9.701156
69352695846162,-0.08824646,0.11921015,9.754767
69352715701359,-0.062019024,0.15115803,9.777632
69352735557360,-0.07266905,0.17990458,9.763228
69352755413361,-0.034827244,0.20778628,9.765408
69352775269234,-0.039423272,0.19413547,9.78298
69352795125235,-0.12037904,0.122922234,9.817798
69352814981215,-0.15863372,0.06931534,9.794635
69352834829096,-0.12683745,0.08755981,9.788427
69352854684841,-0.11226942,0.10273956,9.768128
69352874540714,-0.069263406,0.1473061,9.777499
69352894396587,-0.03612198,0.1655375,9.761509
69352914252332,-0.03454175,0.17325489,9.735917
69352934107469,-0.06935974,0.17045094,9.708266
69352953963207,-0.10266976,0.14676137,9.699797
69352973819080,-0.102900155,0.13482572,9.676189
69352993674823,-0.11795073,0.119769506,9.692866
69353013530567,-0.1216542,0.1348428,9.710137
69353033386440,-0.09890537,0.17457734,9.791973
69353053236972,-0.11751353,0.16045366,9.868865
69353073092588,-0.13093637,0.10710006,9.94809
69353092948205,-0.15120706,0.0763921,9.8925905
69353112803948,-0.15445255,0.044901866,9.813811
69353132655633,-0.13358185,0.05742517,9.766086
69353152511122,-0.11930445,0.074752755,9.715954
69353172366737,-0.13216844,0.05517731,9.71965
69353192222353,-0.09631808,0.09772783,9.713993
69353212077970,-0.08793016,0.17746966,9.698999
69353231935871,-0.16337791,0.1400731,9.699486
69353251791487,-0.1551341,0.061707757,9.72849
69353271647232,-0.11815784,0.082522765,9.772464
69353291502847,-0.14504743,0.0046823667,9.817759
69353311358463,-0.16902828,-0.10784168,9.852439
69353331214080,-0.21651332,-0.052552648,9.8653345
69353351064875,-0.17628302,-0.024478577,9.829359
69353370920491,-0.10122885,-0.067465305,9.784022
69353390776108,-0.07509683,-0.08682068,9.745283
69353410631723,-0.07493604,-0.023693454,9.71124
69353430483347,-0.093129955,-0.1112177,9.694095
69353450338836,-0.08559773,-0.14787297,9.709592
69353470194325,-0.028699927,-0.16351137,9.724157
69353490049686,-0.0118898135,-0.17866442,9.731225
69353509905175,-0.04791793,-0.18990898,9.717329
69353529767760,-0.067110315,-0.1943726,9.707957
69353549623249,-0.056276027,-0.16592571,9.69854
69353569478738,-0.05616252,-0.116306044,9.734045
69353589334227,-0.090900235,-0.08037181,9.775215
69353609189844,-0.10371294,-0.11409438,9.831595
69353629045333,-0.06784353,-0.14397879,9.86969
69353648892934,-0.038772892,-0.14037138,9.853731
69353668748156,0.0015738036,-0.15175079,9.836292
69353688603517,-0.015941245,-0.14524375,9.807538
69353708458876,-0.0140197,-0.14459677,9.798188
69353728318128,0.0029043881,-0.12241583,9.709332
69353748173617,-0.027044915,-0.13893713,9.675037
69353768028976,-0.029852,-0.13460013,9.66519
69353787884464,-0.025433492,-0.13499941,9.614165
69353807739825,-0.010964932,-0.17090352,9.597439
69353827595312,0.004246824,-0.15857644,9.651561
69353847451974,0.043352496,-0.11838484,9.751755
69353867307463,0.044763375,-0.13979313,9.832929
69353887162822,0.09582526,-0.16649707,9.880228
69353907018310,0.104476966,-0.15669997,9.921152
69353926873799,0.04299903,-0.15904519,9.903529
69353946734018,0.052375425,-0.14596234,9.855379
69353966589634,0.07737152,-0.13795008,9.816815
69353986445123,0.017121602,-0.16108663,9.742036
69354006300738,-0.095891275,-0.21957053,9.7193
69354026159873,-0.10585737,-0.22082813,9.717703
69354046015618,-0.028961495,-0.20210429,9.718227
69354065871233,0.040055737,-0.21172026,9.694358
69354085726849,0.045273334,-0.21560651,9.6954
69354105582466,0.04103592,-0.20637357,9.698793
69354125438209,0.064024396,-0.20999551,9.7068205
69354145289724,0.07723098,-0.17718798,9.733365
69354165145341,0.038251147,-0.16178639,9.767969
69354185000956,-0.041660506,-0.16468976,9.78941
69354204852053,-0.03581574,-0.16033776,9.815287
69354224707670,-0.02580898,-0.1822548,9.833337
69354244570793,0.047371972,-0.19103742,9.850427
69354264426538,0.11750379,-0.17062213,9.821401
69354284282283,0.07569289,-0.14660688,9.764739
69354304138028,0.014355503,-0.14016631,9.694386
69354323999143,-0.015322287,-0.14733268,9.710717
69354343855016,-0.042029075,-0.17416422,9.713283
69354363710889,-0.06385076,-0.23253772,9.689459
69354383566890,-0.058519457,-0.24916877,9.687283
69354403422763,-0.03517344,-0.21087396,9.733868
69354423278636,0.004369717,-0.17137794,9.7872305
69354443132689,0.074447535,-0.12880322,9.812787
69354462988562,0.08724761,-0.1610068,9.80822
69354482844307,0.06051933,-0.17159718,9.810495
69354502700180,0.030642739,-0.1421845,9.818282
69354522556053,0.01010599,-0.107738286,9.810477
69354542413440,-0.04597707,-0.11240572,9.790458
69354562269313,-0.04869442,-0.12956047,9.7593775
69354582125186,-0.02441939,-0.1995091,9.73662
69354601981187,-0.012854236,-0.21454543,9.724344
69354621837060,0.012862041,-0.18481156,9.7261715
69354641692933,0.050032277,-0.16562231,9.710115
69354661552810,0.03487088,-0.15837127,9.701903
69354681408790,0.003433686,-0.17967622,9.737634
69354701264791,-0.005260662,-0.19541873,9.786577
69354721120792,0.012641237,-0.16887857,9.827945
69354740974093,0.026325101,-0.11181905,9.81814
69354760829966,0.05587765,-0.15031128,9.7365885
69354780685967,0.0599839,-0.18729827,9.781559
69354800541840,0.05341768,-0.15349953,9.776028
69354820397841,0.030519594,-0.1440062,9.755442
69354840249622,0.016972173,-0.14508417,9.775308
69354860105495,-3.7227396E-4,-0.16120519,9.76376
69354879961496,0.032143045,-0.17488976,9.726576
69354899817369,0.022236452,-0.16778776,9.769292
69354919673242,0.018029293,-0.15287322,9.774161
69354939529115,0.035515297,-0.19099896,9.734065
69354959374846,0.06530427,-0.18832438,9.723341
69354979230591,0.04215189,-0.15296988,9.747007
69354999086208,-0.005146191,-0.13415511,9.795754
69355018941825,0.07863203,-0.1493948,9.806439
69355038791848,0.096475065,-0.1734002,9.7858305
69355058647337,0.05169143,-0.16259724,9.741151
69355078502826,0.043455563,-0.13118763,9.760339
69355098358315,0.08530226,-0.0953656,9.765699
69355118213804,0.029128427,-0.13370113,9.739172
69355138071507,0.0054362565,-0.2017215,9.729141
69355157927105,0.05177786,-0.21660301,9.7429
69355177782722,0.080578536,-0.16718958,9.738946
69355197638339,0.10021883,-0.099310465,9.761221
69355217493956,0.09863889,-0.08994994,9.791259
69355237349573,0.101923056,-0.08493081,9.795215
69355257205426,0.124018855,-0.1015371,9.773288
69355277061043,0.08611235,-0.14368527,9.749481
69355296916532,0.045613848,-0.15732953,9.759814
69355316772149,0.046060704,-0.13145952,9.784623
69355336619722,0.10294668,-0.082791984,9.736547
69355356475083,0.0759719,-0.122953735,9.724345
69355376330444,0.07806202,-0.1770864,9.718791
69355396185933,0.100239135,-0.13747019,9.760319
69355416041294,0.088852316,-0.12085324,9.782042
69355435896655,0.07963529,-0.10909628,9.748674
69355455754152,0.10127596,-0.10709948,9.760076
69355475609513,0.09597707,-0.12231459,9.818582
69355495465002,0.10969118,-0.11501002,9.751525
69355515320363,0.090753585,-0.15000239,9.711591
69355535175724,0.08890841,-0.09917603,9.729837
69355555031859,0.05882216,-0.043507084,9.78424
69355574887348,0.011599505,-0.06309302,9.778691
69355594742709,0.08847475,-0.09681414,9.7634535
69355614598070,0.1566674,-0.124995545,9.742595
69355634453481,-0.0037611523,-0.16372128,9.712778
69355654308842,-0.03727498,-0.13611339,9.733837
69355674164203,-0.041797776,-0.13328831,9.736282
69355694019692,-0.08263438,-0.12336986,9.733741
69355713875053,-0.08995964,-0.14894344,9.740356
69355733730414,-0.048602078,-0.15295738,9.80272
69355753585629,-0.048223946,-0.112961456,9.794741
69355773440990,-0.038791522,-0.10642659,9.790563
69355793296223,-0.02842167,-0.12767586,9.777994
69355813151584,-0.030341681,-0.13849364,9.786942
69355833006945,-0.05251095,-0.14966308,9.756498
69355852864276,-0.068862624,-0.13338266,9.784855
69355872719637,-0.046473388,-0.12790835,9.79179
69355892574998,-0.07227836,-0.1325769,9.772914
69355912430359,-0.0771507,-0.1316809,9.744103
69355932288640,-0.09323196,-0.15255556,9.73144
69355952144001,-0.048404917,-0.15127714,9.69324
69355971999490,-0.013830126,-0.16334985,9.679652
69355991854979,-0.029116547,-0.14543962,9.719825
69356011710340,-0.09142761,-0.12892684,9.745009
69356031565829,-0.08441775,-0.13258433,9.771583
69356051430382,0.0076697073,-0.13695814,9.836704
69356071285999,-0.04936376,-0.13510351,9.844016
69356091141616,-0.10893568,-0.16310792,9.775577
69356110997209,-0.0021605466,-0.14358449,9.751325
69356130852826,0.040819228,-0.113152936,9.753042
69356150713059,-0.033826306,-0.091602355,9.783019
69356170568804,-0.036555484,-0.08379193,9.753002
69356190424549,-0.032633062,-0.12231866,9.736314
69356210280294,-0.06545478,-0.12580816,9.7177515
69356230135075,-0.060948055,-0.12370399,9.714641
69356249990820,-0.0123081375,-0.11550479,9.694769
69356269846693,-0.049475722,-0.11438172,9.709907
69356289702438,-0.07778865,-0.14499839,9.738531
69356309558311,-0.070081465,-0.16329217,9.796326
69356329414056,-0.041346494,-0.14633316,9.825454
69356349271435,-0.004684246,-0.13937941,9.833485
69356369127308,0.017091932,-0.14747714,9.806084
69356388983181,-0.025400683,-0.14636548,9.787685
69356408839054,-0.044026665,-0.13745277,9.768574
69356428694927,-0.013404595,-0.13022035,9.762513
69356448550404,-0.02077741,-0.1272217,9.733579
69356468406277,-0.04796063,-0.13166401,9.724383
69356488262150,-0.083031185,-0.13248093,9.708058
69356508118023,-0.046910994,-0.14724973,9.7338
69356527973896,-0.015963849,-0.16276266,9.755233
69356547829769,-0.010413196,-0.16535333,9.735707
69356567687476,-0.049428,-0.16088343,9.75781
69356587543326,-0.065541655,-0.11931701,9.77679
69356607399199,-0.042406593,-0.12505658,9.772677
69356627255072,-0.024517141,-0.12434021,9.809558
69356647111499,-0.040344868,-0.13457745,9.810124
69356666967372,-0.050629932,-0.122289084,9.785323
69356686823245,-0.021112548,-0.1278258,9.770802
69356706679118,-0.020082222,-0.10642525,9.750911
69356726535119,-0.033761762,-0.077338204,9.772845
69356746395894,-0.041958306,-0.11041422,9.756156
69356766251895,-0.024787461,-0.14165336,9.721993
69356786107896,-0.08877485,-0.123414025,9.711771
69356805963897,-0.10860864,-0.12084841,9.730518
69356825819770,-0.06196558,-0.11051535,9.721848
69356845675771,-0.06673534,-0.13007112,9.751604
69356865533600,-0.116573595,-0.15197234,9.796112
69356885389601,-0.09129098,-0.16108912,9.821353
69356905245730,-0.03062341,-0.16488934,9.827616
69356925101859,0.015761277,-0.16817701,9.808603
69356944951858,-0.005732991,-0.13223077,9.786757
69356964807731,-0.029030595,-0.120655194,9.780414
69356984663604,-0.04838942,-0.13929097,9.753304
69357004519605,-0.07950075,-0.12566665,9.737801
69357024375478,-0.09435637,-0.11378869,9.689251
69357044231135,-0.09077936,-0.10979736,9.668929
69357064087114,-0.11903468,-0.068371624,9.689151
69357083942987,-0.12834774,-0.09989571,9.718837
69357103798860,-0.14059126,-0.08853617,9.720296
69357123654861,-0.13420805,-0.094869345,9.768131
69357143510734,-0.13952053,-0.0875643,9.831803
69357163364407,-0.13130948,-0.056840323,9.82662
69357183220280,-0.112049155,-0.028024135,9.846454
69357203076153,-0.10193097,-0.062336095,9.868259
69357222932026,-0.118683115,-0.06809045,9.827523
69357242784297,-0.12890832,-0.10396718,9.745833
69357262640042,-0.11333168,-0.0907255,9.718408
69357282495915,-0.08110202,-0.06702789,9.721801
69357302351660,-0.10783954,-0.045436867,9.742137
69357322207533,-0.116671436,-0.06084469,9.705422
69357342063278,-0.139007,-0.06231223,9.694537
69357361918815,-0.16242513,-0.057236668,9.678668
69357381774688,-0.14399008,-0.059976064,9.717096
69357401630433,-0.1319644,-0.099291496,9.738826
69357421486306,-0.14028688,-0.06707446,9.748399
69357441342051,-0.16854236,-0.06483642,9.796594
69357461190786,-0.15177082,-0.081755064,9.821375
69357481046403,-0.103416786,-0.1025693,9.83879
69357500902020,-0.09208394,-0.099666096,9.856248
69357520757637,-0.08602507,-0.08407947,9.813253
69357540618213,-0.13080017,-0.057518873,9.756091
69357560473958,-0.16178292,-0.067185625,9.722446
69357580329575,-0.17751454,-0.022120688,9.710514
69357600185320,-0.1506617,0.011386631,9.705996
69357620041065,-0.14929676,-0.007913645,9.710626
69357639896682,-0.15747277,-0.042886656,9.702289
69357659757071,-0.1296661,-0.07715925,9.707329
69357679612816,-0.122287795,-0.05002073,9.7328005
69357699468689,-0.147497,-0.037091333,9.732183
69357719324562,-0.15794857,-0.065594845,9.7849455
69357739180307,-0.14361537,-0.05650491,9.835965
69357759036224,-0.13747607,-0.008362564,9.81307
69357778892097,-0.139037,-0.007114264,9.791473
69357798747970,-0.10768105,-0.08657212,9.820208
69357818603843,-0.08688901,-0.07849919,9.753564
69357838453414,-0.14366588,-0.008705466,9.72425
69357858309159,-0.15572554,-0.014956265,9.714136
69357878164776,-0.14627689,-0.035841722,9.72712
69357898020521,-0.14682506,-0.030960381,9.758784
69357917876138,-0.12892078,-0.046845842,9.772776
69357937731883,-0.11525123,-0.07215639,9.743763
69357957584776,-0.1431375,-0.07773457,9.743596
69357977440393,-0.13392808,-0.07069065,9.7566185
69357997296010,-0.12526357,-0.0509312,9.779447
69358017151604,-0.17847799,-0.027867164,9.768006
69358037007221,-0.20856038,-0.062091995,9.759035
69358056868746,-0.16039354,-0.11712083,9.76909
69358076724363,-0.13525236,-0.078077674,9.754511
69358096580108,-0.120818906,-0.0635501,9.778567
69358116435725,-0.109847896,-0.08950608,9.760239
69358136291470,-0.12361365,-0.07380221,9.7695055
69358156147215,-0.15018778,-0.047991,9.734572
69358176007160,-0.14010966,-0.058402438,9.762234
69358195862905,-0.10496893,-0.09135227,9.727904
69358215718650,-0.0951082,-0.07527881,9.733266
69358235574523,-0.10555967,-0.029383142,9.739003
69358255435358,-0.12450602,-0.02923142,9.771261
69358275291231,-0.10401899,-0.06314438,9.753936
69358295147104,-0.09064579,-0.06278595,9.761432
69358315002977,-0.06239891,-0.10405492,9.7551
69358334858850,-0.06794996,-0.07120234,9.74813
69358354716319,-0.08697959,-0.056881204,9.70488
69358374572320,-0.09820872,-0.027178295,9.686763
69358394428321,-0.0865946,-0.0391393,9.767614
69358414284322,-0.060910854,-0.06551171,9.82941
69358434140323,-0.11445173,-0.026853016,9.820543
69358453996324,-0.13328525,-0.027819695,9.779968
69358473855117,-0.06586825,-0.0817079,9.74798
69358493711096,0.011569916,-0.1333549,9.808068
69358513567225,-0.041274454,-0.16530102,9.825545
69358533423226,-0.11014344,-0.13785367,9.80336
69358553281701,-0.14783697,-0.11592798,9.801672
69358573137830,-0.15367745,-0.12134652,9.76656
69358592993959,-0.103425875,-0.15050559,9.740483
69358612850088,-0.09409018,-0.11696513,9.675435
69358632706217,-0.12140802,-0.08938592,9.671802
69358652555666,-0.09337687,-0.0930427,9.677995
69358672411667,-0.093277015,-0.081665084,9.735197
69358692267668,-0.097471334,-0.09356837,9.749003
69358712123669,-0.13314764,-0.10622233,9.769632
69358731979670,-0.09996868,-0.1417821,9.790185
69358751835671,-0.076559305,-0.16159315,9.798497
69358771688576,-0.048896585,-0.14449857,9.783416
69358791544449,-0.051147327,-0.09573035,9.801097
69358811400450,-0.07028904,-0.101411186,9.7945385
69358831256323,-0.08479984,-0.09396553,9.800703
69358851111508,-0.10721852,-0.08538898,9.773868
69358870967509,-0.091639794,-0.085122034,9.769274
69358890823382,-0.0785425,-0.08709806,9.777367
69358910679383,-0.053010955,-0.08694247,9.766561
69358930535256,-0.06716428,-0.1030503,9.723862
69358950391129,-0.09519096,-0.100907266,9.725088
69358970240858,-0.05966675,-0.10278573,9.700156
69358990096603,-0.06108003,-0.094836265,9.718806
69359009952476,-0.04174758,-0.11348072,9.791578
69359029808221,-0.050285403,-0.10267355,9.7500305
69359049664094,-0.08183715,-0.10878481,9.744708
69359069512843,-0.06262331,-0.106044576,9.759145
69359089368460,-0.03410079,-0.09541074,9.773998
69359109224077,-0.044541605,-0.10265742,9.759071
69359129079694,-0.05272431,-0.13312776,9.775745
69359148933299,-0.027765673,-0.15988189,9.76628
69359168788788,-0.05188084,-0.12220844,9.784073
69359188644405,-0.062467318,-0.081065126,9.778036
69359208500022,-0.052993357,-0.11147607,9.7708025
69359228355639,-0.05425638,-0.10379348,9.736059
69359248211256,-0.12007556,-0.09104448,9.739785
69359268065245,-0.12309681,-0.120295756,9.755715
69359287920862,-0.08362697,-0.17346983,9.757381
69359307776351,-0.06389654,-0.16841495,9.771485
69359327631968,-0.046208218,-0.14060421,9.785578
69359347487457,-0.06366246,-0.132604,9.76239
69359367334614,-0.08998807,-0.11150366,9.799382
69359387189975,-0.06803361,-0.10171994,9.798107
69359407045336,-0.05500823,-0.11240893,9.778429
69359426900697,-0.054314084,-0.13404985,9.732342
69359446757872,-0.023852374,-0.12058864,9.713101
69359466613233,-0.02230635,-0.103680804,9.729994
69359486468466,-0.040989105,-0.08937135,9.763563
69359506323827,-0.044365473,-0.09577367,9.752622
69359526179188,-0.0580602,-0.11057015,9.73405
69359546034549,-0.06478487,-0.11459821,9.740055
69359565892574,-0.039239407,-0.121554695,9.758263
69359585747935,-0.020041727,-0.11825939,9.729437
69359605603296,-0.024758851,-0.11419537,9.7584
69359625458529,-0.031955894,-0.115903474,9.815101
69359645313890,-0.03556311,-0.11789786,9.801127
69359665169717,-0.08890144,-0.13655154,9.825358
69359685025078,-0.0741095,-0.111922435,9.827876
69359704880439,-0.030206438,-0.098660655,9.834355
69359724735800,0.023782356,-0.099636234,9.791
69359744591033,0.07157405,-0.102926314,9.731513
69359764446394,-0.015298377,-0.09115965,9.6984825
69359784304277,-0.09635047,-0.091358595,9.734624
69359804159638,-0.04334897,-0.10761886,9.73722
69359824014999,-0.007988395,-0.103770815,9.728773
69359843870360,-0.069015376,-0.10170624,9.745875
69359863729787,-0.12545839,-0.13828443,9.763205
69359883585276,-0.020051088,-0.21008778,9.764305
69359903440765,0.09651178,-0.23212668,9.723402
69359923296232,0.032314856,-0.14620942,9.736019
69359943151721,-0.11921817,-0.045345623,9.760944
69359963009996,-0.18912278,-0.06976836,9.812206
69359982865485,-0.012338239,-0.13964406,9.8292055
69360002721102,0.10795073,-0.15278935,9.809842
69360022576591,-0.038886383,-0.11175793,9.774508
69360042432080,-0.086400665,-0.1308063,9.771918
69360062287697,0.03772442,-0.13134015,9.757753
69360082145916,0.032116946,-0.09150005,9.711572
69360102001533,-0.100431815,-0.093711935,9.685637
69360121857150,-0.16773395,-0.13804956,9.700524
69360141712767,-0.10627309,-0.15202798,9.699013
69360161575644,-0.056778822,-0.1222553,9.743654
69360181431389,0.010634817,-0.116984986,9.794791
69360201287262,0.01821866,-0.09617191,9.808222
69360221143135,0.016787171,-0.103191294,9.826313
69360240998880,-0.011949865,-0.117578946,9.898995
69360260857807,-0.07521632,-0.1255579,9.813841
69360280713680,-0.06286293,-0.13809243,9.71483
69360300569553,-0.035586156,-0.1449785,9.730172
69360320425426,-0.019143444,-0.09869898,9.739283
69360340281299,-0.0020188657,-0.09290368,9.736862
69360360137172,0.02986351,-0.12325395,9.742828
69360379987011,-0.054555964,-0.12480727,9.743791
69360399842734,-0.15626653,-0.09343711,9.757982
69360419698607,-0.08884722,-0.13533771,9.763607
69360439554352,-0.010678514,-0.14547633,9.766855
69360459410975,-0.03493799,-0.12242126,9.748036
69360479266848,-0.073762834,-0.091813006,9.76426
69360499122721,-0.08772433,-0.08805479,9.79235
69360518978594,-0.08403408,-0.11511133,9.823942
69360538834467,-0.037444714,-0.12295984,9.806696
69360558690212,0.002469111,-0.117059104,9.747534
69360578547333,-0.062643826,-0.10283319,9.732462
69360598403206,-0.061100505,-0.11661684,9.745896
69360618259079,-0.036857974,-0.1321419,9.763903
69360638114824,-0.06529299,-0.12233421,9.749479
69360657970697,-0.13610797,-0.09787956,9.772884
69360677827826,-0.09900283,-0.09277254,9.770017
69360697683699,-0.058224123,-0.11149797,9.786257
69360717539572,-0.032170314,-0.14271384,9.771731
69360737395445,-0.03394771,-0.15500014,9.770858
69360757255456,-0.039524194,-0.14841847,9.76843
69360777111457,-0.0317258,-0.13641293,9.780707
69360796967458,-0.021722814,-0.111207396,9.766991
69360816823459,-0.09594304,-0.06482758,9.725325
69360836679332,-0.1051591,-0.04516816,9.7170925
69360856535333,-0.05997764,-0.0779452,9.751287
69360876392701,-0.0391543,-0.1599155,9.741225
69360896248702,-0.052847143,-0.1567296,9.717938
69360916104703,-0.0058014016,-0.12742418,9.740838
69360935960704,0.009929114,-0.110731095,9.785598
69360955816705,-0.0068459203,-0.13209134,9.79254
69360975660462,-0.03583414,-0.1596874,9.779699
69360995516207,-0.10606559,-0.16131747,9.726434
69361015371824,-0.10274009,-0.1490878,9.66137
69361035227569,-0.047986105,-0.13855696,9.661653
69361055071836,-0.014214545,-0.13347343,9.708503
69361074927325,-0.038478516,-0.111852184,9.788291
69361094782814,-0.08164633,-0.11162897,9.821833
69361114638431,-0.06963086,-0.102997206,9.892306
69361134493920,0.006005232,-0.12905656,9.909788
69361154349409,0.006001459,-0.17893367,9.901735
69361174200576,0.04128775,-0.20713484,9.819245
69361194055937,0.046962637,-0.20853664,9.746009
69361213911426,-0.054507192,-0.15684365,9.6987
69361233766787,-0.19187118,-0.13358127,9.729201
69361253622276,-0.14840856,-0.16800837,9.695241
69361273478993,-0.118682116,-0.1015761,9.741778
69361293334482,-0.0047109188,-0.14530282,9.667797
69361313189843,-0.13443129,-0.06974442,9.678543
69361333045332,-0.23783563,-0.40358308,9.778898
69361352900671,0.1280476,-0.3205289,9.771809
69361372756032,0.19497636,-0.082741626,9.672285
69361392613801,-0.012619343,0.17442279,9.789826
69361412469162,-0.28281155,0.17858806,9.7289095
69361432324651,-0.23930724,0.08907815,9.7879305
69361452180012,-0.021436295,-0.0045503443,9.863307
69361472039639,-0.06673623,-0.03528916,9.8650465
69361491895128,-0.03537606,-0.12858646,9.794807
69361511750617,0.07054444,-0.15989357,9.764206
69361531606106,-0.016958704,-0.044933807,9.751042
69361551461595,-0.13566042,-0.009660138,9.736532
69361571315408,-0.07391273,-0.060769722,9.715941
69361591170897,-0.043629747,-0.120340265,9.702505
69361611026258,-0.12647371,-0.12110177,9.724511
69361630881747,-0.1532669,-0.055814482,9.731994
69361650737236,-0.06317279,-0.073646136,9.76479
69361670592725,-0.0062538153,-0.13105021,9.794096
69361690450744,-0.02822216,-0.13360384,9.806706
69361710306105,0.017975861,-0.13257314,9.79142
69361730161594,0.069695,-0.10884378,9.770334
69361750017083,0.06656147,-0.05544976,9.771594
69361769875046,0.010442623,-0.008733656,9.755616
69361789730535,-0.08669467,0.004900074,9.682867
69361809586152,-0.09000671,6.0925895E-4,9.715344
69361829441619,-0.063992575,-0.06223511,9.774354
69361849297236,-0.066013016,-0.14185736,9.774955
69361869153213,-0.07650052,-0.18757193,9.724803
69361889008830,-0.10745624,-0.15697043,9.694919
69361908864447,-0.06942653,-0.104409814,9.732957
69361928719936,-0.038473215,-0.075916715,9.755984
69361948575553,-0.06835168,-0.07317774,9.751156
69361968431170,-0.13060501,-0.047250822,9.741228
69361988281381,-0.21597168,-0.007574112,9.795426
69362008136742,-0.2325,-0.060803283,9.846144
69362027992231,-0.18665482,-0.2095069,9.865392
69362047847592,-0.07017527,-0.30280378,9.817534
69362067703867,-0.09403079,-0.25022525,9.793012
69362087559356,-0.23675153,-0.11866329,9.754061
69362107414717,-0.24227192,-0.05691671,9.765041
69362127270206,-0.15334369,-0.035100687,9.766476
69362147125695,-0.14088266,0.007243247,9.777542
69362166981056,-0.1904727,-0.0070103514,9.793583
69362186835245,-0.20156156,-0.037759636,9.777039
69362206690606,-0.11722015,-0.084769875,9.749983
69362226546095,-0.07250506,-0.24166422,9.691954
69362246401456,-0.06367829,-0.1954468,9.669482
69362266256945,-0.09193587,0.020948362,9.705747
69362286116116,-0.14087732,0.07472254,9.726669
69362305971711,-0.1271403,0.054389093,9.748821
69362325827200,-0.072782576,0.025614202,9.765334
69362345682689,-0.05528741,0.11973525,9.782481
69362365546742,-0.0911653,0.116898246,9.802547
69362385402487,-0.12733014,-0.021011591,9.805288
69362405258232,-0.14973512,-0.11398441,9.822978
69362425113977,-0.10706578,-0.049485356,9.807765
69362444969722,-0.10781994,0.013629437,9.779893
69362464825467,-0.15033066,-0.0035623615,9.75405
69362484684388,-0.11947315,-0.033967793,9.742605
69362504540261,-0.065987036,0.021576613,9.739751
69362524396134,-0.0749471,0.009652883,9.747773
69362544252007,-0.11168316,-0.03741151,9.741182
69362564107880,-0.14285834,-0.066907376,9.710427
69362583962327,-0.12897617,-0.022965789,9.708302
69362603818072,-0.09935714,0.016578048,9.790867
69362623673945,-0.093933165,-0.025485098,9.8094845
69362643529818,-0.124431476,-0.11428828,9.760691
69362663378365,-0.11318471,-0.08739871,9.753156
69362683233982,-0.095139705,-0.07179862,9.777909
69362703089599,-0.09587186,-0.038364857,9.813916
69362722945216,-0.07849289,-0.0847522,9.791549
69362742800833,-0.08333813,-0.103221,9.769411
69362762656450,-0.12762567,-0.0073286593,9.786683
69362782517140,-0.16517697,0.08266517,9.806881
69362802372757,-0.17435488,0.006132154,9.80427
69362822228374,-0.14189082,-0.023919808,9.782342
69362842084119,-0.122339375,0.029273707,9.771347
69362861939736,-0.12006267,0.10605214,9.760265
69362881792301,-0.12696639,0.09389594,9.747609
69362901647918,-0.13132723,0.048268493,9.716312
69362921503535,-0.11394255,0.011455242,9.668769
69362941359152,-0.10448368,0.0694432,9.598854
69362961215245,-0.11433706,0.098373644,9.574177
69362981070990,-0.13464366,0.024593359,9.626655
69363000926607,-0.13464464,-0.0067336652,9.7056875
69363020782224,-0.084931016,0.055089485,9.803644
69363040637841,-0.049791947,0.041332107,9.843916
69363060493458,-0.08649703,0.013513528,9.920566
69363080342145,-0.12099736,0.0222499,9.908786
69363100197762,-0.13375501,0.027398966,9.881796
69363120053251,-0.16890693,-0.020852223,9.846702
69363139908868,-0.1285507,-0.017197499,9.813022
69363159764357,-0.069463946,0.0020124102,9.749655
69363179612854,-0.055891223,0.011328863,9.77817
69363199468343,-0.05043474,0.05287678,9.738463
69363219323704,-0.030594356,0.10743596,9.710589
69363239179065,-0.07274809,0.123896204,9.686049
69363259034404,-0.10519634,0.028788563,9.667141
69363278889893,-0.12320078,-0.01839507,9.692865
69363298747162,-0.14836878,0.0042768447,9.737349
69363318602651,-0.20390722,-0.00845509,9.737561
69363338458012,-0.16315395,-0.018695291,9.760679
69363358313501,-0.08714902,0.017188065,9.775334
69363378170434,-0.029477142,0.08452184,9.798277
69363398025923,-0.056695893,0.09688521,9.795661
69363417881412,-0.09104282,0.070245795,9.777167
69363437736901,-0.12714916,0.08872036,9.788458
69363457592390,-0.12185923,0.052949864,9.783634
69363477450287,-0.11934668,-0.012091481,9.809696
69363497305776,-0.10449621,-0.024824928,9.796734
69363517161265,-0.10475942,0.08064941,9.784864
69363537016754,-0.11661884,0.1580816,9.758936
69363556872243,-0.117964044,0.11845911,9.732591
69363576727732,-0.09864376,0.06956667,9.6930065
69363596582819,-0.067337915,0.09119012,9.750117
69363616438308,-0.104694895,0.08881572,9.80524
69363636293797,-0.10222916,0.033061422,9.781407
69363656149158,-0.09957929,0.020801488,9.684963
69363676001327,-0.09146222,0.09838387,9.625127
69363695856816,-0.11740092,0.1235298,9.643284
69363715712177,-0.13761166,0.058348674,9.769133
69363735567516,-0.11182073,0.07854562,9.894369
69363755422877,-0.08248083,0.09835071,9.913461
69363775283764,-0.07283877,0.098486975,9.924642
69363795139253,-0.06793461,0.0507103,9.796314
69363814994742,-0.11052423,0.035510622,9.730615
69363834850103,-0.12752427,0.055888742,9.786076
69363854705592,-0.08316988,0.053942423,9.774012
69363874561081,-0.023917377,0.048641734,9.815842
69363894423080,-0.072903015,0.05269204,9.82623
69363914278697,-0.15658411,0.0268888,9.80944
69363934134186,-0.10463841,0.07535009,9.781491
69363953989803,-0.05804715,0.095247395,9.776982
69363973853022,-0.071907066,0.06647932,9.813402
69363993708767,-0.10001242,0.02852937,9.816041
69364013564640,-0.084865764,0.08267641,9.838747
69364033420385,-0.11237828,0.05990414,9.872502
69364053276130,-0.16882212,-0.007994,9.905591
69364073131875,-0.1054071,-0.04128761,9.863106
69364092984718,-0.09305053,-0.033040524,9.887237
69364112840463,-0.10939756,0.024932945,9.89909
69364132696208,-0.11761474,0.073351555,9.9209795
69364152551953,-0.107627995,0.08129591,9.930739
69364172407698,-0.099469185,0.042075913,9.951374
69364192263607,-0.1097271,0.03249654,9.960853
69364212119330,-0.12807588,-0.019363308,9.974117
69364231975075,-0.14182098,-0.002917159,9.979939
69364251830820,-0.15273076,-0.005500239,9.954583
69364271675215,-0.14684439,0.055199318,9.946773
69364291530832,-0.1290464,0.06852391,9.986621
69364311386321,-0.1149659,0.0087173525,9.981905
69364331241810,-0.11117714,-0.028078869,9.990356
69364351097427,-0.12709075,7.98879E-4,10.048555
69364370952916,-0.1206132,0.01981435,9.993383
69364390809417,-0.09660599,0.014935537,9.991921
69364410665034,-0.08822858,0.03157331,10.050416
69364430520651,-0.10149766,0.013748858,10.0921
69364450376268,-0.08871421,-0.0025486406,10.113145
69364470232013,-0.12152354,-0.045078166,10.136118
69364490081212,-0.1350099,-0.03076371,10.110149
69364509936701,-0.14686537,0.04931114,10.130845
69364529792190,-0.15859297,0.052158266,10.183786
69364549647679,-0.15014601,0.013451067,10.157401
69364569492892,-0.21343516,0.05452588,10.189497
69364589348125,-0.22444206,0.11632502,10.198794
69364609203486,-0.19005731,0.010243443,10.199331
69364629058847,-0.12121219,-0.061476637,10.188102
69364648914208,-0.044990998,0.060488414,10.21663
69364668769441,-0.14719094,0.102979966,10.264191
69364688628407,-0.2518216,0.089979,10.212954
69364708483768,-0.20077302,0.05943526,10.21541
69364728339001,-0.09119776,0.15297487,10.231559
69364748194362,-0.068639584,0.11852758,10.263817
69364768049723,-0.10526305,-0.021630637,10.269921
69364787912218,-0.11514374,0.02532737,10.290878
69364807767579,-0.10952847,0.11322083,10.311994
69364827622940,-0.13273446,0.047045745,10.310012
69364847478301,-0.13927999,0.012457316,10.328864
69364867333662,-0.111323155,0.056619734,10.376389
69364887189023,-0.15783536,0.027882025,10.366847
69364907050748,-0.11701128,-0.039968748,10.400451
69364926906237,-0.08616926,-0.021527756,10.367103
69364946761726,-0.12681113,-0.0039919377,10.318228
69364966617087,-0.14255953,0.023239942,10.325603
69364986458654,-0.080892496,0.03519571,10.292579
69365006313759,0.004154774,0.082687825,10.304269
69365026168992,-0.059416834,0.063394725,10.283312
69365046024225,-0.18471815,-0.06899664,10.330382
69365065879330,-0.1342567,-0.071035475,10.374891
69365085714583,-0.048061103,0.0960329,10.334051
69365105569432,-0.043287702,0.107255206,10.334695
69365125424281,-0.09129987,-0.0063286875,10.345134
69365145279002,-0.092803806,0.064113796,10.357927
69365165133829,0.061863404,0.22261538,10.400659
69365184988678,-0.0528041,0.21405745,10.406003
69365204853737,-0.17940195,0.1647885,10.373535
69365224708714,-0.13470384,0.12550387,10.407798
69365244563691,-0.030175084,0.1649981,10.40511
69365264418668,-0.012010197,0.14658904,10.380062
69365284278937,0.0014991879,0.105775185,10.414584
69365304134042,-0.010149234,0.17056002,10.369289
69365323989019,-0.037139192,0.19327825,10.332108
69365343843996,-0.06461319,0.13783027,10.350413
69365363698973,-0.14965375,0.09755387,10.369638
69365383558996,0.004167385,0.049474325,10.337677
69365403414101,0.19141841,0.011524929,10.403801
69365423269206,0.002171805,0.089139566,10.375546
69365443124439,-0.16698606,0.15902685,10.285103
69365462979544,-0.11479477,0.17552052,10.354794
69365482834649,-0.19691709,0.08121205,10.493927
69365502697654,0.033662535,0.17431313,10.374028
69365522553015,0.052034862,0.2188255,10.346854
69365542408248,-0.09719243,0.123024,10.370415
69365562263609,-0.010723516,0.08060919,10.388952
69365582125928,-0.010442481,0.04985718,10.396183
69365601981417,-0.110600956,0.09523743,10.407447
69365621837034,-0.10758083,0.17806822,10.352657
69365641692500,-0.17317043,0.21678083,10.4429455
69365661547989,0.012568293,0.10813921,10.339876
69365681403606,-0.04767135,-0.013460792,10.377636
69365701262887,-0.14068718,-0.02120571,10.349074
69365721118504,-0.015445175,0.10239717,10.303126
69365740974121,-0.0020066202,0.02908207,10.383474
69365760829866,-0.06110404,0.06420235,10.448321
69365780685483,-0.16555338,0.09383938,10.34584
69365800551492,-0.19790187,0.067130335,10.35922
69365820407365,-0.13335088,0.033635262,10.379398
69365840263238,-0.009325955,0.08405799,10.348622
69365860119111,-0.0054802396,0.09647745,10.399005
69365879970256,-0.015797148,0.102315724,10.460744
69365899826129,0.027145552,0.17455067,10.42281
69365919681874,-0.08314485,0.25645328,10.413544
69365939537619,-0.15021813,0.18138306,10.291439
69365959393364,-0.0657988,0.06627159,10.327489
69365979249237,-0.14825435,0.12314879,10.498053
69365999109962,-0.17108622,0.13653117,10.355093
69366018965835,-0.037481043,0.030626044,10.306789
69366038821708,0.20269257,0.024440197,10.3400755
69366058677581,0.122613914,0.15745667,10.430438
69366078533582,-0.08884428,0.078010574,10.475271
69366098382367,-0.030874478,-0.031034928,10.4303255
69366118238091,0.04062385,-0.18623368,10.263329
69366138093836,-0.10361951,-0.15455675,10.333436
69366157949581,-0.2635033,-0.11956832,10.431313
69366177798694,-0.14094588,-0.18386555,10.399564
69366197654311,0.026357912,-0.16834667,10.381433
69366217509800,0.026574032,-0.073689945,10.354981
69366237365289,0.06677031,0.018100573,10.400137
69366257220778,-0.016996183,0.034943916,10.483149
69366277076395,-0.21617311,0.050289746,10.575901
69366296944190,-0.3227637,0.14547332,10.600773
69366316799935,-0.29005313,-0.15861279,10.402838
69366336655808,-0.27510488,-0.7383065,10.437215
69366356511553,-0.37300837,-1.1341505,10.534831
69366376367426,-1.3724742,-0.9752538,10.42433
69366396226155,-2.5475023,-1.7727464,10.558692
69366416082156,-1.4829471,-2.6343262,10.470309
69366435938157,-0.5961676,-2.164444,10.506601
69366455794158,2.699275,-0.71006536,9.361645
69366475650159,6.1073637,3.270974,10.120422
69366495506160,0.30129498,3.7805417,11.166536
69366515370299,-1.7515718,1.093591,9.712514
69366535226556,-2.0603764,0.93140054,9.563301
69366555082813,-1.8468676,0.8598635,9.915374
69366574939070,-2.0516384,0.118100554,10.468308
69366594795307,0.2530262,-0.8668946,10.051204
69366614645956,3.9440176,0.27227572,9.388326
69366634502085,3.044195,1.0130869,10.468666
69366654358086,1.4818215,1.1794255,10.589361
69366674214215,0.16504459,1.1301076,10.140555
69366694070344,0.90051955,2.946249,10.586461
69366713910229,1.8773447,5.073743,10.74027
69366733765846,1.7586374,4.6441393,10.363669
69366753621463,0.5869456,3.109679,11.166094
69366773477080,-0.23126031,0.05539242,11.066295
69366793332697,-0.56075495,-7.445307,9.660806
69366813194484,-1.2931188,-10.285719,6.482966
69366833050229,0.18048964,-4.884806,6.308652
69366852905974,-1.9050184,0.386138,9.41452
69366872761719,-1.146368,1.6657807,11.406344
69366892617464,-0.67966175,2.142591,12.23007
69366912469899,-1.2161391,0.04376739,10.691322
69366932325644,-0.8943378,-1.7964197,8.470496
69366952181389,-0.54596704,-2.593776,8.036086
69366972037134,-2.1317222,2.2312064,9.650318
69366991892879,-3.5587668,0.9271497,11.269422
69367011742896,-1.1608386,-3.2282207,10.984135
69367031598513,-1.2958612,-0.54545766,11.153478
69367051454130,-1.7116456,0.5629122,11.184746
69367071309726,-3.4524698,2.7150867,10.179575
69367091165215,-3.9362571,3.1471484,10.680917
69367111013128,-4.723783,6.7651477,10.701069
69367130868489,-2.535611,4.5934935,10.080448
69367150723978,1.2977784,-2.325591,8.919535
69367170579467,3.4613476,-4.271211,7.2976966
69367190434828,0.16692476,-0.5569176,10.213334
69367210283327,-0.5778904,-1.975896,10.884201
69367230138560,1.1864316,-0.9307632,8.461034
69367249993921,1.5291194,-0.6172367,8.443879
69367269849154,1.1341928,-0.32682034,8.582626
69367289704515,0.36090624,-1.8648834,9.594936
69367309563290,-0.23807763,-1.8485749,11.188257
69367329418523,-0.8406429,2.8319454,10.36625
69367349273884,-1.8431969,6.480651,9.870488
69367369129245,0.85876423,-2.6182897,11.337161
69367388984478,0.49922746,-0.61970484,11.790853
69367408837193,0.8693884,0.05198242,12.121719
69367428692426,1.0625132,0.16313739,12.924325
69367448547787,1.890135,-0.09478541,13.464439
69367468403020,1.0574982,-1.0509171,13.8734
69367488258381,0.7955642,-1.1572978,12.686965
69367508112962,1.7027915,-0.7244986,11.867951
69367527968195,1.324967,-0.9463424,11.693859
69367547823406,2.3216417,1.7705584,9.986314
69367567678639,1.3603253,0.6339294,10.038756
69367587533872,0.40425047,1.5660218,10.482774
69367607388441,-0.37171927,3.2139819,10.66284
69367627243674,0.9062754,4.6331515,9.917533
69367647098907,-1.197187,4.4869356,8.396778
69367666954140,0.5135355,2.982023,8.771408
69367686809373,-1.3043042,1.2792296,10.067193
69367706664332,1.0228646,-0.39408475,10.798177
69367726519437,2.4584038,-0.36197835,11.17149
69367746374670,2.9082196,-2.1336315,11.351679
69367766229775,2.4721773,-2.4415493,11.710964
69367786085008,1.6863748,-3.0183396,11.612255
69367805941563,1.6182135,-3.62196,11.565188
69367825796668,1.7550128,-3.7055264,11.84479
69367845651901,1.3959228,-4.4139066,11.489033
69367865507006,0.6534992,-4.0109053,10.865022
69367885362111,-0.16538122,-3.4598477,10.783605
69367905224104,-0.3937582,-3.2305558,10.487098
69367925079465,-0.12911695,-3.3689713,9.276558
69367944934826,-0.22449274,-3.4917502,8.206482
69367964790059,-0.41243684,-2.9083257,7.843873
69367984645420,0.28568414,-2.547232,7.143838
69368004505177,0.7466212,-2.6384275,6.4900517
69368024360517,-0.283458,4.0990915,5.6828303
69368044215878,-0.752587,3.5220857,6.5378265
69368064071239,-1.1177431,2.9168792,7.090274
69368083926600,-0.8675861,2.901187,6.992092
69368103781953,-0.16995803,3.3768256,6.4724703
69368123637442,0.7960127,3.9501374,6.421841
69368143492803,0.6768862,3.8159213,6.8143287
69368163348292,0.34555936,3.078466,7.3029847
69368183203653,-0.23158748,2.621794,7.551253
69368203067638,-1.4811478,3.12258,9.395665
69368222923255,-1.8534054,5.968251,10.970456
69368242778872,0.9798198,-0.22782779,9.584059
69368262634489,0.62375015,-2.3724036,8.307758
69368282490106,-1.8342862,-1.3326935,7.869615
69368302347119,-0.30861023,-3.736905,12.5679455
69368322202736,1.1073102,-1.3531177,9.342443
69368342058353,-0.070384756,-1.4187778,9.4585495
69368361914098,-0.6482272,-2.8194976,11.94604
69368381769715,1.1562358,-0.7302058,9.562209
69368401631262,0.9130139,-0.52728623,8.241118
69368421487135,-0.077234805,-0.9458248,8.893442
69368441343008,-0.20833609,-0.94434375,9.1119175
69368461198753,-0.8117503,-1.6003386,9.415089
69368481054626,-1.6336428,-2.7124224,9.549107
69368500917188,0.14874618,-7.9180876E-4,10.467046
69368520773189,0.2243813,-0.0113094365,9.845163
69368540629190,0.29857972,0.40294474,8.949741
69368560485191,0.06977977,0.7212602,8.077921
69368580341192,-0.3929709,0.8248092,7.528379
69368600197193,-0.6514634,1.2060354,7.1664233
69368620045690,-0.5454291,1.1819495,7.1834903
69368639901691,0.039186962,0.14373994,8.270362
69368659757564,3.5358467,2.273849,11.140262
69368679613437,9.650702,8.710548,12.45219
69368699469310,4.8665743,5.145364,10.584402
69368719325237,2.1074972,2.8193536,11.943571
69368739181110,-2.0499287,-1.6297327,9.559465
69368759036983,-3.079245,-2.529126,8.993103
69368778892984,0.49542823,0.20577422,9.943673
69368798748857,3.3230615,2.8386638,9.9521675
69368818602736,3.3516338,2.6020253,10.806593
69368838458481,0.9464408,0.5713228,10.711903
69368858314354,0.39012527,0.05353186,8.296575
69368878170099,-0.46554777,-1.1418201,8.9198
69368898025972,0.70889246,-0.36887297,9.946748
69368917885485,1.3268969,0.07753411,9.468939
69368937741486,-1.0180676,0.32580337,8.309429
69368957597359,-0.4534131,-0.36931562,8.566008
69368977453339,1.4098446,0.30095434,8.913894
69368997309212,1.490301,0.46161687,10.138851
69369017148493,2.1271727,1.3252696,10.792544
69369037004110,0.9262184,1.0699326,10.7623625
69369056859724,-0.31175643,0.1479885,9.493685
69369076715340,0.44114432,-0.6662864,8.670984
69369096570956,0.50767887,-0.6919282,9.068652
69369116422397,1.059229,1.0972574,10.627287
69369136277885,0.47391975,-0.19813228,10.564749
69369156133373,-1.219016,-1.4084498,9.105211
69369175988989,-0.19085133,-0.117004156,8.992156
69369195843758,0.31258017,-0.7639482,9.871083
69369215699246,0.34683126,-0.48710456,9.773971
69369235554735,-0.50369084,-1.2253904,8.016826
69369255410094,-0.49750265,-0.90927577,7.2639594
69369275265582,0.025903627,-0.9749129,7.887473
69369295120943,0.08806437,-1.6134489,8.045153
69369314981221,1.276147,-0.24556682,8.942752
69369334836837,2.0778682,0.57785785,9.832977
69369354692326,3.0387888,-0.28890422,11.1014805
69369374547813,4.5090594,1.2980081,13.94507
69369394400028,1.9619132,0.16034926,12.182937
69369414255517,0.87006575,0.014760109,10.693927
69369434110876,1.3352829,2.0876338,10.30645
69369453966364,1.3481873,2.2185938,10.607108
69369473821853,1.0556504,1.1295407,11.175204
69369493677212,0.48172683,1.2619125,9.908556
69369513530378,0.36482376,0.7422637,9.864657
69369533385739,1.2130705,-0.6860877,11.023447
69369553241098,1.3762492,-0.3078619,10.442114
69369573096586,0.27818167,0.096707135,9.501772
69369592951947,-0.0781693,0.07642046,9.398697
69369612808068,0.7427501,0.2685872,8.079769
69369632663428,0.49516827,0.46999782,8.843714
69369652518789,0.12799379,0.5847171,9.396069
69369672374276,0.8398101,-0.002388029,9.591417
69369692228924,0.75641173,0.24713047,10.189561
69369712084285,0.79482174,0.58119345,10.360742
69369731939516,0.96597743,0.47543746,9.988846
69369751794876,0.77490175,1.0010252,9.969451
69369771650237,0.6977409,0.96942455,10.009596
69369791505468,0.64769393,0.45174697,9.773584
69369811367533,0.5816454,0.20751928,9.648889
69369831223022,0.65068346,0.5220748,9.719149
69369851078509,0.7903798,0.6295631,9.904767
69369870933997,0.73346835,0.37347093,9.900287
69369890789486,0.5438192,0.33516866,9.651549
69369910640536,0.6419474,0.338843,9.521948
69369930495896,0.5579764,0.43678945,9.660035
69369950351257,0.5724051,0.44493443,9.939321
69369970206616,0.76352394,0.51246697,10.050296
69369990061976,0.5944699,0.20711257,9.6891575
69370009917337,0.4052254,0.12075015,9.406086
69370029775726,0.52447426,0.17506649,9.475011
69370049631214,0.5376017,0.26232564,9.486313
69370069486703,0.50493956,0.4459413,9.443847
69370089342062,0.5729799,0.44357392,9.572506
69370109205878,0.796742,0.32111385,9.948384
69370129061495,0.8070093,0.44765693,9.935942
69370148917238,0.7453527,0.4149979,9.785312
69370168772854,0.6730114,0.24375163,9.802488
69370188628471,0.598552,0.38705117,9.750315
69370208484214,0.6669166,0.59526247,9.877827
69370228335841,0.7048488,0.39796343,10.052354
69370248191330,0.91455525,0.0413408,10.302111
69370268046945,0.9764144,0.31102312,10.229633
69370287902433,0.6697515,0.55423075,9.681326
69370307758050,0.34674633,0.30680302,9.45569
69370327614673,0.39670143,0.25858274,9.756607
69370347470289,0.54149115,0.4069995,9.799974
69370367325778,0.6821317,0.4308328,9.9137745
69370387181393,0.5568317,0.56348705,9.708198
69370407041619,0.32121688,0.29863065,9.015104
69370426897364,0.24884611,-0.089510046,8.947323
69370446753107,0.51719433,0.26716635,9.452661
69370466608851,0.60932827,0.27319306,9.59097
69370486464596,0.621236,0.20695645,9.579132
69370506320339,0.77088803,0.34786144,9.89847
69370526180376,1.1410174,0.6824387,10.312849
69370546036249,0.80637336,0.54806525,9.982049
